time,gFx,gFy,gFz,ax,ay,az,wx,wy,wz,P
0.004,-0.34,0.57,0.63,-0.50,-0.26,-0.88,-0.26,-0.43,-0.13,0.00
0.005,-0.34,0.57,0.63,-0.50,-0.26,-0.88,-0.25,-0.22,-0.04,0.00
0.005,-0.34,0.57,0.63,-0.07,-0.49,-0.79,-0.25,-0.22,-0.04,0.00
0.006,-0.33,0.53,0.62,-0.07,-0.49,-0.79,-0.25,-0.22,-0.04,0.00
0.007,-0.33,0.53,0.62,-0.07,-0.49,-0.79,-0.22,-0.11,0.03,0.00
0.008,-0.33,0.53,0.62,-0.01,-0.88,-0.87,-0.22,-0.11,0.03,0.00
0.017,-0.36,0.54,0.59,-0.01,-0.88,-0.87,-0.22,-0.11,0.03,0.00
0.018,-0.36,0.54,0.59,-0.01,-0.88,-0.87,-0.20,-0.09,0.04,0.00
0.019,-0.36,0.54,0.59,-0.35,-0.83,-1.17,-0.20,-0.09,0.04,0.00
0.021,-0.37,0.55,0.60,-0.35,-0.83,-1.17,-0.20,-0.09,0.04,0.00
0.022,-0.37,0.55,0.60,-0.35,-0.83,-1.17,-0.21,-0.04,0.05,0.00
0.022,-0.37,0.55,0.60,-0.47,-0.72,-1.12,-0.21,-0.04,0.05,0.00
0.032,-0.37,0.57,0.60,-0.47,-0.72,-1.12,-0.21,-0.04,0.05,0.00
0.034,-0.37,0.57,0.60,-0.47,-0.72,-1.12,-0.20,0.05,0.09,0.00
0.035,-0.37,0.57,0.60,-0.44,-0.48,-1.16,-0.20,0.05,0.09,0.00
0.044,-0.35,0.57,0.57,-0.44,-0.48,-1.16,-0.20,0.05,0.09,0.00
0.045,-0.35,0.57,0.57,-0.44,-0.48,-1.16,-0.18,0.12,0.15,0.00
0.046,-0.35,0.57,0.57,-0.20,-0.50,-1.48,-0.18,0.12,0.15,0.00
0.052,-0.32,0.54,0.55,-0.20,-0.50,-1.48,-0.18,0.12,0.15,0.00
0.053,-0.32,0.54,0.55,-0.20,-0.50,-1.48,-0.18,0.21,0.19,0.00
0.054,-0.32,0.54,0.55,0.05,-0.73,-1.64,-0.18,0.21,0.19,0.00
0.062,-0.29,0.53,0.54,0.05,-0.73,-1.64,-0.18,0.21,0.19,0.00
0.063,-0.29,0.53,0.54,0.05,-0.73,-1.64,-0.18,0.32,0.21,0.00
0.064,-0.29,0.53,0.54,0.35,-0.89,-1.70,-0.18,0.32,0.21,0.00
0.086,-0.31,0.54,0.57,0.35,-0.89,-1.70,-0.18,0.32,0.21,0.00
0.088,-0.31,0.54,0.57,0.35,-0.89,-1.70,-0.18,0.42,0.18,0.00
0.088,-0.31,0.54,0.57,0.18,-0.71,-1.47,-0.18,0.42,0.18,0.00
0.089,-0.37,0.54,0.54,0.18,-0.71,-1.47,-0.18,0.42,0.18,0.00
0.09,-0.37,0.54,0.54,0.18,-0.71,-1.47,-0.17,0.46,0.13,0.00
0.091,-0.37,0.54,0.54,-0.34,-0.70,-1.77,-0.17,0.46,0.13,0.00
0.092,-0.37,0.55,0.58,-0.34,-0.70,-1.77,-0.17,0.46,0.13,0.00
0.093,-0.37,0.55,0.58,-0.34,-0.70,-1.77,-0.15,0.48,0.10,0.00
0.094,-0.37,0.55,0.58,-0.39,-0.63,-1.33,-0.15,0.48,0.10,0.00
0.109,-0.37,0.54,0.57,-0.39,-0.63,-1.33,-0.15,0.48,0.10,0.00
0.11,-0.37,0.54,0.57,-0.39,-0.63,-1.33,-0.15,0.49,0.04,0.00
0.111,-0.37,0.54,0.57,-0.27,-0.73,-1.43,-0.15,0.49,0.04,0.00
0.118,-0.40,0.59,0.58,-0.27,-0.73,-1.43,-0.15,0.49,0.04,0.00
0.119,-0.40,0.59,0.58,-0.27,-0.73,-1.43,-0.13,0.40,-0.05,0.00
0.119,-0.40,0.59,0.58,-0.58,-0.21,-1.31,-0.13,0.40,-0.05,0.00
0.124,-0.41,0.63,0.58,-0.58,-0.21,-1.31,-0.13,0.40,-0.05,0.00
0.126,-0.41,0.63,0.58,-0.58,-0.21,-1.31,-0.10,0.27,-0.11,0.00
0.126,-0.41,0.63,0.58,-0.68,0.18,-1.31,-0.10,0.27,-0.11,0.00
0.132,-0.41,0.65,0.55,-0.68,0.18,-1.31,-0.10,0.27,-0.11,0.00
0.133,-0.41,0.65,0.55,-0.68,0.18,-1.31,-0.08,0.17,-0.12,0.00
0.134,-0.41,0.65,0.55,-0.61,0.42,-1.58,-0.08,0.17,-0.12,0.00
0.144,-0.38,0.67,0.54,-0.61,0.42,-1.58,-0.08,0.17,-0.12,0.00
0.145,-0.38,0.67,0.54,-0.61,0.42,-1.58,-0.08,0.13,-0.10,0.00
0.145,-0.38,0.67,0.54,-0.34,0.58,-1.71,-0.08,0.13,-0.10,0.00
0.153,-0.36,0.67,0.57,-0.34,0.58,-1.71,-0.08,0.13,-0.10,0.00
0.154,-0.36,0.67,0.57,-0.34,0.58,-1.71,-0.10,0.14,-0.10,0.00
0.155,-0.36,0.67,0.57,-0.12,0.60,-1.37,-0.10,0.14,-0.10,0.00
0.17,-0.37,0.68,0.60,-0.12,0.60,-1.37,-0.10,0.14,-0.10,0.00
0.171,-0.37,0.68,0.60,-0.12,0.60,-1.37,-0.11,0.17,-0.11,0.00
0.172,-0.37,0.68,0.60,-0.17,0.68,-1.12,-0.11,0.17,-0.11,0.00
0.186,-0.40,0.69,0.64,-0.17,0.68,-1.12,-0.11,0.17,-0.11,0.00
0.187,-0.40,0.69,0.64,-0.17,0.68,-1.12,-0.12,0.22,-0.11,0.00
0.188,-0.40,0.69,0.64,-0.50,0.84,-0.77,-0.12,0.22,-0.11,0.00
0.189,-0.45,0.70,0.66,-0.50,0.84,-0.77,-0.12,0.22,-0.11,0.00
0.19,-0.45,0.70,0.66,-0.50,0.84,-0.77,-0.12,0.28,-0.11,0.00
0.191,-0.45,0.70,0.66,-0.95,0.92,-0.51,-0.12,0.28,-0.11,0.00
0.204,-0.48,0.70,0.69,-0.95,0.92,-0.51,-0.12,0.28,-0.11,0.00
0.205,-0.48,0.70,0.69,-0.95,0.92,-0.51,-0.15,0.34,-0.09,0.00
0.206,-0.48,0.70,0.69,-1.16,0.91,-0.21,-0.15,0.34,-0.09,0.00
0.207,-0.50,0.69,0.74,-1.16,0.91,-0.21,-0.15,0.34,-0.09,0.00
0.208,-0.50,0.69,0.74,-1.16,0.91,-0.21,-0.22,0.37,-0.07,0.00
0.209,-0.50,0.69,0.74,-1.34,0.83,0.30,-0.22,0.37,-0.07,0.00
0.227,-0.51,0.66,0.81,-1.34,0.83,0.30,-0.22,0.37,-0.07,0.00
0.228,-0.51,0.66,0.81,-1.34,0.83,0.30,-0.29,0.35,-0.06,0.00
0.229,-0.51,0.66,0.81,-1.38,0.62,0.99,-0.29,0.35,-0.06,0.00
0.23,-0.51,0.65,0.86,-1.38,0.62,0.99,-0.29,0.35,-0.06,0.00
0.231,-0.51,0.65,0.86,-1.38,0.62,0.99,-0.32,0.26,-0.05,0.00
0.232,-0.51,0.65,0.86,-1.46,0.49,1.41,-0.32,0.26,-0.05,0.00
0.238,-0.52,0.64,0.85,-1.46,0.49,1.41,-0.32,0.26,-0.05,0.00
0.239,-0.52,0.64,0.85,-1.46,0.49,1.41,-0.30,0.13,-0.04,0.00
0.24,-0.52,0.64,0.85,-1.47,0.45,1.35,-0.30,0.13,-0.04,0.00
0.244,-0.52,0.66,0.80,-1.47,0.45,1.35,-0.30,0.13,-0.04,0.00
0.245,-0.52,0.66,0.80,-1.47,0.45,1.35,-0.26,-0.04,-0.02,0.00
0.246,-0.52,0.66,0.80,-1.49,0.62,0.80,-0.26,-0.04,-0.02,0.00
0.254,-0.50,0.69,0.75,-1.49,0.62,0.80,-0.26,-0.04,-0.02,0.00
0.255,-0.50,0.69,0.75,-1.49,0.62,0.80,-0.23,-0.19,-0.03,0.00
0.256,-0.50,0.69,0.75,-1.30,0.93,0.33,-0.23,-0.19,-0.03,0.00
0.268,-0.46,0.73,0.72,-1.30,0.93,0.33,-0.23,-0.19,-0.03,0.00
0.269,-0.46,0.73,0.72,-1.30,0.93,0.33,-0.20,-0.27,-0.05,0.00
0.27,-0.46,0.73,0.72,-0.95,1.40,-0.06,-0.20,-0.27,-0.05,0.00
0.275,-0.41,0.77,0.70,-0.95,1.40,-0.06,-0.20,-0.27,-0.05,0.00
0.276,-0.41,0.77,0.70,-0.95,1.40,-0.06,-0.22,-0.27,-0.08,0.00
0.277,-0.41,0.77,0.70,-0.50,1.76,-0.24,-0.22,-0.27,-0.08,0.00
0.284,-0.37,0.78,0.73,-0.50,1.76,-0.24,-0.22,-0.27,-0.08,0.00
0.285,-0.37,0.78,0.73,-0.50,1.76,-0.24,-0.30,-0.17,-0.11,0.00
0.286,-0.37,0.78,0.73,-0.07,1.86,0.08,-0.30,-0.17,-0.11,0.00
0.294,-0.34,0.75,0.77,-0.07,1.86,0.08,-0.30,-0.17,-0.11,0.00
0.295,-0.34,0.75,0.77,-0.07,1.86,0.08,-0.42,-0.00,-0.13,0.00
0.296,-0.34,0.75,0.77,0.18,1.61,0.42,-0.42,-0.00,-0.13,0.00
0.304,-0.37,0.71,0.77,0.18,1.61,0.42,-0.42,-0.00,-0.13,0.00
0.305,-0.37,0.71,0.77,0.18,1.61,0.42,-0.54,0.16,-0.17,0.00
0.306,-0.37,0.71,0.77,-0.06,1.32,0.41,-0.54,0.16,-0.17,0.00
0.321,-0.44,0.70,0.77,-0.06,1.32,0.41,-0.54,0.16,-0.17,0.00
0.323,-0.44,0.70,0.77,-0.06,1.32,0.41,-0.65,0.30,-0.24,0.00
0.324,-0.44,0.70,0.77,-0.72,1.23,0.32,-0.65,0.30,-0.24,0.00
0.325,-0.52,0.70,0.75,-0.72,1.23,0.32,-0.65,0.30,-0.24,0.00
0.327,-0.52,0.70,0.75,-0.72,1.23,0.32,-0.73,0.42,-0.31,0.00
0.328,-0.52,0.70,0.75,-1.40,1.28,0.15,-0.73,0.42,-0.31,0.00
0.337,-0.55,0.71,0.74,-1.40,1.28,0.15,-0.73,0.42,-0.31,0.00
0.338,-0.55,0.71,0.74,-1.40,1.28,0.15,-0.79,0.50,-0.37,0.00
0.339,-0.55,0.71,0.74,-1.67,1.47,0.01,-0.79,0.50,-0.37,0.00
0.349,-0.54,0.71,0.77,-1.67,1.47,0.01,-0.79,0.50,-0.37,0.00
0.351,-0.54,0.71,0.77,-1.67,1.47,0.01,-0.83,0.52,-0.43,0.00
0.352,-0.54,0.71,0.77,-1.55,1.58,0.25,-0.83,0.52,-0.43,0.00
0.355,-0.52,0.69,0.77,-1.55,1.58,0.25,-0.83,0.52,-0.43,0.00
0.356,-0.52,0.69,0.77,-1.55,1.58,0.25,-0.82,0.50,-0.50,0.00
0.357,-0.52,0.69,0.77,-1.29,1.42,0.30,-0.82,0.50,-0.50,0.00
0.364,-0.49,0.65,0.72,-1.29,1.42,0.30,-0.82,0.50,-0.50,0.00
0.365,-0.49,0.65,0.72,-1.29,1.42,0.30,-0.78,0.47,-0.55,0.00
0.366,-0.49,0.65,0.72,-0.86,1.15,-0.22,-0.78,0.47,-0.55,0.00
0.386,-0.43,0.61,0.66,-0.86,1.15,-0.22,-0.78,0.47,-0.55,0.00
0.387,-0.43,0.61,0.66,-0.86,1.15,-0.22,-0.77,0.47,-0.57,0.00
0.387,-0.43,0.61,0.66,-0.25,0.82,-0.89,-0.77,0.47,-0.57,0.00
0.388,-0.38,0.54,0.65,-0.25,0.82,-0.89,-0.77,0.47,-0.57,0.00
0.389,-0.38,0.54,0.65,-0.25,0.82,-0.89,-0.81,0.52,-0.58,0.00
0.39,-0.38,0.54,0.65,0.31,0.20,-0.96,-0.81,0.52,-0.58,0.00
0.401,-0.35,0.44,0.69,0.31,0.20,-0.96,-0.81,0.52,-0.58,0.00
0.403,-0.35,0.44,0.69,0.31,0.20,-0.96,-0.87,0.68,-0.61,0.00
0.404,-0.35,0.44,0.69,0.68,-0.69,-0.60,-0.87,0.68,-0.61,0.00
0.42,-0.34,0.32,0.71,0.68,-0.69,-0.60,-0.87,0.68,-0.61,0.00
0.421,-0.34,0.32,0.71,0.68,-0.69,-0.60,-0.91,0.97,-0.64,0.00
0.422,-0.34,0.32,0.71,0.89,-1.71,-0.39,-0.91,0.97,-0.64,0.00
0.423,-0.34,0.23,0.73,0.89,-1.71,-0.39,-0.91,0.97,-0.64,0.00
0.424,-0.34,0.23,0.73,0.89,-1.71,-0.39,-0.95,1.28,-0.67,0.00
0.425,-0.34,0.23,0.73,1.06,-2.55,-0.20,-0.95,1.28,-0.67,0.00
0.441,-0.37,0.16,0.75,1.06,-2.55,-0.20,-0.95,1.28,-0.67,0.00
0.442,-0.37,0.16,0.75,1.06,-2.55,-0.20,-1.01,1.51,-0.71,0.00
0.443,-0.37,0.16,0.75,0.87,-3.07,0.00,-1.01,1.51,-0.71,0.00
0.444,-0.43,0.14,0.76,0.87,-3.07,0.00,-1.01,1.51,-0.71,0.00
0.444,-0.43,0.14,0.76,0.87,-3.07,0.00,-1.07,1.60,-0.77,0.00
0.445,-0.43,0.14,0.76,0.41,-3.17,0.15,-1.07,1.60,-0.77,0.00
0.452,-0.49,0.15,0.76,0.41,-3.17,0.15,-1.07,1.60,-0.77,0.00
0.453,-0.49,0.15,0.76,0.41,-3.17,0.15,-1.10,1.61,-0.81,0.00
0.453,-0.49,0.15,0.76,-0.01,-2.98,0.14,-1.10,1.61,-0.81,0.00
0.455,-0.52,0.18,0.74,-0.01,-2.98,0.14,-1.10,1.61,-0.81,0.00
0.456,-0.52,0.18,0.74,-0.01,-2.98,0.14,-1.13,1.56,-0.84,0.00
0.457,-0.52,0.18,0.74,-0.11,-2.51,-0.04,-1.13,1.56,-0.84,0.00
0.467,-0.51,0.21,0.70,-0.11,-2.51,-0.04,-1.13,1.56,-0.84,0.00
0.468,-0.51,0.21,0.70,-0.11,-2.51,-0.04,-1.15,1.48,-0.87,0.00
0.469,-0.51,0.21,0.70,0.11,-2.09,-0.41,-1.15,1.48,-0.87,0.00
0.475,-0.48,0.23,0.67,0.11,-2.09,-0.41,-1.15,1.48,-0.87,0.00
0.476,-0.48,0.23,0.67,0.11,-2.09,-0.41,-1.19,1.39,-0.92,0.00
0.477,-0.48,0.23,0.67,0.52,-1.81,-0.69,-1.19,1.39,-0.92,0.00
0.485,-0.44,0.22,0.65,0.52,-1.81,-0.69,-1.19,1.39,-0.92,0.00
0.486,-0.44,0.22,0.65,0.52,-1.81,-0.69,-1.23,1.36,-0.99,0.00
0.486,-0.44,0.22,0.65,1.08,-1.77,-0.84,-1.23,1.36,-0.99,0.00
0.496,-0.42,0.19,0.64,1.08,-1.77,-0.84,-1.23,1.36,-0.99,0.00
0.497,-0.42,0.19,0.64,1.08,-1.77,-0.84,-1.25,1.39,-1.08,0.00
0.498,-0.42,0.19,0.64,1.44,-1.85,-0.88,-1.25,1.39,-1.08,0.00
0.505,-0.40,0.15,0.65,1.44,-1.85,-0.88,-1.25,1.39,-1.08,0.00
0.506,-0.40,0.15,0.65,1.44,-1.85,-0.88,-1.28,1.49,-1.17,0.00
0.507,-0.40,0.15,0.65,1.78,-2.14,-0.74,-1.28,1.49,-1.17,0.00
0.52,-0.41,0.11,0.65,1.78,-2.14,-0.74,-1.28,1.49,-1.17,0.00
0.521,-0.41,0.11,0.65,1.78,-2.14,-0.74,-1.32,1.63,-1.23,0.00
0.522,-0.41,0.11,0.65,1.80,-2.33,-0.69,-1.32,1.63,-1.23,0.00
0.528,-0.45,0.09,0.65,1.80,-2.33,-0.69,-1.32,1.63,-1.23,0.00
0.529,-0.45,0.09,0.65,1.80,-2.33,-0.69,-1.39,1.74,-1.29,0.00
0.529,-0.45,0.09,0.65,1.64,-2.34,-0.61,-1.39,1.74,-1.29,0.00
0.537,-0.52,0.09,0.71,1.64,-2.34,-0.61,-1.39,1.74,-1.29,0.00
0.538,-0.52,0.09,0.71,1.64,-2.34,-0.61,-1.46,1.78,-1.34,0.00
0.538,-0.52,0.09,0.71,1.09,-2.18,-0.00,-1.46,1.78,-1.34,0.00
0.548,-0.59,0.08,0.75,1.09,-2.18,-0.00,-1.46,1.78,-1.34,0.00
0.549,-0.59,0.08,0.75,1.09,-2.18,-0.00,-1.49,1.73,-1.35,0.00
0.55,-0.59,0.08,0.75,0.56,-2.13,0.41,-1.49,1.73,-1.35,0.00
0.559,-0.64,0.07,0.73,0.56,-2.13,0.41,-1.49,1.73,-1.35,0.00
0.56,-0.64,0.07,0.73,0.56,-2.13,0.41,-1.46,1.64,-1.30,0.00
0.561,-0.64,0.07,0.73,0.20,-2.02,0.28,-1.46,1.64,-1.30,0.00
0.566,-0.64,0.07,0.70,0.20,-2.02,0.28,-1.46,1.64,-1.30,0.00
0.567,-0.64,0.07,0.70,0.20,-2.02,0.28,-1.46,1.50,-1.23,0.00
0.568,-0.64,0.07,0.70,0.38,-1.87,0.08,-1.46,1.50,-1.23,0.00
0.576,-0.62,0.06,0.74,0.38,-1.87,0.08,-1.46,1.50,-1.23,0.00
0.577,-0.62,0.06,0.74,0.38,-1.87,0.08,-1.49,1.32,-1.18,0.00
0.578,-0.62,0.06,0.74,0.65,-1.73,0.56,-1.49,1.32,-1.18,0.00
0.586,-0.61,0.05,0.77,0.65,-1.73,0.56,-1.49,1.32,-1.18,0.00
0.587,-0.61,0.05,0.77,0.65,-1.73,0.56,-1.48,1.15,-1.17,0.00
0.587,-0.61,0.05,0.77,0.84,-1.66,0.84,-1.48,1.15,-1.17,0.00
0.597,-0.60,0.06,0.77,0.84,-1.66,0.84,-1.48,1.15,-1.17,0.00
0.597,-0.60,0.06,0.77,0.84,-1.66,0.84,-1.44,1.01,-1.15,0.00
0.598,-0.60,0.06,0.77,1.03,-1.40,0.89,-1.44,1.01,-1.15,0.00
0.608,-0.61,0.07,0.79,1.03,-1.40,0.89,-1.44,1.01,-1.15,0.00
0.61,-0.61,0.07,0.79,1.03,-1.40,0.89,-1.42,0.87,-1.11,0.00
0.611,-0.61,0.07,0.79,1.04,-1.11,1.14,-1.42,0.87,-1.11,0.00
0.617,-0.63,0.08,0.84,1.04,-1.11,1.14,-1.42,0.87,-1.11,0.00
0.618,-0.63,0.08,0.84,1.04,-1.11,1.14,-1.41,0.74,-1.03,0.00
0.619,-0.63,0.08,0.84,0.91,-0.87,1.64,-1.41,0.74,-1.03,0.00
0.635,-0.65,0.08,0.86,0.91,-0.87,1.64,-1.41,0.74,-1.03,0.00
0.637,-0.65,0.08,0.86,0.91,-0.87,1.64,-1.37,0.61,-0.92,0.00
0.638,-0.65,0.08,0.86,0.74,-0.73,1.88,-1.37,0.61,-0.92,0.00
0.639,-0.67,0.07,0.84,0.74,-0.73,1.88,-1.37,0.61,-0.92,0.00
0.64,-0.67,0.07,0.84,0.74,-0.73,1.88,-1.30,0.46,-0.80,0.00
0.64,-0.67,0.07,0.84,0.57,-0.66,1.74,-1.30,0.46,-0.80,0.00
0.655,-0.68,0.06,0.81,0.57,-0.66,1.74,-1.30,0.46,-0.80,0.00
0.657,-0.68,0.06,0.81,0.57,-0.66,1.74,-1.23,0.31,-0.70,0.00
0.658,-0.68,0.06,0.81,0.58,-0.59,1.42,-1.23,0.31,-0.70,0.00
0.659,-0.67,0.07,0.79,0.58,-0.59,1.42,-1.23,0.31,-0.70,0.00
0.66,-0.67,0.07,0.79,0.58,-0.59,1.42,-1.15,0.17,-0.64,0.00
0.663,-0.67,0.07,0.79,0.70,-0.36,1.21,-1.15,0.17,-0.64,0.00
0.681,-0.64,0.09,0.75,0.70,-0.36,1.21,-1.15,0.17,-0.64,0.00
0.683,-0.64,0.09,0.75,0.70,-0.36,1.21,-1.08,0.05,-0.60,0.00
0.684,-0.64,0.09,0.75,1.00,-0.12,0.84,-1.08,0.05,-0.60,0.00
0.685,-0.61,0.11,0.72,1.00,-0.12,0.84,-1.08,0.05,-0.60,0.00
0.686,-0.61,0.11,0.72,1.00,-0.12,0.84,-1.01,-0.03,-0.57,0.00
0.687,-0.61,0.11,0.72,1.28,0.25,0.49,-1.01,-0.03,-0.57,0.00
0.688,-0.58,0.12,0.66,1.28,0.25,0.49,-1.01,-0.03,-0.57,0.00
0.69,-0.58,0.12,0.66,1.28,0.25,0.49,-0.97,-0.04,-0.56,0.00
0.691,-0.58,0.12,0.66,1.61,0.44,-0.11,-0.97,-0.04,-0.56,0.00
0.698,-0.55,0.13,0.61,1.61,0.44,-0.11,-0.97,-0.04,-0.56,0.00
0.7,-0.55,0.13,0.61,1.61,0.44,-0.11,-0.93,0.07,-0.56,0.00
0.701,-0.55,0.13,0.61,1.84,0.62,-0.58,-0.93,0.07,-0.56,0.00
0.71,-0.54,0.13,0.60,1.84,0.62,-0.58,-0.93,0.07,-0.56,0.00
0.712,-0.54,0.13,0.60,1.84,0.62,-0.58,-0.91,0.25,-0.58,0.00
0.712,-0.54,0.13,0.60,2.01,0.73,-0.68,-0.91,0.25,-0.58,0.00
0.718,-0.55,0.12,0.68,2.01,0.73,-0.68,-0.91,0.25,-0.58,0.00
0.719,-0.55,0.12,0.68,2.01,0.73,-0.68,-0.89,0.47,-0.61,0.00
0.72,-0.55,0.12,0.68,1.93,0.71,0.12,-0.89,0.47,-0.61,0.00
0.728,-0.63,0.07,0.77,1.93,0.71,0.12,-0.89,0.47,-0.61,0.00
0.729,-0.63,0.07,0.77,1.93,0.71,0.12,-0.84,0.65,-0.62,0.00
0.73,-0.63,0.07,0.77,1.22,0.36,1.04,-0.84,0.65,-0.62,0.00
0.738,-0.74,0.02,0.81,1.22,0.36,1.04,-0.84,0.65,-0.62,0.00
0.74,-0.74,0.02,0.81,1.22,0.36,1.04,-0.76,0.75,-0.58,0.00
0.741,-0.74,0.02,0.81,0.18,-0.07,1.50,-0.76,0.75,-0.58,0.00
0.757,-0.86,-0.01,0.82,0.18,-0.07,1.50,-0.76,0.75,-0.58,0.00
0.761,-0.86,-0.01,0.82,0.18,-0.07,1.50,-0.68,0.74,-0.48,0.00
0.762,-0.86,-0.01,0.82,-0.95,-0.24,1.66,-0.68,0.74,-0.48,0.00
0.762,-0.93,-0.00,0.82,-0.95,-0.24,1.66,-0.68,0.74,-0.48,0.00
0.763,-0.93,-0.00,0.82,-0.95,-0.24,1.66,-0.63,0.62,-0.35,0.00
0.764,-0.93,-0.00,0.82,-1.58,-0.13,1.72,-0.63,0.62,-0.35,0.00
0.769,-0.96,0.01,0.81,-1.58,-0.13,1.72,-0.63,0.62,-0.35,0.00
0.77,-0.96,0.01,0.81,-1.58,-0.13,1.72,-0.56,0.38,-0.25,0.00
0.771,-0.96,0.01,0.81,-1.88,0.09,1.65,-0.56,0.38,-0.25,0.00
0.779,-0.93,0.04,0.78,-1.88,0.09,1.65,-0.56,0.38,-0.25,0.00
0.78,-0.93,0.04,0.78,-1.88,0.09,1.65,-0.49,0.10,-0.19,0.00
0.781,-0.93,0.04,0.78,-1.61,0.43,1.33,-0.49,0.10,-0.19,0.00
0.789,-0.87,0.08,0.76,-1.61,0.43,1.33,-0.49,0.10,-0.19,0.00
0.79,-0.87,0.08,0.76,-1.61,0.43,1.33,-0.43,-0.12,-0.19,0.00
0.791,-0.87,0.08,0.76,-1.04,0.80,1.14,-0.43,-0.12,-0.19,0.00
0.799,-0.80,0.08,0.77,-1.04,0.80,1.14,-0.43,-0.12,-0.19,0.00
0.801,-0.80,0.08,0.77,-1.04,0.80,1.14,-0.39,-0.24,-0.19,0.00
0.802,-0.80,0.08,0.77,-0.38,0.83,1.24,-0.39,-0.24,-0.19,0.00
0.811,-0.76,0.05,0.80,-0.38,0.83,1.24,-0.39,-0.24,-0.19,0.00
0.812,-0.76,0.05,0.80,-0.38,0.83,1.24,-0.36,-0.25,-0.17,0.00
0.814,-0.76,0.05,0.80,0.03,0.62,1.51,-0.36,-0.25,-0.17,0.00
0.82,-0.76,0.02,0.82,0.03,0.62,1.51,-0.36,-0.25,-0.17,0.00
0.821,-0.76,0.02,0.82,0.03,0.62,1.51,-0.32,-0.17,-0.13,0.00
0.821,-0.76,0.02,0.82,-0.02,0.34,1.71,-0.32,-0.17,-0.13,0.00
0.829,-0.80,0.01,0.87,-0.02,0.34,1.71,-0.32,-0.17,-0.13,0.00
0.831,-0.80,0.01,0.87,-0.02,0.34,1.71,-0.28,-0.05,-0.07,0.00
0.832,-0.80,0.01,0.87,-0.37,0.23,2.14,-0.28,-0.05,-0.07,0.00
0.839,-0.84,-0.01,0.92,-0.37,0.23,2.14,-0.28,-0.05,-0.07,0.00
0.84,-0.84,-0.01,0.92,-0.37,0.23,2.14,-0.24,0.02,0.01,0.00
0.841,-0.84,-0.01,0.92,-0.79,0.07,2.63,-0.24,0.02,0.01,0.00
0.851,-0.85,-0.01,0.94,-0.79,0.07,2.63,-0.24,0.02,0.01,0.00
0.852,-0.85,-0.01,0.94,-0.79,0.07,2.63,-0.18,0.02,0.10,0.00
0.853,-0.85,-0.01,0.94,-0.86,-0.01,2.83,-0.18,0.02,0.10,0.00
0.871,-0.83,-0.03,0.95,-0.86,-0.01,2.83,-0.18,0.02,0.10,0.00
0.872,-0.83,-0.03,0.95,-0.86,-0.01,2.83,-0.11,-0.05,0.18,0.00
0.874,-0.83,-0.03,0.95,-0.68,-0.21,2.96,-0.11,-0.05,0.18,0.00
0.875,-0.83,-0.04,0.95,-0.68,-0.21,2.96,-0.11,-0.05,0.18,0.00
0.877,-0.83,-0.04,0.95,-0.68,-0.21,2.96,-0.05,-0.14,0.24,0.00
0.878,-0.83,-0.04,0.95,-0.67,-0.30,2.91,-0.05,-0.14,0.24,0.00
0.884,-0.83,-0.02,0.93,-0.67,-0.30,2.91,-0.05,-0.14,0.24,0.00
0.886,-0.83,-0.02,0.93,-0.67,-0.30,2.91,-0.00,-0.23,0.27,0.00
0.887,-0.83,-0.02,0.93,-0.74,-0.11,2.65,-0.00,-0.23,0.27,0.00
0.89,-0.84,0.02,0.89,-0.74,-0.11,2.65,-0.00,-0.23,0.27,0.00
0.892,-0.84,0.02,0.89,-0.74,-0.11,2.65,0.05,-0.30,0.31,0.00
0.893,-0.84,0.02,0.89,-0.86,0.23,2.31,0.05,-0.30,0.31,0.00
0.9,-0.84,0.09,0.85,-0.86,0.23,2.31,0.05,-0.30,0.31,0.00
0.902,-0.84,0.09,0.85,-0.86,0.23,2.31,0.11,-0.32,0.36,0.00
0.902,-0.84,0.09,0.85,-0.88,0.79,1.88,0.11,-0.32,0.36,0.00
0.912,-0.83,0.12,0.79,-0.88,0.79,1.88,0.11,-0.32,0.36,0.00
0.913,-0.83,0.12,0.79,-0.88,0.79,1.88,0.16,-0.25,0.41,0.00
0.914,-0.83,0.12,0.79,-0.76,1.13,1.28,0.16,-0.25,0.41,0.00
0.92,-0.82,0.11,0.76,-0.76,1.13,1.28,0.16,-0.25,0.41,0.00
0.921,-0.82,0.11,0.76,-0.76,1.13,1.28,0.17,-0.11,0.43,0.00
0.922,-0.82,0.11,0.76,-0.71,0.96,0.89,0.17,-0.11,0.43,0.00
0.93,-0.81,0.06,0.70,-0.71,0.96,0.89,0.17,-0.11,0.43,0.00
0.932,-0.81,0.06,0.70,-0.71,0.96,0.89,0.11,0.04,0.42,0.00
0.933,-0.81,0.06,0.70,-0.56,0.41,0.35,0.11,0.04,0.42,0.00
0.94,-0.80,-0.01,0.64,-0.56,0.41,0.35,0.11,0.04,0.42,0.00
0.941,-0.80,-0.01,0.64,-0.56,0.41,0.35,0.01,0.13,0.36,0.00
0.942,-0.80,-0.01,0.64,-0.52,-0.34,-0.25,0.01,0.13,0.36,0.00
0.953,-0.79,-0.09,0.56,-0.52,-0.34,-0.25,0.01,0.13,0.36,0.00
0.954,-0.79,-0.09,0.56,-0.52,-0.34,-0.25,-0.08,0.19,0.25,0.00
0.955,-0.79,-0.09,0.56,-0.42,-1.12,-1.02,-0.08,0.19,0.25,0.00
0.975,-0.78,-0.14,0.44,-0.42,-1.12,-1.02,-0.08,0.19,0.25,0.00
0.977,-0.78,-0.14,0.44,-0.42,-1.12,-1.02,-0.13,0.26,0.09,0.00
0.978,-0.78,-0.14,0.44,-0.30,-1.62,-2.17,-0.13,0.26,0.09,0.00
0.98,-0.78,-0.17,0.33,-0.30,-1.62,-2.17,-0.13,0.26,0.09,0.00
0.981,-0.78,-0.17,0.33,-0.30,-1.62,-2.17,-0.16,0.43,-0.09,0.00
0.982,-0.78,-0.17,0.33,-0.30,-1.93,-3.19,-0.16,0.43,-0.09,0.00
0.983,-0.79,-0.16,0.28,-0.30,-1.93,-3.19,-0.16,0.43,-0.09,0.00
0.985,-0.79,-0.16,0.28,-0.30,-1.93,-3.19,-0.20,0.70,-0.28,0.00
0.986,-0.79,-0.16,0.28,-0.27,-1.77,-3.70,-0.20,0.70,-0.28,0.00
0.994,-0.77,-0.14,0.26,-0.27,-1.77,-3.70,-0.20,0.70,-0.28,0.00
0.997,-0.77,-0.14,0.26,-0.27,-1.77,-3.70,-0.25,1.01,-0.43,0.00
0.998,-0.77,-0.14,0.26,-0.08,-1.50,-3.80,-0.25,1.01,-0.43,0.00
1.002,-0.76,-0.11,0.25,-0.08,-1.50,-3.80,-0.25,1.01,-0.43,0.00
1.003,-0.76,-0.11,0.25,-0.08,-1.50,-3.80,-0.28,1.26,-0.51,0.00
1.004,-0.76,-0.11,0.25,0.16,-1.22,-3.75,-0.28,1.26,-0.51,0.00
1.012,-0.74,-0.11,0.24,0.16,-1.22,-3.75,-0.28,1.26,-0.51,0.00
1.014,-0.74,-0.11,0.24,0.16,-1.22,-3.75,-0.34,1.42,-0.53,0.00
1.015,-0.74,-0.11,0.24,0.44,-1.13,-3.78,-0.34,1.42,-0.53,0.00
1.021,-0.72,-0.16,0.20,0.44,-1.13,-3.78,-0.34,1.42,-0.53,0.00
1.022,-0.72,-0.16,0.20,0.44,-1.13,-3.78,-0.45,1.50,-0.53,0.00
1.023,-0.72,-0.16,0.20,0.73,-1.51,-4.03,-0.45,1.50,-0.53,0.00
1.031,-0.70,-0.25,0.18,0.73,-1.51,-4.03,-0.45,1.50,-0.53,0.00
1.033,-0.70,-0.25,0.18,0.73,-1.51,-4.03,-0.59,1.62,-0.54,0.00
1.033,-0.70,-0.25,0.18,1.02,-2.33,-4.08,-0.59,1.62,-0.54,0.00
1.043,-0.68,-0.36,0.17,1.02,-2.33,-4.08,-0.59,1.62,-0.54,0.00
1.046,-0.68,-0.36,0.17,1.02,-2.33,-4.08,-0.76,1.79,-0.61,0.00
1.047,-0.68,-0.36,0.17,1.31,-3.32,-4.06,-0.76,1.79,-0.61,0.00
1.051,-0.67,-0.45,0.17,1.31,-3.32,-4.06,-0.76,1.79,-0.61,0.00
1.052,-0.67,-0.45,0.17,1.31,-3.32,-4.06,-0.91,2.00,-0.74,0.00
1.053,-0.67,-0.45,0.17,1.52,-4.13,-3.92,-0.91,2.00,-0.74,0.00
1.062,-0.68,-0.52,0.19,1.52,-4.13,-3.92,-0.91,2.00,-0.74,0.00
1.064,-0.68,-0.52,0.19,1.52,-4.13,-3.92,-1.05,2.16,-0.90,0.00
1.065,-0.68,-0.52,0.19,1.53,-4.63,-3.55,-1.05,2.16,-0.90,0.00
1.072,-0.68,-0.56,0.19,1.53,-4.63,-3.55,-1.05,2.16,-0.90,0.00
1.073,-0.68,-0.56,0.19,1.53,-4.63,-3.55,-1.15,2.25,-1.05,0.00
1.074,-0.68,-0.56,0.19,1.62,-4.86,-3.33,-1.15,2.25,-1.05,0.00
1.086,-0.66,-0.57,0.20,1.62,-4.86,-3.33,-1.15,2.25,-1.05,0.00
1.087,-0.66,-0.57,0.20,1.62,-4.86,-3.33,-1.21,2.22,-1.17,0.00
1.088,-0.66,-0.57,0.20,1.89,-4.85,-3.09,-1.21,2.22,-1.17,0.00
1.107,-0.63,-0.58,0.19,1.89,-4.85,-3.09,-1.21,2.22,-1.17,0.00
1.109,-0.63,-0.58,0.19,1.89,-4.85,-3.09,-1.24,2.10,-1.28,0.00
1.11,-0.63,-0.58,0.19,2.33,-4.72,-2.98,-1.24,2.10,-1.28,0.00
1.111,-0.57,-0.57,0.15,2.33,-4.72,-2.98,-1.24,2.10,-1.28,0.00
1.112,-0.57,-0.57,0.15,2.33,-4.72,-2.98,-1.24,1.92,-1.42,0.00
1.113,-0.57,-0.57,0.15,3.03,-4.49,-3.18,-1.24,1.92,-1.42,0.00
1.114,-0.51,-0.57,0.10,3.03,-4.49,-3.18,-1.24,1.92,-1.42,0.00
1.115,-0.51,-0.57,0.10,3.03,-4.49,-3.18,-1.26,1.75,-1.60,0.00
1.116,-0.51,-0.57,0.10,3.59,-4.31,-3.49,-1.26,1.75,-1.60,0.00
1.123,-0.46,-0.58,0.06,3.59,-4.31,-3.49,-1.26,1.75,-1.60,0.00
1.125,-0.46,-0.58,0.06,3.59,-4.31,-3.49,-1.30,1.64,-1.81,0.00
1.125,-0.46,-0.58,0.06,4.21,-4.12,-3.68,-1.30,1.64,-1.81,0.00
1.133,-0.41,-0.59,0.04,4.21,-4.12,-3.68,-1.30,1.64,-1.81,0.00
1.134,-0.41,-0.59,0.04,4.21,-4.12,-3.68,-1.38,1.63,-2.05,0.00
1.135,-0.41,-0.59,0.04,4.67,-4.05,-3.72,-1.38,1.63,-2.05,0.00
1.144,-0.38,-0.62,0.02,4.67,-4.05,-3.72,-1.38,1.63,-2.05,0.00
1.146,-0.38,-0.62,0.02,4.67,-4.05,-3.72,-1.47,1.71,-2.28,0.00
1.147,-0.38,-0.62,0.02,5.00,-4.07,-3.74,-1.47,1.71,-2.28,0.00
1.153,-0.37,-0.64,0.03,5.00,-4.07,-3.74,-1.47,1.71,-2.28,0.00
1.154,-0.37,-0.64,0.03,5.00,-4.07,-3.74,-1.56,1.84,-2.48,0.00
1.154,-0.37,-0.64,0.03,5.17,-3.98,-3.48,-1.56,1.84,-2.48,0.00
1.162,-0.36,-0.65,0.04,5.17,-3.98,-3.48,-1.56,1.84,-2.48,0.00
1.164,-0.36,-0.65,0.04,5.17,-3.98,-3.48,-1.64,2.02,-2.63,0.00
1.165,-0.36,-0.65,0.04,5.22,-3.82,-3.15,-1.64,2.02,-2.63,0.00
1.173,-0.35,-0.66,0.07,5.22,-3.82,-3.15,-1.64,2.02,-2.63,0.00
1.174,-0.35,-0.66,0.07,5.22,-3.82,-3.15,-1.71,2.21,-2.75,0.00
1.175,-0.35,-0.66,0.07,5.30,-3.61,-2.60,-1.71,2.21,-2.75,0.00
1.186,-0.36,-0.68,0.13,5.30,-3.61,-2.60,-1.71,2.21,-2.75,0.00
1.187,-0.36,-0.68,0.13,5.30,-3.61,-2.60,-1.75,2.38,-2.84,0.00
1.188,-0.36,-0.68,0.13,5.28,-3.45,-1.77,-1.75,2.38,-2.84,0.00
1.205,-0.36,-0.70,0.18,5.28,-3.45,-1.77,-1.75,2.38,-2.84,0.00
1.206,-0.36,-0.70,0.18,5.28,-3.45,-1.77,-1.76,2.49,-2.92,0.00
1.207,-0.36,-0.70,0.18,5.23,-3.38,-1.01,-1.76,2.49,-2.92,0.00
1.208,-0.39,-0.72,0.24,5.23,-3.38,-1.01,-1.76,2.49,-2.92,0.00
1.209,-0.39,-0.72,0.24,5.23,-3.38,-1.01,-1.73,2.54,-3.02,0.00
1.21,-0.39,-0.72,0.24,4.86,-3.28,-0.10,-1.73,2.54,-3.02,0.00
1.215,-0.43,-0.77,0.29,4.86,-3.28,-0.10,-1.73,2.54,-3.02,0.00
1.216,-0.43,-0.77,0.29,4.86,-3.28,-0.10,-1.66,2.52,-3.12,0.00
1.217,-0.43,-0.77,0.29,4.42,-3.39,0.65,-1.66,2.52,-3.12,0.00
1.223,-0.47,-0.81,0.31,4.42,-3.39,0.65,-1.66,2.52,-3.12,0.00
1.224,-0.47,-0.81,0.31,4.42,-3.39,0.65,-1.57,2.38,-3.19,0.00
1.224,-0.47,-0.81,0.31,3.89,-3.47,1.10,-1.57,2.38,-3.19,0.00
1.234,-0.50,-0.83,0.29,3.89,-3.47,1.10,-1.57,2.38,-3.19,0.00
1.235,-0.50,-0.83,0.29,3.89,-3.47,1.10,-1.47,2.13,-3.23,0.00
1.236,-0.50,-0.83,0.29,3.54,-3.35,1.22,-1.47,2.13,-3.23,0.00
1.244,-0.50,-0.84,0.28,3.54,-3.35,1.22,-1.47,2.13,-3.23,0.00
1.245,-0.50,-0.84,0.28,3.54,-3.35,1.22,-1.41,1.83,-3.27,0.00
1.246,-0.50,-0.84,0.28,3.39,-3.20,1.30,-1.41,1.83,-3.27,0.00
1.253,-0.48,-0.84,0.25,3.39,-3.20,1.30,-1.41,1.83,-3.27,0.00
1.254,-0.48,-0.84,0.25,3.39,-3.20,1.30,-1.36,1.52,-3.32,0.00
1.255,-0.48,-0.84,0.25,3.47,-2.93,1.20,-1.36,1.52,-3.32,0.00
1.264,-0.43,-0.84,0.23,3.47,-2.93,1.20,-1.36,1.52,-3.32,0.00
1.264,-0.43,-0.84,0.23,3.47,-2.93,1.20,-1.34,1.24,-3.39,0.00
1.265,-0.43,-0.84,0.23,3.70,-2.60,1.19,-1.34,1.24,-3.39,0.00
1.274,-0.40,-0.85,0.22,3.70,-2.60,1.19,-1.34,1.24,-3.39,0.00
1.276,-0.40,-0.85,0.22,3.70,-2.60,1.19,-1.33,1.01,-3.47,0.00
1.277,-0.40,-0.85,0.22,3.89,-2.39,1.27,-1.33,1.01,-3.47,0.00
1.287,-0.39,-0.86,0.21,3.89,-2.39,1.27,-1.33,1.01,-3.47,0.00
1.289,-0.39,-0.86,0.21,3.89,-2.39,1.27,-1.36,0.80,-3.55,0.00
1.29,-0.39,-0.86,0.21,3.76,-2.27,1.35,-1.36,0.80,-3.55,0.00
1.311,-0.40,-0.90,0.22,3.76,-2.27,1.35,-1.36,0.80,-3.55,0.00
1.313,-0.40,-0.90,0.22,3.76,-2.27,1.35,-1.38,0.61,-3.60,0.00
1.314,-0.40,-0.90,0.22,3.46,-2.38,1.49,-1.38,0.61,-3.60,0.00
1.315,-0.40,-0.96,0.22,3.46,-2.38,1.49,-1.38,0.61,-3.60,0.00
1.316,-0.40,-0.96,0.22,3.46,-2.38,1.49,-1.40,0.45,-3.63,0.00
1.317,-0.40,-0.96,0.22,3.16,-2.64,1.64,-1.40,0.45,-3.63,0.00
1.318,-0.42,-1.01,0.22,3.16,-2.64,1.64,-1.40,0.45,-3.63,0.00
1.319,-0.42,-1.01,0.22,3.16,-2.64,1.64,-1.40,0.38,-3.63,0.00
1.32,-0.42,-1.01,0.22,2.71,-2.91,1.82,-1.40,0.38,-3.63,0.00
1.325,-0.46,-1.06,0.25,2.71,-2.91,1.82,-1.40,0.38,-3.63,0.00
1.326,-0.46,-1.06,0.25,2.71,-2.91,1.82,-1.37,0.38,-3.62,0.00
1.327,-0.46,-1.06,0.25,2.12,-3.12,2.17,-1.37,0.38,-3.62,0.00
1.335,-0.50,-1.10,0.27,2.12,-3.12,2.17,-1.37,0.38,-3.62,0.00
1.338,-0.50,-1.10,0.27,2.12,-3.12,2.17,-1.30,0.42,-3.59,0.00
1.339,-0.50,-1.10,0.27,1.40,-3.26,2.54,-1.30,0.42,-3.59,0.00
1.345,-0.55,-1.12,0.27,1.40,-3.26,2.54,-1.30,0.42,-3.59,0.00
1.347,-0.55,-1.12,0.27,1.40,-3.26,2.54,-1.19,0.42,-3.53,0.00
1.348,-0.55,-1.12,0.27,0.69,-3.27,2.68,-1.19,0.42,-3.53,0.00
1.355,-0.57,-1.15,0.27,0.69,-3.27,2.68,-1.19,0.42,-3.53,0.00
1.356,-0.57,-1.15,0.27,0.69,-3.27,2.68,-1.08,0.33,-3.47,0.00
1.357,-0.57,-1.15,0.27,0.17,-3.36,2.72,-1.08,0.33,-3.47,0.00
1.365,-0.60,-1.18,0.19,0.17,-3.36,2.72,-1.08,0.33,-3.47,0.00
1.366,-0.60,-1.18,0.19,0.17,-3.36,2.72,-0.99,0.13,-3.45,0.00
1.367,-0.60,-1.18,0.19,-0.39,-3.48,2.01,-0.99,0.13,-3.45,0.00
1.375,-0.63,-1.21,0.09,-0.39,-3.48,2.01,-0.99,0.13,-3.45,0.00
1.376,-0.63,-1.21,0.09,-0.39,-3.48,2.01,-0.93,-0.10,-3.48,0.00
1.377,-0.63,-1.21,0.09,-0.98,-3.55,1.18,-0.93,-0.10,-3.48,0.00
1.386,-0.66,-1.22,0.07,-0.98,-3.55,1.18,-0.93,-0.10,-3.48,0.00
1.387,-0.66,-1.22,0.07,-0.98,-3.55,1.18,-0.93,-0.25,-3.55,0.00
1.388,-0.66,-1.22,0.07,-1.55,-3.51,0.98,-0.93,-0.25,-3.55,0.00
1.402,-0.70,-1.24,0.07,-1.55,-3.51,0.98,-0.93,-0.25,-3.55,0.00
1.403,-0.70,-1.24,0.07,-1.55,-3.51,0.98,-0.94,-0.33,-3.63,0.00
1.404,-0.70,-1.24,0.07,-2.30,-3.51,1.10,-0.94,-0.33,-3.63,0.00
1.405,-0.77,-1.25,0.09,-2.30,-3.51,1.10,-0.94,-0.33,-3.63,0.00
1.407,-0.77,-1.25,0.09,-2.30,-3.51,1.10,-0.89,-0.40,-3.65,0.00
1.407,-0.77,-1.25,0.09,-3.27,-3.43,1.30,-0.89,-0.40,-3.65,0.00
1.424,-0.83,-1.27,0.08,-3.27,-3.43,1.30,-0.89,-0.40,-3.65,0.00
1.428,-0.83,-1.27,0.08,-3.27,-3.43,1.30,-0.81,-0.44,-3.57,0.00
1.43,-0.83,-1.27,0.08,-4.19,-3.49,1.24,-0.81,-0.44,-3.57,0.00
1.431,-0.86,-1.30,0.05,-4.19,-3.49,1.24,-0.81,-0.44,-3.57,0.00
1.432,-0.86,-1.30,0.05,-4.19,-3.49,1.24,-0.70,-0.42,-3.38,0.00
1.433,-0.86,-1.30,0.05,-4.79,-3.62,1.02,-0.70,-0.42,-3.38,0.00
1.435,-0.87,-1.32,0.04,-4.79,-3.62,1.02,-0.70,-0.42,-3.38,0.00
1.437,-0.87,-1.32,0.04,-4.79,-3.62,1.02,-0.62,-0.36,-3.16,0.00
1.438,-0.87,-1.32,0.04,-5.13,-3.74,0.98,-0.62,-0.36,-3.16,0.00
1.447,-0.87,-1.34,0.04,-5.13,-3.74,0.98,-0.62,-0.36,-3.16,0.00
1.448,-0.87,-1.34,0.04,-5.13,-3.74,0.98,-0.57,-0.30,-2.94,0.00
1.449,-0.87,-1.34,0.04,-5.40,-3.81,1.04,-0.57,-0.30,-2.94,0.00
1.456,-0.85,-1.34,0.03,-5.40,-3.81,1.04,-0.57,-0.30,-2.94,0.00
1.458,-0.85,-1.34,0.03,-5.40,-3.81,1.04,-0.55,-0.30,-2.77,0.00
1.458,-0.85,-1.34,0.03,-5.49,-3.72,0.98,-0.55,-0.30,-2.77,0.00
1.466,-0.83,-1.34,0.03,-5.49,-3.72,0.98,-0.55,-0.30,-2.77,0.00
1.468,-0.83,-1.34,0.03,-5.49,-3.72,0.98,-0.56,-0.38,-2.64,0.00
1.469,-0.83,-1.34,0.03,-5.59,-3.70,1.06,-0.56,-0.38,-2.64,0.00
1.478,-0.87,-1.33,0.02,-5.59,-3.70,1.06,-0.56,-0.38,-2.64,0.00
1.48,-0.87,-1.33,0.02,-5.59,-3.70,1.06,-0.56,-0.59,-2.55,0.00
1.481,-0.87,-1.33,0.02,-6.19,-3.55,0.98,-0.56,-0.59,-2.55,0.00
1.485,-0.89,-1.33,-0.03,-6.19,-3.55,0.98,-0.56,-0.59,-2.55,0.00
1.487,-0.89,-1.33,-0.03,-6.19,-3.55,0.98,-0.53,-0.88,-2.43,0.00
1.487,-0.89,-1.33,-0.03,-6.65,-3.51,0.51,-0.53,-0.88,-2.43,0.00
1.497,-0.91,-1.32,-0.06,-6.65,-3.51,0.51,-0.53,-0.88,-2.43,0.00
1.498,-0.91,-1.32,-0.06,-6.65,-3.51,0.51,-0.49,-1.13,-2.27,0.00
1.499,-0.91,-1.32,-0.06,-7.00,-3.35,0.24,-0.49,-1.13,-2.27,0.00
1.506,-0.91,-1.30,-0.07,-7.00,-3.35,0.24,-0.49,-1.13,-2.27,0.00
1.508,-0.91,-1.30,-0.07,-7.00,-3.35,0.24,-0.47,-1.29,-2.11,0.00
1.508,-0.91,-1.30,-0.07,-7.20,-3.11,0.15,-0.47,-1.29,-2.11,0.00
1.52,-0.88,-1.26,-0.06,-7.20,-3.11,0.15,-0.47,-1.29,-2.11,0.00
1.521,-0.88,-1.26,-0.06,-7.20,-3.11,0.15,-0.46,-1.42,-1.96,0.00
1.522,-0.88,-1.26,-0.06,-7.12,-2.71,0.26,-0.46,-1.42,-1.96,0.00
1.542,-0.83,-1.25,-0.04,-7.12,-2.71,0.26,-0.46,-1.42,-1.96,0.00
1.544,-0.83,-1.25,-0.04,-7.12,-2.71,0.26,-0.46,-1.55,-1.81,0.00
1.545,-0.83,-1.25,-0.04,-6.78,-2.55,0.47,-0.46,-1.55,-1.81,0.00
1.546,-0.76,-1.26,-0.06,-6.78,-2.55,0.47,-0.46,-1.55,-1.81,0.00
1.548,-0.76,-1.26,-0.06,-6.78,-2.55,0.47,-0.44,-1.66,-1.68,0.00
1.548,-0.76,-1.26,-0.06,-6.21,-2.66,0.32,-0.44,-1.66,-1.68,0.00
1.549,-0.69,-1.32,-0.12,-6.21,-2.66,0.32,-0.44,-1.66,-1.68,0.00
1.55,-0.69,-1.32,-0.12,-6.21,-2.66,0.32,-0.44,-1.73,-1.61,0.00
1.551,-0.69,-1.32,-0.12,-5.68,-3.20,-0.25,-0.44,-1.73,-1.61,0.00
1.557,-0.65,-1.38,-0.17,-5.68,-3.20,-0.25,-0.44,-1.73,-1.61,0.00
1.558,-0.65,-1.38,-0.17,-5.68,-3.20,-0.25,-0.48,-1.72,-1.59,0.00
1.559,-0.65,-1.38,-0.17,-5.42,-3.83,-0.71,-0.48,-1.72,-1.59,0.00
1.567,-0.66,-1.37,-0.18,-5.42,-3.83,-0.71,-0.48,-1.72,-1.59,0.00
1.568,-0.66,-1.37,-0.18,-5.42,-3.83,-0.71,-0.57,-1.59,-1.59,0.00
1.569,-0.66,-1.37,-0.18,-5.64,-3.69,-0.75,-0.57,-1.59,-1.59,0.00
1.578,-0.67,-1.29,-0.14,-5.64,-3.69,-0.75,-0.57,-1.59,-1.59,0.00
1.58,-0.67,-1.29,-0.14,-5.64,-3.69,-0.75,-0.65,-1.37,-1.50,0.00
1.581,-0.67,-1.29,-0.14,-5.95,-2.89,-0.27,-0.65,-1.37,-1.50,0.00
1.587,-0.65,-1.20,-0.10,-5.95,-2.89,-0.27,-0.65,-1.37,-1.50,0.00
1.588,-0.65,-1.20,-0.10,-5.95,-2.89,-0.27,-0.67,-1.14,-1.30,0.00
1.589,-0.65,-1.20,-0.10,-5.87,-2.01,0.13,-0.67,-1.14,-1.30,0.00
1.597,-0.63,-1.12,-0.08,-5.87,-2.01,0.13,-0.67,-1.14,-1.30,0.00
1.598,-0.63,-1.12,-0.08,-5.87,-2.01,0.13,-0.61,-0.95,-1.05,0.00
1.599,-0.63,-1.12,-0.08,-5.77,-1.25,0.41,-0.61,-0.95,-1.05,0.00
1.607,-0.61,-1.06,-0.07,-5.77,-1.25,0.41,-0.61,-0.95,-1.05,0.00
1.608,-0.61,-1.06,-0.07,-5.77,-1.25,0.41,-0.48,-0.79,-0.80,0.00
1.609,-0.61,-1.06,-0.07,-5.64,-0.65,0.55,-0.48,-0.79,-0.80,0.00
1.621,-0.60,-1.01,-0.07,-5.64,-0.65,0.55,-0.48,-0.79,-0.80,0.00
1.622,-0.60,-1.01,-0.07,-5.64,-0.65,0.55,-0.31,-0.65,-0.57,0.00
1.623,-0.60,-1.01,-0.07,-5.50,-0.13,0.57,-0.31,-0.65,-0.57,0.00
1.643,-0.56,-0.97,-0.08,-5.50,-0.13,0.57,-0.31,-0.65,-0.57,0.00
1.645,-0.56,-0.97,-0.08,-5.50,-0.13,0.57,-0.16,-0.51,-0.33,0.00
1.646,-0.56,-0.97,-0.08,-5.18,0.24,0.48,-0.16,-0.51,-0.33,0.00
1.648,-0.53,-0.95,-0.10,-5.18,0.24,0.48,-0.16,-0.51,-0.33,0.00
1.649,-0.53,-0.95,-0.10,-5.18,0.24,0.48,-0.02,-0.36,-0.10,0.00
1.65,-0.53,-0.95,-0.10,-4.90,0.39,0.23,-0.02,-0.36,-0.10,0.00
1.651,-0.50,-0.97,-0.11,-4.90,0.39,0.23,-0.02,-0.36,-0.10,0.00
1.652,-0.50,-0.97,-0.11,-4.90,0.39,0.23,0.08,-0.21,0.10,0.00
1.653,-0.50,-0.97,-0.11,-4.58,0.26,0.11,0.08,-0.21,0.10,0.00
1.657,-0.50,-0.99,-0.09,-4.58,0.26,0.11,0.08,-0.21,0.10,0.00
1.658,-0.50,-0.99,-0.09,-4.58,0.26,0.11,0.14,-0.05,0.29,0.00
1.659,-0.50,-0.99,-0.09,-4.54,0.04,0.34,0.14,-0.05,0.29,0.00
1.668,-0.52,-1.00,-0.05,-4.54,0.04,0.34,0.14,-0.05,0.29,0.00
1.669,-0.52,-1.00,-0.05,-4.54,0.04,0.34,0.16,0.09,0.46,0.00
1.672,-0.52,-1.00,-0.05,-4.62,-0.07,0.66,0.16,0.09,0.46,0.00
1.679,-0.54,-1.01,-0.01,-4.62,-0.07,0.66,0.16,0.09,0.46,0.00
1.681,-0.54,-1.01,-0.01,-4.62,-0.07,0.66,0.18,0.23,0.65,0.00
1.682,-0.54,-1.01,-0.01,-4.75,-0.21,1.07,0.18,0.23,0.65,0.00
1.687,-0.53,-1.01,0.04,-4.75,-0.21,1.07,0.18,0.23,0.65,0.00
1.688,-0.53,-1.01,0.04,-4.75,-0.21,1.07,0.20,0.33,0.86,0.00
1.689,-0.53,-1.01,0.04,-4.62,-0.15,1.53,0.20,0.33,0.86,0.00
1.697,-0.52,-1.00,0.08,-4.62,-0.15,1.53,0.20,0.33,0.86,0.00
1.698,-0.52,-1.00,0.08,-4.62,-0.15,1.53,0.23,0.38,1.06,0.00
1.699,-0.52,-1.00,0.08,-4.38,-0.07,1.88,0.23,0.38,1.06,0.00
1.707,-0.48,-0.99,0.11,-4.38,-0.07,1.88,0.23,0.38,1.06,0.00
1.708,-0.48,-0.99,0.11,-4.38,-0.07,1.88,0.26,0.36,1.22,0.00
1.709,-0.48,-0.99,0.11,-3.92,0.04,2.12,0.26,0.36,1.22,0.00
1.721,-0.44,-0.99,0.13,-3.92,0.04,2.12,0.26,0.36,1.22,0.00
1.722,-0.44,-0.99,0.13,-3.92,0.04,2.12,0.30,0.27,1.37,0.00
1.723,-0.44,-0.99,0.13,-3.35,0.03,2.31,0.30,0.27,1.37,0.00
1.74,-0.37,-1.00,0.14,-3.35,0.03,2.31,0.30,0.27,1.37,0.00
1.742,-0.37,-1.00,0.14,-3.35,0.03,2.31,0.32,0.15,1.49,0.00
1.743,-0.37,-1.00,0.14,-2.57,-0.07,2.42,0.32,0.15,1.49,0.00
1.744,-0.31,-1.02,0.12,-2.57,-0.07,2.42,0.32,0.15,1.49,0.00
1.745,-0.31,-1.02,0.12,-2.57,-0.07,2.42,0.35,0.04,1.59,0.00
1.746,-0.31,-1.02,0.12,-1.78,-0.36,2.18,0.35,0.04,1.59,0.00
1.755,-0.28,-1.05,0.11,-1.78,-0.36,2.18,0.35,0.04,1.59,0.00
1.757,-0.28,-1.05,0.11,-1.78,-0.36,2.18,0.37,-0.03,1.64,0.00
1.759,-0.28,-1.05,0.11,-1.31,-0.62,1.99,0.37,-0.03,1.64,0.00
1.76,-0.28,-1.07,0.10,-1.31,-0.62,1.99,0.37,-0.03,1.64,0.00
1.761,-0.28,-1.07,0.10,-1.31,-0.62,1.99,0.38,-0.03,1.69,0.00
1.762,-0.28,-1.07,0.10,-1.13,-0.80,1.86,0.38,-0.03,1.69,0.00
1.769,-0.29,-1.06,0.09,-1.13,-0.80,1.86,0.38,-0.03,1.69,0.00
1.771,-0.29,-1.06,0.09,-1.13,-0.80,1.86,0.41,0.05,1.74,0.00
1.772,-0.29,-1.06,0.09,-1.11,-0.82,1.72,0.41,0.05,1.74,0.00
1.78,-0.31,-1.05,0.08,-1.11,-0.82,1.72,0.41,0.05,1.74,0.00
1.781,-0.31,-1.05,0.08,-1.11,-0.82,1.72,0.44,0.19,1.83,0.00
1.782,-0.31,-1.05,0.08,-1.14,-0.69,1.61,0.44,0.19,1.83,0.00
1.788,-0.31,-1.04,0.10,-1.14,-0.69,1.61,0.44,0.19,1.83,0.00
1.789,-0.31,-1.04,0.10,-1.14,-0.69,1.61,0.46,0.34,1.93,0.00
1.79,-0.31,-1.04,0.10,-0.95,-0.67,1.74,0.46,0.34,1.93,0.00
1.8,-0.30,-1.04,0.10,-0.95,-0.67,1.74,0.46,0.34,1.93,0.00
1.801,-0.30,-1.04,0.10,-0.95,-0.67,1.74,0.47,0.47,2.02,0.00
1.802,-0.30,-1.04,0.10,-0.66,-0.73,1.73,0.47,0.47,2.02,0.00
1.809,-0.29,-1.05,0.13,-0.66,-0.73,1.73,0.47,0.47,2.02,0.00
1.81,-0.29,-1.05,0.13,-0.66,-0.73,1.73,0.50,0.53,2.08,0.00
1.811,-0.29,-1.05,0.13,-0.31,-0.81,1.97,0.50,0.53,2.08,0.00
1.821,-0.28,-1.03,0.14,-0.31,-0.81,1.97,0.50,0.53,2.08,0.00
1.822,-0.28,-1.03,0.14,-0.31,-0.81,1.97,0.53,0.51,2.10,0.00
1.823,-0.28,-1.03,0.14,-0.01,-0.69,2.04,0.53,0.51,2.10,0.00
1.842,-0.27,-1.00,0.14,-0.01,-0.69,2.04,0.53,0.51,2.10,0.00
1.844,-0.27,-1.00,0.14,-0.01,-0.69,2.04,0.59,0.42,2.10,0.00
1.845,-0.27,-1.00,0.14,0.28,-0.48,2.00,0.59,0.42,2.10,0.00
1.846,-0.26,-0.97,0.13,0.28,-0.48,2.00,0.59,0.42,2.10,0.00
1.847,-0.26,-0.97,0.13,0.28,-0.48,2.00,0.66,0.28,2.09,0.00
1.848,-0.26,-0.97,0.13,0.57,-0.23,1.83,0.66,0.28,2.09,0.00
1.849,-0.25,-0.93,0.11,0.57,-0.23,1.83,0.66,0.28,2.09,0.00
1.85,-0.25,-0.93,0.11,0.57,-0.23,1.83,0.75,0.13,2.08,0.00
1.85,-0.25,-0.93,0.11,0.82,0.09,1.58,0.75,0.13,2.08,0.00
1.859,-0.25,-0.90,0.07,0.82,0.09,1.58,0.75,0.13,2.08,0.00
1.86,-0.25,-0.90,0.07,0.82,0.09,1.58,0.83,-0.00,2.07,0.00
1.861,-0.25,-0.90,0.07,1.05,0.31,1.18,0.83,-0.00,2.07,0.00
1.869,-0.24,-0.88,0.04,1.05,0.31,1.18,0.83,-0.00,2.07,0.00
1.87,-0.24,-0.88,0.04,1.05,0.31,1.18,0.90,-0.12,2.08,0.00
1.87,-0.24,-0.88,0.04,1.30,0.48,0.79,0.90,-0.12,2.08,0.00
1.879,-0.24,-0.87,0.03,1.30,0.48,0.79,0.90,-0.12,2.08,0.00
1.88,-0.24,-0.87,0.03,1.30,0.48,0.79,0.95,-0.20,2.09,0.00
1.881,-0.24,-0.87,0.03,1.49,0.51,0.53,0.95,-0.20,2.09,0.00
1.889,-0.23,-0.86,0.02,1.49,0.51,0.53,0.95,-0.20,2.09,0.00
1.89,-0.23,-0.86,0.02,1.49,0.51,0.53,0.99,-0.24,2.10,0.00
1.891,-0.23,-0.86,0.02,1.76,0.52,0.39,0.99,-0.24,2.10,0.00
1.899,-0.23,-0.87,0.02,1.76,0.52,0.39,0.99,-0.24,2.10,0.00
1.9,-0.23,-0.87,0.02,1.76,0.52,0.39,1.01,-0.24,2.12,0.00
1.901,-0.23,-0.87,0.02,1.99,0.36,0.23,1.01,-0.24,2.12,0.00
1.909,-0.20,-0.86,0.02,1.99,0.36,0.23,1.01,-0.24,2.12,0.00
1.91,-0.20,-0.86,0.02,1.99,0.36,0.23,1.03,-0.23,2.13,0.00
1.911,-0.20,-0.86,0.02,2.44,0.37,0.17,1.03,-0.23,2.13,0.00
1.919,-0.19,-0.85,0.03,2.44,0.37,0.17,1.03,-0.23,2.13,0.00
1.92,-0.19,-0.85,0.03,2.44,0.37,0.17,1.05,-0.22,2.12,0.00
1.921,-0.19,-0.85,0.03,2.73,0.34,0.20,1.05,-0.22,2.12,0.00
1.936,-0.17,-0.84,0.02,2.73,0.34,0.20,1.05,-0.22,2.12,0.00
1.937,-0.17,-0.84,0.02,2.73,0.34,0.20,1.07,-0.23,2.09,0.00
1.938,-0.17,-0.84,0.02,3.14,0.36,-0.04,1.07,-0.23,2.09,0.00
1.94,-0.16,-0.82,0.01,3.14,0.36,-0.04,1.07,-0.23,2.09,0.00
1.942,-0.16,-0.82,0.01,3.14,0.36,-0.04,1.08,-0.23,2.04,0.00
1.943,-0.16,-0.82,0.01,3.41,0.41,-0.21,1.08,-0.23,2.04,0.00
1.957,-0.14,-0.81,0.00,3.41,0.41,-0.21,1.08,-0.23,2.04,0.00
1.958,-0.14,-0.81,0.00,3.41,0.41,-0.21,1.07,-0.20,1.99,0.00
1.96,-0.14,-0.81,0.00,3.72,0.40,-0.42,1.07,-0.20,1.99,0.00
1.961,-0.13,-0.79,-0.01,3.72,0.40,-0.42,1.07,-0.20,1.99,0.00
1.962,-0.13,-0.79,-0.01,3.72,0.40,-0.42,1.05,-0.14,1.93,0.00
1.964,-0.13,-0.79,-0.01,3.99,0.47,-0.65,1.05,-0.14,1.93,0.00
1.97,-0.13,-0.79,-0.02,3.99,0.47,-0.65,1.05,-0.14,1.93,0.00
1.971,-0.13,-0.79,-0.02,3.99,0.47,-0.65,1.01,-0.04,1.87,0.00
1.972,-0.13,-0.79,-0.02,4.13,0.43,-0.80,1.01,-0.04,1.87,0.00
1.981,-0.14,-0.79,-0.03,4.13,0.43,-0.80,1.01,-0.04,1.87,0.00
1.983,-0.14,-0.79,-0.03,4.13,0.43,-0.80,0.96,0.07,1.81,0.00
1.984,-0.14,-0.79,-0.03,4.23,0.31,-1.02,0.96,0.07,1.81,0.00
1.99,-0.15,-0.79,-0.04,4.23,0.31,-1.02,0.96,0.07,1.81,0.00
1.991,-0.15,-0.79,-0.04,4.23,0.31,-1.02,0.90,0.20,1.74,0.00
1.992,-0.15,-0.79,-0.04,4.27,0.15,-1.18,0.90,0.20,1.74,0.00
2.0,-0.16,-0.82,-0.05,4.27,0.15,-1.18,0.90,0.20,1.74,0.00
2.001,-0.16,-0.82,-0.05,4.27,0.15,-1.18,0.83,0.34,1.66,0.00
2.001,-0.16,-0.82,-0.05,4.34,-0.19,-1.30,0.83,0.34,1.66,0.00
2.012,-0.18,-0.84,-0.05,4.34,-0.19,-1.30,0.83,0.34,1.66,0.00
2.013,-0.18,-0.84,-0.05,4.34,-0.19,-1.30,0.75,0.46,1.57,0.00
2.014,-0.18,-0.84,-0.05,4.28,-0.52,-1.32,0.75,0.46,1.57,0.00
2.02,-0.19,-0.86,-0.05,4.28,-0.52,-1.32,0.75,0.46,1.57,0.00
2.021,-0.19,-0.86,-0.05,4.28,-0.52,-1.32,0.67,0.57,1.47,0.00
2.022,-0.19,-0.86,-0.05,4.27,-0.84,-1.36,0.67,0.57,1.47,0.00
2.031,-0.20,-0.89,-0.06,4.27,-0.84,-1.36,0.67,0.57,1.47,0.00
2.031,-0.20,-0.89,-0.06,4.27,-0.84,-1.36,0.59,0.66,1.36,0.00
2.032,-0.20,-0.89,-0.06,4.26,-1.15,-1.44,0.59,0.66,1.36,0.00
2.04,-0.21,-0.92,-0.07,4.26,-1.15,-1.44,0.59,0.66,1.36,0.00
2.041,-0.21,-0.92,-0.07,4.26,-1.15,-1.44,0.51,0.73,1.23,0.00
2.042,-0.21,-0.92,-0.07,4.27,-1.57,-1.54,0.51,0.73,1.23,0.00
2.055,-0.23,-0.95,-0.08,4.27,-1.57,-1.54,0.51,0.73,1.23,0.00
2.057,-0.23,-0.95,-0.08,4.27,-1.57,-1.54,0.43,0.79,1.09,0.00
2.058,-0.23,-0.95,-0.08,4.16,-1.91,-1.58,0.43,0.79,1.09,0.00
2.078,-0.24,-0.98,-0.09,4.16,-1.91,-1.58,0.43,0.79,1.09,0.00
2.079,-0.24,-0.98,-0.09,4.16,-1.91,-1.58,0.34,0.83,0.94,0.00
2.08,-0.24,-0.98,-0.09,4.14,-2.27,-1.65,0.34,0.83,0.94,0.00
2.082,-0.24,-1.01,-0.08,4.14,-2.27,-1.65,0.34,0.83,0.94,0.00
2.083,-0.24,-1.01,-0.08,4.14,-2.27,-1.65,0.25,0.83,0.79,0.00
2.084,-0.24,-1.01,-0.08,4.17,-2.61,-1.55,0.25,0.83,0.79,0.00
2.085,-0.26,-1.04,-0.07,4.17,-2.61,-1.55,0.25,0.83,0.79,0.00
2.086,-0.26,-1.04,-0.07,4.17,-2.61,-1.55,0.16,0.79,0.64,0.00
2.087,-0.26,-1.04,-0.07,4.11,-3.02,-1.44,0.16,0.79,0.64,0.00
2.094,-0.27,-1.09,-0.07,4.11,-3.02,-1.44,0.16,0.79,0.64,0.00
2.096,-0.27,-1.09,-0.07,4.11,-3.02,-1.44,0.07,0.70,0.49,0.00
2.097,-0.27,-1.09,-0.07,4.05,-3.49,-1.36,0.07,0.70,0.49,0.00
2.108,-0.27,-1.13,-0.06,4.05,-3.49,-1.36,0.07,0.70,0.49,0.00
2.11,-0.27,-1.13,-0.06,4.05,-3.49,-1.36,-0.01,0.56,0.34,0.00
2.111,-0.27,-1.13,-0.06,4.05,-3.91,-1.28,-0.01,0.56,0.34,0.00
2.112,-0.26,-1.13,-0.06,4.05,-3.91,-1.28,-0.01,0.56,0.34,0.00
2.112,-0.26,-1.13,-0.06,4.05,-3.91,-1.28,-0.07,0.40,0.17,0.00
2.113,-0.26,-1.13,-0.06,4.16,-3.95,-1.18,-0.07,0.40,0.17,0.00
2.124,-0.26,-1.11,-0.07,4.16,-3.95,-1.18,-0.07,0.40,0.17,0.00
2.125,-0.26,-1.11,-0.07,4.16,-3.95,-1.18,-0.10,0.21,-0.01,0.00
2.125,-0.26,-1.11,-0.07,4.11,-3.75,-1.25,-0.10,0.21,-0.01,0.00
2.142,-0.26,-1.07,-0.08,4.11,-3.75,-1.25,-0.10,0.21,-0.01,0.00
2.143,-0.26,-1.07,-0.08,4.11,-3.75,-1.25,-0.11,0.00,-0.20,0.00
2.144,-0.26,-1.07,-0.08,4.12,-3.36,-1.37,-0.11,0.00,-0.20,0.00
2.144,-0.24,-1.06,-0.12,4.12,-3.36,-1.37,-0.11,0.00,-0.20,0.00
2.145,-0.24,-1.06,-0.12,4.12,-3.36,-1.37,-0.12,-0.19,-0.37,0.00
2.146,-0.24,-1.06,-0.12,4.25,-3.15,-1.77,-0.12,-0.19,-0.37,0.00
2.151,-0.22,-1.09,-0.14,4.25,-3.15,-1.77,-0.12,-0.19,-0.37,0.00
2.152,-0.22,-1.09,-0.14,4.25,-3.15,-1.77,-0.16,-0.33,-0.55,0.00
2.153,-0.22,-1.09,-0.14,4.44,-3.45,-1.97,-0.16,-0.33,-0.55,0.00
2.162,-0.19,-1.15,-0.17,4.44,-3.45,-1.97,-0.16,-0.33,-0.55,0.00
2.163,-0.19,-1.15,-0.17,4.44,-3.45,-1.97,-0.22,-0.42,-0.74,0.00
2.164,-0.19,-1.15,-0.17,4.64,-3.99,-2.28,-0.22,-0.42,-0.74,0.00
2.172,-0.19,-1.19,-0.17,4.64,-3.99,-2.28,-0.22,-0.42,-0.74,0.00
2.173,-0.19,-1.19,-0.17,4.64,-3.99,-2.28,-0.32,-0.42,-0.96,0.00
2.174,-0.19,-1.19,-0.17,4.64,-4.32,-2.25,-0.32,-0.42,-0.96,0.00
2.185,-0.19,-1.19,-0.15,4.64,-4.32,-2.25,-0.32,-0.42,-0.96,0.00
2.186,-0.19,-1.19,-0.15,4.64,-4.32,-2.25,-0.43,-0.35,-1.20,0.00
2.187,-0.19,-1.19,-0.15,4.52,-4.22,-2.10,-0.43,-0.35,-1.20,0.00
2.195,-0.21,-1.15,-0.11,4.52,-4.22,-2.10,-0.43,-0.35,-1.20,0.00
2.196,-0.21,-1.15,-0.11,4.52,-4.22,-2.10,-0.53,-0.25,-1.46,0.00
2.197,-0.21,-1.15,-0.11,4.22,-3.77,-1.66,-0.53,-0.25,-1.46,0.00
2.205,-0.23,-1.10,-0.07,4.22,-3.77,-1.66,-0.53,-0.25,-1.46,0.00
2.206,-0.23,-1.10,-0.07,4.22,-3.77,-1.66,-0.59,-0.16,-1.73,0.00
2.207,-0.23,-1.10,-0.07,3.83,-3.16,-1.29,-0.59,-0.16,-1.73,0.00
2.215,-0.25,-1.07,-0.06,3.83,-3.16,-1.29,-0.59,-0.16,-1.73,0.00
2.216,-0.25,-1.07,-0.06,3.83,-3.16,-1.29,-0.62,-0.11,-1.97,0.00
2.217,-0.25,-1.07,-0.06,3.53,-2.75,-1.13,-0.62,-0.11,-1.97,0.00
2.222,-0.26,-1.04,-0.08,3.53,-2.75,-1.13,-0.62,-0.11,-1.97,0.00
2.223,-0.26,-1.04,-0.08,3.53,-2.75,-1.13,-0.63,-0.11,-2.17,0.00
2.224,-0.26,-1.04,-0.08,3.27,-2.25,-1.29,-0.63,-0.11,-2.17,0.00
2.232,-0.27,-1.02,-0.12,3.27,-2.25,-1.29,-0.63,-0.11,-2.17,0.00
2.234,-0.27,-1.02,-0.12,3.27,-2.25,-1.29,-0.63,-0.16,-2.32,0.00
2.235,-0.27,-1.02,-0.12,2.98,-1.93,-1.58,-0.63,-0.16,-2.32,0.00
2.243,-0.27,-1.02,-0.16,2.98,-1.93,-1.58,-0.63,-0.16,-2.32,0.00
2.244,-0.27,-1.02,-0.16,2.98,-1.93,-1.58,-0.65,-0.22,-2.42,0.00
2.244,-0.27,-1.02,-0.16,2.71,-1.80,-1.94,-0.65,-0.22,-2.42,0.00
2.252,-0.27,-1.06,-0.19,2.71,-1.80,-1.94,-0.65,-0.22,-2.42,0.00
2.253,-0.27,-1.06,-0.19,2.71,-1.80,-1.94,-0.69,-0.26,-2.47,0.00
2.254,-0.27,-1.06,-0.19,2.54,-2.05,-2.22,-0.69,-0.26,-2.47,0.00
2.269,-0.27,-1.12,-0.21,2.54,-2.05,-2.22,-0.69,-0.26,-2.47,0.00
2.27,-0.27,-1.12,-0.21,2.54,-2.05,-2.22,-0.77,-0.26,-2.51,0.00
2.271,-0.27,-1.12,-0.21,2.38,-2.58,-2.39,-0.77,-0.26,-2.51,0.00
2.287,-0.26,-1.18,-0.21,2.38,-2.58,-2.39,-0.77,-0.26,-2.51,0.00
2.289,-0.26,-1.18,-0.21,2.38,-2.58,-2.39,-0.85,-0.18,-2.54,0.00
2.29,-0.26,-1.18,-0.21,2.22,-3.05,-2.33,-0.85,-0.18,-2.54,0.00
2.29,-0.27,-1.23,-0.21,2.22,-3.05,-2.33,-0.85,-0.18,-2.54,0.00
2.291,-0.27,-1.23,-0.21,2.22,-3.05,-2.33,-0.93,-0.04,-2.55,0.00
2.292,-0.27,-1.23,-0.21,1.94,-3.32,-2.24,-0.93,-0.04,-2.55,0.00
2.293,-0.28,-1.24,-0.19,1.94,-3.32,-2.24,-0.93,-0.04,-2.55,0.00
2.294,-0.28,-1.24,-0.19,1.94,-3.32,-2.24,-1.00,0.12,-2.54,0.00
2.295,-0.28,-1.24,-0.19,1.61,-3.34,-1.92,-1.00,0.12,-2.54,0.00
2.303,-0.29,-1.25,-0.17,1.61,-3.34,-1.92,-1.00,0.12,-2.54,0.00
2.304,-0.29,-1.25,-0.17,1.61,-3.34,-1.92,-1.05,0.26,-2.49,0.00
2.305,-0.29,-1.25,-0.17,1.21,-3.35,-1.59,-1.05,0.26,-2.49,0.00
2.314,-0.29,-1.26,-0.14,1.21,-3.35,-1.59,-1.05,0.26,-2.49,0.00
2.315,-0.29,-1.26,-0.14,1.21,-3.35,-1.59,-1.07,0.33,-2.40,0.00
2.316,-0.29,-1.26,-0.14,1.09,-3.34,-1.24,-1.07,0.33,-2.40,0.00
2.323,-0.28,-1.25,-0.12,1.09,-3.34,-1.24,-1.07,0.33,-2.40,0.00
2.324,-0.28,-1.25,-0.12,1.09,-3.34,-1.24,-1.06,0.32,-2.28,0.00
2.324,-0.28,-1.25,-0.12,0.90,-3.19,-0.88,-1.06,0.32,-2.28,0.00
2.335,-0.27,-1.23,-0.09,0.90,-3.19,-0.88,-1.06,0.32,-2.28,0.00
2.336,-0.27,-1.23,-0.09,0.90,-3.19,-0.88,-1.04,0.19,-2.17,0.00
2.337,-0.27,-1.23,-0.09,0.80,-2.91,-0.47,-1.04,0.19,-2.17,0.00
2.342,-0.27,-1.20,-0.09,0.80,-2.91,-0.47,-1.04,0.19,-2.17,0.00
2.345,-0.27,-1.20,-0.09,0.80,-2.91,-0.47,-0.99,-0.03,-2.08,0.00
2.346,-0.27,-1.20,-0.09,0.60,-2.52,-0.45,-0.99,-0.03,-2.08,0.00
2.353,-0.28,-1.15,-0.09,0.60,-2.52,-0.45,-0.99,-0.03,-2.08,0.00
2.354,-0.28,-1.15,-0.09,0.60,-2.52,-0.45,-0.95,-0.27,-2.03,0.00
2.355,-0.28,-1.15,-0.09,0.37,-1.98,-0.32,-0.95,-0.27,-2.03,0.00
2.368,-0.28,-1.11,-0.09,0.37,-1.98,-0.32,-0.95,-0.27,-2.03,0.00
2.37,-0.28,-1.11,-0.09,0.37,-1.98,-0.32,-0.92,-0.49,-2.00,0.00
2.37,-0.28,-1.11,-0.09,0.20,-1.51,-0.32,-0.92,-0.49,-2.00,0.00
2.373,-0.28,-1.07,-0.10,0.20,-1.51,-0.32,-0.92,-0.49,-2.00,0.00
2.374,-0.28,-1.07,-0.10,0.20,-1.51,-0.32,-0.88,-0.65,-1.98,0.00
2.375,-0.28,-1.07,-0.10,-0.05,-1.11,-0.32,-0.88,-0.65,-1.98,0.00
2.387,-0.32,-1.02,-0.11,-0.05,-1.11,-0.32,-0.88,-0.65,-1.98,0.00
2.388,-0.32,-1.02,-0.11,-0.05,-1.11,-0.32,-0.84,-0.74,-1.93,0.00
2.389,-0.32,-1.02,-0.11,-0.56,-0.59,-0.32,-0.84,-0.74,-1.93,0.00
2.393,-0.34,-0.98,-0.11,-0.56,-0.59,-0.32,-0.84,-0.74,-1.93,0.00
2.394,-0.34,-0.98,-0.11,-0.56,-0.59,-0.32,-0.79,-0.79,-1.85,0.00
2.395,-0.34,-0.98,-0.11,-0.92,-0.15,-0.24,-0.79,-0.79,-1.85,0.00
2.403,-0.36,-0.93,-0.11,-0.92,-0.15,-0.24,-0.79,-0.79,-1.85,0.00
2.405,-0.36,-0.93,-0.11,-0.92,-0.15,-0.24,-0.74,-0.78,-1.73,0.00
2.405,-0.36,-0.93,-0.11,-1.26,0.40,-0.20,-0.74,-0.78,-1.73,0.00
2.413,-0.37,-0.88,-0.10,-1.26,0.40,-0.20,-0.74,-0.78,-1.73,0.00
2.415,-0.37,-0.88,-0.10,-1.26,0.40,-0.20,-0.67,-0.76,-1.61,0.00
2.415,-0.37,-0.88,-0.10,-1.51,0.96,-0.11,-0.67,-0.76,-1.61,0.00
2.423,-0.36,-0.85,-0.09,-1.51,0.96,-0.11,-0.67,-0.76,-1.61,0.00
2.424,-0.36,-0.85,-0.09,-1.51,0.96,-0.11,-0.61,-0.74,-1.49,0.00
2.425,-0.36,-0.85,-0.09,-1.63,1.27,0.09,-0.61,-0.74,-1.49,0.00
2.433,-0.34,-0.82,-0.08,-1.63,1.27,0.09,-0.61,-0.74,-1.49,0.00
2.435,-0.34,-0.82,-0.08,-1.63,1.27,0.09,-0.56,-0.72,-1.39,0.00
2.435,-0.34,-0.82,-0.08,-1.56,1.58,0.21,-0.56,-0.72,-1.39,0.00
2.444,-0.33,-0.79,-0.07,-1.56,1.58,0.21,-0.56,-0.72,-1.39,0.00
2.445,-0.33,-0.79,-0.07,-1.56,1.58,0.21,-0.51,-0.68,-1.32,0.00
2.445,-0.33,-0.79,-0.07,-1.58,1.86,0.33,-0.51,-0.68,-1.32,0.00
2.454,-0.33,-0.76,-0.05,-1.58,1.86,0.33,-0.51,-0.68,-1.32,0.00
2.455,-0.33,-0.76,-0.05,-1.58,1.86,0.33,-0.47,-0.65,-1.28,0.00
2.456,-0.33,-0.76,-0.05,-1.66,2.13,0.55,-0.47,-0.65,-1.28,0.00
2.463,-0.33,-0.73,-0.05,-1.66,2.13,0.55,-0.47,-0.65,-1.28,0.00
2.464,-0.33,-0.73,-0.05,-1.66,2.13,0.55,-0.43,-0.63,-1.25,0.00
2.465,-0.33,-0.73,-0.05,-1.76,2.44,0.58,-0.43,-0.63,-1.25,0.00
2.474,-0.33,-0.71,-0.04,-1.76,2.44,0.58,-0.43,-0.63,-1.25,0.00
2.475,-0.33,-0.71,-0.04,-1.76,2.44,0.58,-0.39,-0.61,-1.21,0.00
2.476,-0.33,-0.71,-0.04,-1.87,2.69,0.70,-0.39,-0.61,-1.21,0.00
2.485,-0.33,-0.69,-0.03,-1.87,2.69,0.70,-0.39,-0.61,-1.21,0.00
2.486,-0.33,-0.69,-0.03,-1.87,2.69,0.70,-0.35,-0.60,-1.16,0.00
2.487,-0.33,-0.69,-0.03,-1.97,2.95,0.82,-0.35,-0.60,-1.16,0.00
2.504,-0.33,-0.67,-0.03,-1.97,2.95,0.82,-0.35,-0.60,-1.16,0.00
2.506,-0.33,-0.67,-0.03,-1.97,2.95,0.82,-0.31,-0.59,-1.11,0.00
2.507,-0.33,-0.67,-0.03,-2.08,3.13,0.90,-0.31,-0.59,-1.11,0.00
2.508,-0.32,-0.65,-0.02,-2.08,3.13,0.90,-0.31,-0.59,-1.11,0.00
2.509,-0.32,-0.65,-0.02,-2.08,3.13,0.90,-0.27,-0.58,-1.06,0.00
2.51,-0.32,-0.65,-0.02,-2.10,3.27,0.96,-0.27,-0.58,-1.06,0.00
2.532,-0.30,-0.66,-0.03,-2.10,3.27,0.96,-0.27,-0.58,-1.06,0.00
2.534,-0.30,-0.66,-0.03,-2.10,3.27,0.96,-0.23,-0.56,-0.99,0.00
2.535,-0.30,-0.66,-0.03,-1.99,3.24,0.90,-0.23,-0.56,-0.99,0.00
2.537,-0.30,-0.66,-0.03,-1.99,3.24,0.90,-0.23,-0.56,-0.99,0.00
2.538,-0.30,-0.66,-0.03,-1.99,3.24,0.90,-0.20,-0.51,-0.93,0.00
2.538,-0.30,-0.66,-0.03,-2.04,3.20,0.93,-0.20,-0.51,-0.93,0.00
2.54,-0.30,-0.68,-0.03,-2.04,3.20,0.93,-0.20,-0.51,-0.93,0.00
2.541,-0.30,-0.68,-0.03,-2.04,3.20,0.93,-0.17,-0.45,-0.88,0.00
2.542,-0.30,-0.68,-0.03,-2.13,3.02,0.96,-0.17,-0.45,-0.88,0.00
2.547,-0.30,-0.68,-0.02,-2.13,3.02,0.96,-0.17,-0.45,-0.88,0.00
2.549,-0.30,-0.68,-0.02,-2.13,3.02,0.96,-0.15,-0.39,-0.84,0.00
2.55,-0.30,-0.68,-0.02,-2.27,3.01,0.99,-0.15,-0.39,-0.84,0.00
2.555,-0.31,-0.70,-0.03,-2.27,3.01,0.99,-0.15,-0.39,-0.84,0.00
2.557,-0.31,-0.70,-0.03,-2.27,3.01,0.99,-0.13,-0.35,-0.78,0.00
2.557,-0.31,-0.70,-0.03,-2.43,2.82,0.96,-0.13,-0.35,-0.78,0.00
2.566,-0.33,-0.73,-0.03,-2.43,2.82,0.96,-0.13,-0.35,-0.78,0.00
2.568,-0.33,-0.73,-0.03,-2.43,2.82,0.96,-0.10,-0.33,-0.71,0.00
2.569,-0.33,-0.73,-0.03,-2.64,2.55,0.95,-0.10,-0.33,-0.71,0.00
2.576,-0.34,-0.75,-0.04,-2.64,2.55,0.95,-0.10,-0.33,-0.71,0.00
2.577,-0.34,-0.75,-0.04,-2.64,2.55,0.95,-0.08,-0.32,-0.64,0.00
2.578,-0.34,-0.75,-0.04,-2.85,2.34,0.86,-0.08,-0.32,-0.64,0.00
2.586,-0.38,-0.78,-0.05,-2.85,2.34,0.86,-0.08,-0.32,-0.64,0.00
2.587,-0.38,-0.78,-0.05,-2.85,2.34,0.86,-0.06,-0.35,-0.57,0.00
2.588,-0.38,-0.78,-0.05,-3.26,2.06,0.76,-0.06,-0.35,-0.57,0.00
2.605,-0.42,-0.81,-0.06,-3.26,2.06,0.76,-0.06,-0.35,-0.57,0.00
2.607,-0.42,-0.81,-0.06,-3.26,2.06,0.76,-0.04,-0.41,-0.49,0.00
2.608,-0.42,-0.81,-0.06,-3.70,1.81,0.69,-0.04,-0.41,-0.49,0.00
2.609,-0.43,-0.84,-0.07,-3.70,1.81,0.69,-0.04,-0.41,-0.49,0.00
2.61,-0.43,-0.84,-0.07,-3.70,1.81,0.69,-0.01,-0.50,-0.39,0.00
2.611,-0.43,-0.84,-0.07,-3.78,1.52,0.62,-0.01,-0.50,-0.39,0.00
2.631,-0.42,-0.86,-0.05,-3.78,1.52,0.62,-0.01,-0.50,-0.39,0.00
2.633,-0.42,-0.86,-0.05,-3.78,1.52,0.62,0.03,-0.60,-0.27,0.00
2.634,-0.42,-0.86,-0.05,-3.73,1.26,0.73,0.03,-0.60,-0.27,0.00
2.635,-0.40,-0.90,-0.06,-3.73,1.26,0.73,0.03,-0.60,-0.27,0.00
2.636,-0.40,-0.90,-0.06,-3.73,1.26,0.73,0.08,-0.71,-0.18,0.00
2.637,-0.40,-0.90,-0.06,-3.52,0.93,0.70,0.08,-0.71,-0.18,0.00
2.638,-0.37,-0.93,-0.08,-3.52,0.93,0.70,0.08,-0.71,-0.18,0.00
2.639,-0.37,-0.93,-0.08,-3.52,0.93,0.70,0.15,-0.84,-0.12,0.00
2.64,-0.37,-0.93,-0.08,-3.26,0.61,0.47,0.15,-0.84,-0.12,0.00
2.648,-0.37,-0.96,-0.11,-3.26,0.61,0.47,0.15,-0.84,-0.12,0.00
2.65,-0.37,-0.96,-0.11,-3.26,0.61,0.47,0.23,-0.97,-0.11,0.00
2.651,-0.37,-0.96,-0.11,-3.30,0.33,0.12,0.23,-0.97,-0.11,0.00
2.656,-0.39,-0.98,-0.14,-3.30,0.33,0.12,0.23,-0.97,-0.11,0.00
2.657,-0.39,-0.98,-0.14,-3.30,0.33,0.12,0.30,-1.08,-0.10,0.00
2.658,-0.39,-0.98,-0.14,-3.49,0.11,-0.16,0.30,-1.08,-0.10,0.00
2.667,-0.42,-1.01,-0.17,-3.49,0.11,-0.16,0.30,-1.08,-0.10,0.00
2.668,-0.42,-1.01,-0.17,-3.49,0.11,-0.16,0.37,-1.16,-0.05,0.00
2.669,-0.42,-1.01,-0.17,-3.72,-0.12,-0.58,0.37,-1.16,-0.05,0.00
2.678,-0.44,-1.03,-0.21,-3.72,-0.12,-0.58,0.37,-1.16,-0.05,0.00
2.679,-0.44,-1.03,-0.21,-3.72,-0.12,-0.58,0.40,-1.18,0.02,0.00
2.682,-0.44,-1.03,-0.21,-3.89,-0.33,-0.97,0.40,-1.18,0.02,0.00
2.687,-0.44,-1.07,-0.23,-3.89,-0.33,-0.97,0.40,-1.18,0.02,0.00
2.689,-0.44,-1.07,-0.23,-3.89,-0.33,-0.97,0.39,-1.12,0.10,0.00
2.69,-0.44,-1.07,-0.23,-3.88,-0.73,-1.20,0.39,-1.12,0.10,0.00
2.705,-0.42,-1.10,-0.23,-3.88,-0.73,-1.20,0.39,-1.12,0.10,0.00
2.707,-0.42,-1.10,-0.23,-3.88,-0.73,-1.20,0.36,-1.03,0.20,0.00
2.708,-0.42,-1.10,-0.23,-3.69,-1.06,-1.21,0.36,-1.03,0.20,0.00
2.708,-0.39,-1.16,-0.21,-3.69,-1.06,-1.21,0.36,-1.03,0.20,0.00
2.71,-0.39,-1.16,-0.21,-3.69,-1.06,-1.21,0.33,-0.89,0.28,0.00
2.71,-0.39,-1.16,-0.21,-3.33,-1.62,-1.14,0.33,-0.89,0.28,0.00
2.732,-0.34,-1.25,-0.22,-3.33,-1.62,-1.14,0.33,-0.89,0.28,0.00
2.734,-0.34,-1.25,-0.22,-3.33,-1.62,-1.14,0.32,-0.71,0.34,0.00
2.735,-0.34,-1.25,-0.22,-2.82,-2.47,-1.26,0.32,-0.71,0.34,0.00
2.736,-0.31,-1.31,-0.23,-2.82,-2.47,-1.26,0.32,-0.71,0.34,0.00
2.737,-0.31,-1.31,-0.23,-2.82,-2.47,-1.26,0.33,-0.47,0.36,0.00
2.738,-0.31,-1.31,-0.23,-2.45,-3.07,-1.38,0.33,-0.47,0.36,0.00
2.739,-0.31,-1.31,-0.24,-2.45,-3.07,-1.38,0.33,-0.47,0.36,0.00
2.74,-0.31,-1.31,-0.24,-2.45,-3.07,-1.38,0.35,-0.23,0.37,0.00
2.741,-0.31,-1.31,-0.24,-2.46,-3.13,-1.48,0.35,-0.23,0.37,0.00
2.748,-0.34,-1.29,-0.24,-2.46,-3.13,-1.48,0.35,-0.23,0.37,0.00
2.75,-0.34,-1.29,-0.24,-2.46,-3.13,-1.48,0.39,-0.04,0.39,0.00
2.751,-0.34,-1.29,-0.24,-2.65,-2.85,-1.56,0.39,-0.04,0.39,0.00
2.757,-0.38,-1.24,-0.27,-2.65,-2.85,-1.56,0.39,-0.04,0.39,0.00
2.758,-0.38,-1.24,-0.27,-2.65,-2.85,-1.56,0.46,0.09,0.42,0.00
2.759,-0.38,-1.24,-0.27,-3.04,-2.42,-1.83,0.46,0.09,0.42,0.00
2.767,-0.42,-1.23,-0.30,-3.04,-2.42,-1.83,0.46,0.09,0.42,0.00
2.769,-0.42,-1.23,-0.30,-3.04,-2.42,-1.83,0.53,0.20,0.44,0.00
2.77,-0.42,-1.23,-0.30,-3.43,-2.26,-2.16,0.53,0.20,0.44,0.00
2.777,-0.46,-1.23,-0.32,-3.43,-2.26,-2.16,0.53,0.20,0.44,0.00
2.779,-0.46,-1.23,-0.32,-3.43,-2.26,-2.16,0.57,0.30,0.44,0.00
2.78,-0.46,-1.23,-0.32,-3.75,-2.28,-2.48,0.57,0.30,0.44,0.00
2.788,-0.46,-1.21,-0.32,-3.75,-2.28,-2.48,0.57,0.30,0.44,0.00
2.789,-0.46,-1.21,-0.32,-3.75,-2.28,-2.48,0.57,0.41,0.43,0.00
2.79,-0.46,-1.21,-0.32,-3.76,-2.08,-2.53,0.57,0.41,0.43,0.00
2.798,-0.45,-1.16,-0.29,-3.76,-2.08,-2.53,0.57,0.41,0.43,0.00
2.8,-0.45,-1.16,-0.29,-3.76,-2.08,-2.53,0.50,0.50,0.45,0.00
2.801,-0.45,-1.16,-0.29,-3.60,-1.64,-2.25,0.50,0.50,0.45,0.00
2.808,-0.42,-1.11,-0.23,-3.60,-1.64,-2.25,0.50,0.50,0.45,0.00
2.809,-0.42,-1.11,-0.23,-3.60,-1.64,-2.25,0.38,0.58,0.52,0.00
2.81,-0.42,-1.11,-0.23,-3.21,-1.15,-1.74,0.38,0.58,0.52,0.00
2.823,-0.38,-1.08,-0.20,-3.21,-1.15,-1.74,0.38,0.58,0.52,0.00
2.824,-0.38,-1.08,-0.20,-3.21,-1.15,-1.74,0.26,0.67,0.60,0.00
2.825,-0.38,-1.08,-0.20,-2.81,-0.87,-1.40,0.26,0.67,0.60,0.00
2.828,-0.34,-1.05,-0.17,-2.81,-0.87,-1.40,0.26,0.67,0.60,0.00
2.83,-0.34,-1.05,-0.17,-2.81,-0.87,-1.40,0.18,0.79,0.70,0.00
2.831,-0.34,-1.05,-0.17,-2.37,-0.51,-1.10,0.18,0.79,0.70,0.00
2.849,-0.33,-1.01,-0.13,-2.37,-0.51,-1.10,0.18,0.79,0.70,0.00
2.85,-0.33,-1.01,-0.13,-2.37,-0.51,-1.10,0.15,0.92,0.80,0.00
2.851,-0.33,-1.01,-0.13,-2.14,-0.19,-0.73,0.15,0.92,0.80,0.00
2.852,-0.33,-0.98,-0.09,-2.14,-0.19,-0.73,0.15,0.92,0.80,0.00
2.853,-0.33,-0.98,-0.09,-2.14,-0.19,-0.73,0.16,1.02,0.90,0.00
2.854,-0.33,-0.98,-0.09,-2.06,0.08,-0.40,0.16,1.02,0.90,0.00
2.858,-0.33,-0.96,-0.05,-2.06,0.08,-0.40,0.16,1.02,0.90,0.00
2.86,-0.33,-0.96,-0.05,-2.06,0.08,-0.40,0.20,1.08,1.01,0.00
2.861,-0.33,-0.96,-0.05,-2.01,0.30,-0.03,0.20,1.08,1.01,0.00
2.868,-0.33,-0.95,-0.01,-2.01,0.30,-0.03,0.20,1.08,1.01,0.00
2.87,-0.33,-0.95,-0.01,-2.01,0.30,-0.03,0.25,1.09,1.17,0.00
2.871,-0.33,-0.95,-0.01,-1.85,0.38,0.36,0.25,1.09,1.17,0.00
2.878,-0.31,-0.98,0.04,-1.85,0.38,0.36,0.25,1.09,1.17,0.00
2.88,-0.31,-0.98,0.04,-1.85,0.38,0.36,0.29,0.98,1.33,0.00
2.881,-0.31,-0.98,0.04,-1.57,0.03,0.83,0.29,0.98,1.33,0.00
2.889,-0.31,-1.05,0.06,-1.57,0.03,0.83,0.29,0.98,1.33,0.00
2.891,-0.31,-1.05,0.06,-1.57,0.03,0.83,0.31,0.74,1.46,0.00
2.892,-0.31,-1.05,0.06,-1.45,-0.62,1.01,0.31,0.74,1.46,0.00
2.899,-0.30,-1.12,0.03,-1.45,-0.62,1.01,0.31,0.74,1.46,0.00
2.901,-0.30,-1.12,0.03,-1.45,-0.62,1.01,0.34,0.48,1.57,0.00
2.902,-0.30,-1.12,0.03,-1.18,-1.31,0.72,0.34,0.48,1.57,0.00
2.909,-0.27,-1.15,0.02,-1.18,-1.31,0.72,0.34,0.48,1.57,0.00
2.91,-0.27,-1.15,0.02,-1.18,-1.31,0.72,0.36,0.33,1.71,0.00
2.911,-0.27,-1.15,0.02,-0.74,-1.71,0.59,0.36,0.33,1.71,0.00
2.919,-0.23,-1.21,0.04,-0.74,-1.71,0.59,0.36,0.33,1.71,0.00
2.92,-0.23,-1.21,0.04,-0.74,-1.71,0.59,0.37,0.30,1.84,0.00
2.921,-0.23,-1.21,0.04,-0.15,-2.30,0.76,0.37,0.30,1.84,0.00
2.929,-0.21,-1.25,0.07,-0.15,-2.30,0.76,0.37,0.30,1.84,0.00
2.931,-0.21,-1.25,0.07,-0.15,-2.30,0.76,0.37,0.31,1.95,0.00
2.932,-0.21,-1.25,0.07,0.27,-2.75,1.02,0.37,0.31,1.95,0.00
2.943,-0.20,-1.26,0.10,0.27,-2.75,1.02,0.37,0.31,1.95,0.00
2.945,-0.20,-1.26,0.10,0.27,-2.75,1.02,0.36,0.30,2.02,0.00
2.946,-0.20,-1.26,0.10,0.56,-2.90,1.33,0.36,0.30,2.02,0.00
2.97,-0.19,-1.24,0.12,0.56,-2.90,1.33,0.36,0.30,2.02,0.00
2.972,-0.19,-1.24,0.12,0.56,-2.90,1.33,0.35,0.23,2.08,0.00
2.973,-0.19,-1.24,0.12,0.83,-2.76,1.48,0.35,0.23,2.08,0.00
2.974,-0.19,-1.22,0.13,0.83,-2.76,1.48,0.35,0.23,2.08,0.00
2.975,-0.19,-1.22,0.13,0.83,-2.76,1.48,0.37,0.10,2.14,0.00
2.976,-0.19,-1.22,0.13,1.01,-2.62,1.51,0.37,0.10,2.14,0.00
2.977,-0.20,-1.20,0.11,1.01,-2.62,1.51,0.37,0.10,2.14,0.00
2.978,-0.20,-1.20,0.11,1.01,-2.62,1.51,0.40,-0.07,2.18,0.00
2.98,-0.20,-1.20,0.11,1.17,-2.48,1.34,0.40,-0.07,2.18,0.00
2.982,-0.20,-1.18,0.11,1.17,-2.48,1.34,0.40,-0.07,2.18,0.00
2.983,-0.20,-1.18,0.11,1.17,-2.48,1.34,0.44,-0.23,2.20,0.00
2.984,-0.20,-1.18,0.11,1.37,-2.37,1.26,0.44,-0.23,2.20,0.00
2.99,-0.20,-1.18,0.09,1.37,-2.37,1.26,0.44,-0.23,2.20,0.00
2.991,-0.20,-1.18,0.09,1.37,-2.37,1.26,0.48,-0.36,2.20,0.00
2.992,-0.20,-1.18,0.09,1.57,-2.39,0.98,0.48,-0.36,2.20,0.00
3.0,-0.19,-1.18,0.07,1.57,-2.39,0.98,0.48,-0.36,2.20,0.00
3.002,-0.19,-1.18,0.07,1.57,-2.39,0.98,0.51,-0.47,2.16,0.00
3.003,-0.19,-1.18,0.07,1.82,-2.46,0.73,0.51,-0.47,2.16,0.00
3.01,-0.19,-1.18,0.06,1.82,-2.46,0.73,0.51,-0.47,2.16,0.00
3.011,-0.19,-1.18,0.06,1.82,-2.46,0.73,0.54,-0.55,2.11,0.00
3.012,-0.19,-1.18,0.06,2.09,-2.59,0.59,0.54,-0.55,2.11,0.00
3.021,-0.18,-1.16,0.06,2.09,-2.59,0.59,0.54,-0.55,2.11,0.00
3.022,-0.18,-1.16,0.06,2.09,-2.59,0.59,0.58,-0.61,2.04,0.00
3.023,-0.18,-1.16,0.06,2.37,-2.48,0.49,0.58,-0.61,2.04,0.00
3.04,-0.18,-1.12,0.06,2.37,-2.48,0.49,0.58,-0.61,2.04,0.00
3.042,-0.18,-1.12,0.06,2.37,-2.48,0.49,0.62,-0.65,1.95,0.00
3.043,-0.18,-1.12,0.06,2.54,-2.13,0.37,0.62,-0.65,1.95,0.00
3.044,-0.18,-1.06,0.05,2.54,-2.13,0.37,0.62,-0.65,1.95,0.00
3.045,-0.18,-1.06,0.05,2.54,-2.13,0.37,0.67,-0.69,1.87,0.00
3.046,-0.18,-1.06,0.05,2.70,-1.68,0.24,0.67,-0.69,1.87,0.00
3.066,-0.17,-1.00,0.04,2.70,-1.68,0.24,0.67,-0.69,1.87,0.00
3.068,-0.17,-1.00,0.04,2.70,-1.68,0.24,0.74,-0.70,1.80,0.00
3.069,-0.17,-1.00,0.04,2.95,-1.16,-0.02,0.74,-0.70,1.80,0.00
3.07,-0.16,-0.95,0.02,2.95,-1.16,-0.02,0.74,-0.70,1.80,0.00
3.071,-0.16,-0.95,0.02,2.95,-1.16,-0.02,0.81,-0.69,1.74,0.00
3.072,-0.16,-0.95,0.02,3.15,-0.73,-0.28,0.81,-0.69,1.74,0.00
3.073,-0.15,-0.90,-0.01,3.15,-0.73,-0.28,0.81,-0.69,1.74,0.00
3.074,-0.15,-0.90,-0.01,3.15,-0.73,-0.28,0.87,-0.64,1.70,0.00
3.075,-0.15,-0.90,-0.01,3.36,-0.38,-0.63,0.87,-0.64,1.70,0.00
3.082,-0.14,-0.86,-0.02,3.36,-0.38,-0.63,0.87,-0.64,1.70,0.00
3.084,-0.14,-0.86,-0.02,3.36,-0.38,-0.63,0.91,-0.58,1.67,0.00
3.085,-0.14,-0.86,-0.02,3.63,-0.07,-0.91,0.91,-0.58,1.67,0.00
3.091,-0.12,-0.82,-0.03,3.63,-0.07,-0.91,0.91,-0.58,1.67,0.00
3.092,-0.12,-0.82,-0.03,3.63,-0.07,-0.91,0.94,-0.50,1.63,0.00
3.093,-0.12,-0.82,-0.03,3.98,0.25,-1.07,0.94,-0.50,1.63,0.00
3.1,-0.11,-0.79,-0.03,3.98,0.25,-1.07,0.94,-0.50,1.63,0.00
3.102,-0.11,-0.79,-0.03,3.98,0.25,-1.07,0.94,-0.41,1.59,0.00
3.103,-0.11,-0.79,-0.03,4.17,0.48,-1.19,0.94,-0.41,1.59,0.00
3.111,-0.11,-0.76,-0.03,4.17,0.48,-1.19,0.94,-0.41,1.59,0.00
3.113,-0.11,-0.76,-0.03,4.17,0.48,-1.19,0.94,-0.30,1.55,0.00
3.114,-0.11,-0.76,-0.03,4.37,0.68,-1.29,0.94,-0.30,1.55,0.00
3.121,-0.10,-0.73,-0.02,4.37,0.68,-1.29,0.94,-0.30,1.55,0.00
3.123,-0.10,-0.73,-0.02,4.37,0.68,-1.29,0.93,-0.17,1.50,0.00
3.124,-0.10,-0.73,-0.02,4.53,0.89,-1.28,0.93,-0.17,1.50,0.00
3.132,-0.09,-0.70,-0.02,4.53,0.89,-1.28,0.93,-0.17,1.50,0.00
3.134,-0.09,-0.70,-0.02,4.53,0.89,-1.28,0.90,-0.01,1.44,0.00
3.135,-0.09,-0.70,-0.02,4.72,1.06,-1.33,0.90,-0.01,1.44,0.00
3.141,-0.09,-0.68,-0.02,4.72,1.06,-1.33,0.90,-0.01,1.44,0.00
3.142,-0.09,-0.68,-0.02,4.72,1.06,-1.33,0.86,0.14,1.38,0.00
3.143,-0.09,-0.68,-0.02,4.82,1.15,-1.40,0.86,0.14,1.38,0.00
3.16,-0.11,-0.66,-0.02,4.82,1.15,-1.40,0.86,0.14,1.38,0.00
3.162,-0.11,-0.66,-0.02,4.82,1.15,-1.40,0.81,0.31,1.31,0.00
3.164,-0.11,-0.66,-0.02,4.75,1.30,-1.45,0.81,0.31,1.31,0.00
3.165,-0.12,-0.65,-0.01,4.75,1.30,-1.45,0.81,0.31,1.31,0.00
3.168,-0.12,-0.65,-0.01,4.75,1.30,-1.45,0.75,0.46,1.24,0.00
3.169,-0.12,-0.65,-0.01,4.74,1.27,-1.40,0.75,0.46,1.24,0.00
3.189,-0.13,-0.64,-0.02,4.74,1.27,-1.40,0.75,0.46,1.24,0.00
3.191,-0.13,-0.64,-0.02,4.74,1.27,-1.40,0.67,0.59,1.16,0.00
3.192,-0.13,-0.64,-0.02,4.76,1.30,-1.53,0.67,0.59,1.16,0.00
3.194,-0.14,-0.65,-0.01,4.76,1.30,-1.53,0.67,0.59,1.16,0.00
3.195,-0.14,-0.65,-0.01,4.76,1.30,-1.53,0.59,0.70,1.07,0.00
3.196,-0.14,-0.65,-0.01,4.79,1.19,-1.38,0.59,0.70,1.07,0.00
3.198,-0.15,-0.66,0.01,4.79,1.19,-1.38,0.59,0.70,1.07,0.00
3.199,-0.15,-0.66,0.01,4.79,1.19,-1.38,0.50,0.79,0.97,0.00
3.201,-0.15,-0.66,0.01,4.79,1.02,-1.19,0.50,0.79,0.97,0.00
3.204,-0.16,-0.67,0.02,4.79,1.02,-1.19,0.50,0.79,0.97,0.00
3.205,-0.16,-0.67,0.02,4.79,1.02,-1.19,0.43,0.84,0.84,0.00
3.206,-0.16,-0.67,0.02,4.78,0.87,-1.08,0.43,0.84,0.84,0.00
3.211,-0.17,-0.69,0.02,4.78,0.87,-1.08,0.43,0.84,0.84,0.00
3.213,-0.17,-0.69,0.02,4.78,0.87,-1.08,0.35,0.88,0.69,0.00
3.214,-0.17,-0.69,0.02,4.75,0.62,-1.07,0.35,0.88,0.69,0.00
3.222,-0.18,-0.69,0.01,4.75,0.62,-1.07,0.35,0.88,0.69,0.00
3.223,-0.18,-0.69,0.01,4.75,0.62,-1.07,0.29,0.90,0.53,0.00
3.224,-0.18,-0.69,0.01,4.65,0.53,-1.09,0.29,0.90,0.53,0.00
3.232,-0.20,-0.71,0.01,4.65,0.53,-1.09,0.29,0.90,0.53,0.00
3.234,-0.20,-0.71,0.01,4.65,0.53,-1.09,0.23,0.89,0.37,0.00
3.235,-0.20,-0.71,0.01,4.46,0.37,-1.09,0.23,0.89,0.37,0.00
3.241,-0.22,-0.72,-0.00,4.46,0.37,-1.09,0.23,0.89,0.37,0.00
3.242,-0.22,-0.72,-0.00,4.46,0.37,-1.09,0.18,0.86,0.21,0.00
3.243,-0.22,-0.72,-0.00,4.33,0.18,-1.15,0.18,0.86,0.21,0.00
3.253,-0.22,-0.74,-0.03,4.33,0.18,-1.15,0.18,0.86,0.21,0.00
3.255,-0.22,-0.74,-0.03,4.33,0.18,-1.15,0.15,0.84,0.06,0.00
3.256,-0.22,-0.74,-0.03,4.29,-0.00,-1.36,0.15,0.84,0.06,0.00
3.262,-0.23,-0.77,-0.06,4.29,-0.00,-1.36,0.15,0.84,0.06,0.00
3.263,-0.23,-0.77,-0.06,4.29,-0.00,-1.36,0.11,0.81,-0.07,0.00
3.264,-0.23,-0.77,-0.06,4.23,-0.26,-1.56,0.11,0.81,-0.07,0.00
3.276,-0.23,-0.81,-0.08,4.23,-0.26,-1.56,0.11,0.81,-0.07,0.00
3.278,-0.23,-0.81,-0.08,4.23,-0.26,-1.56,0.06,0.79,-0.21,0.00
3.279,-0.23,-0.81,-0.08,4.27,-0.63,-1.73,0.06,0.79,-0.21,0.00
3.305,-0.21,-0.85,-0.11,4.27,-0.63,-1.73,0.06,0.79,-0.21,0.00
3.306,-0.21,-0.85,-0.11,4.27,-0.63,-1.73,0.01,0.77,-0.35,0.00
3.307,-0.21,-0.85,-0.11,4.41,-1.04,-1.98,0.01,0.77,-0.35,0.00
3.309,-0.22,-0.92,-0.13,4.41,-1.04,-1.98,0.01,0.77,-0.35,0.00
3.31,-0.22,-0.92,-0.13,4.41,-1.04,-1.98,-0.06,0.79,-0.50,0.00
3.311,-0.22,-0.92,-0.13,4.31,-1.63,-2.18,-0.06,0.79,-0.50,0.00
3.312,-0.22,-0.98,-0.16,4.31,-1.63,-2.18,-0.06,0.79,-0.50,0.00
3.313,-0.22,-0.98,-0.16,4.31,-1.63,-2.18,-0.14,0.83,-0.66,0.00
3.314,-0.22,-0.98,-0.16,4.27,-2.25,-2.33,-0.14,0.83,-0.66,0.00
3.315,-0.24,-1.05,-0.17,4.27,-2.25,-2.33,-0.14,0.83,-0.66,0.00
3.316,-0.24,-1.05,-0.17,4.27,-2.25,-2.33,-0.23,0.89,-0.81,0.00
3.318,-0.24,-1.05,-0.17,3.96,-2.83,-2.36,-0.23,0.89,-0.81,0.00
3.322,-0.26,-1.11,-0.14,3.96,-2.83,-2.36,-0.23,0.89,-0.81,0.00
3.324,-0.26,-1.11,-0.14,3.96,-2.83,-2.36,-0.33,0.97,-0.96,0.00
3.325,-0.26,-1.11,-0.14,3.69,-3.34,-2.01,-0.33,0.97,-0.96,0.00
3.334,-0.29,-1.15,-0.12,3.69,-3.34,-2.01,-0.33,0.97,-0.96,0.00
3.336,-0.29,-1.15,-0.12,3.69,-3.34,-2.01,-0.41,1.00,-1.08,0.00
3.337,-0.29,-1.15,-0.12,3.33,-3.66,-1.70,-0.41,1.00,-1.08,0.00
3.343,-0.32,-1.18,-0.11,3.33,-3.66,-1.70,-0.41,1.00,-1.08,0.00
3.344,-0.32,-1.18,-0.11,3.33,-3.66,-1.70,-0.46,0.98,-1.19,0.00
3.345,-0.32,-1.18,-0.11,3.01,-3.89,-1.50,-0.46,0.98,-1.19,0.00
3.353,-0.32,-1.18,-0.09,3.01,-3.89,-1.50,-0.46,0.98,-1.19,0.00
3.356,-0.32,-1.18,-0.09,3.01,-3.89,-1.50,-0.49,0.89,-1.31,0.00
3.357,-0.32,-1.18,-0.09,2.87,-3.88,-1.29,-0.49,0.89,-1.31,0.00
3.363,-0.33,-1.17,-0.07,2.87,-3.88,-1.29,-0.49,0.89,-1.31,0.00
3.364,-0.33,-1.17,-0.07,2.87,-3.88,-1.29,-0.51,0.76,-1.44,0.00
3.365,-0.33,-1.17,-0.07,2.67,-3.68,-0.99,-0.51,0.76,-1.44,0.00
3.377,-0.33,-1.16,-0.08,2.67,-3.68,-0.99,-0.51,0.76,-1.44,0.00
3.379,-0.33,-1.16,-0.08,2.67,-3.68,-0.99,-0.52,0.61,-1.59,0.00
3.38,-0.33,-1.16,-0.08,2.53,-3.44,-0.96,-0.52,0.61,-1.59,0.00
3.406,-0.33,-1.15,-0.08,2.53,-3.44,-0.96,-0.52,0.61,-1.59,0.00
3.408,-0.33,-1.15,-0.08,2.53,-3.44,-0.96,-0.53,0.46,-1.73,0.00
3.409,-0.33,-1.15,-0.08,2.44,-3.26,-0.88,-0.53,0.46,-1.73,0.00
3.41,-0.31,-1.19,-0.07,2.44,-3.26,-0.88,-0.53,0.46,-1.73,0.00
3.411,-0.31,-1.19,-0.07,2.44,-3.26,-0.88,-0.55,0.32,-1.84,0.00
3.412,-0.31,-1.19,-0.07,2.50,-3.52,-0.73,-0.55,0.32,-1.84,0.00
3.414,-0.28,-1.24,-0.08,2.50,-3.52,-0.73,-0.55,0.32,-1.84,0.00
3.415,-0.28,-1.24,-0.08,2.50,-3.52,-0.73,-0.56,0.23,-1.96,0.00
3.416,-0.28,-1.24,-0.08,2.57,-3.96,-0.75,-0.56,0.23,-1.96,0.00
3.417,-0.27,-1.30,-0.10,2.57,-3.96,-0.75,-0.56,0.23,-1.96,0.00
3.42,-0.27,-1.30,-0.10,2.57,-3.96,-0.75,-0.57,0.20,-2.09,0.00
3.421,-0.27,-1.30,-0.10,2.53,-4.39,-0.97,-0.57,0.20,-2.09,0.00
3.425,-0.27,-1.35,-0.13,2.53,-4.39,-0.97,-0.57,0.20,-2.09,0.00
3.426,-0.27,-1.35,-0.13,2.53,-4.39,-0.97,-0.59,0.21,-2.23,0.00
3.427,-0.27,-1.35,-0.13,2.33,-4.81,-1.12,-0.59,0.21,-2.23,0.00
3.437,-0.29,-1.40,-0.14,2.33,-4.81,-1.12,-0.59,0.21,-2.23,0.00
3.439,-0.29,-1.40,-0.14,2.33,-4.81,-1.12,-0.61,0.25,-2.36,0.00
3.44,-0.29,-1.40,-0.14,1.90,-5.13,-1.19,-0.61,0.25,-2.36,0.00
3.443,-0.33,-1.37,-0.14,1.90,-5.13,-1.19,-0.61,0.25,-2.36,0.00
3.444,-0.33,-1.37,-0.14,1.90,-5.13,-1.19,-0.64,0.29,-2.44,0.00
3.445,-0.33,-1.37,-0.14,1.36,-4.76,-1.09,-0.64,0.29,-2.44,0.00
3.454,-0.35,-1.29,-0.11,1.36,-4.76,-1.09,-0.64,0.29,-2.44,0.00
3.455,-0.35,-1.29,-0.11,1.36,-4.76,-1.09,-0.66,0.30,-2.48,0.00
3.456,-0.35,-1.29,-0.11,0.88,-3.82,-0.75,-0.66,0.30,-2.48,0.00
3.464,-0.36,-1.16,-0.07,0.88,-3.82,-0.75,-0.66,0.30,-2.48,0.00
3.465,-0.36,-1.16,-0.07,0.88,-3.82,-0.75,-0.66,0.26,-2.47,0.00
3.466,-0.36,-1.16,-0.07,0.60,-2.50,-0.30,-0.66,0.26,-2.47,0.00
3.478,-0.36,-1.03,-0.05,0.60,-2.50,-0.30,-0.66,0.26,-2.47,0.00
3.48,-0.36,-1.03,-0.05,0.60,-2.50,-0.30,-0.61,0.16,-2.46,0.00
3.481,-0.36,-1.03,-0.05,0.35,-1.10,-0.01,-0.61,0.16,-2.46,0.00
3.483,-0.35,-0.92,-0.04,0.35,-1.10,-0.01,-0.61,0.16,-2.46,0.00
3.485,-0.35,-0.92,-0.04,0.35,-1.10,-0.01,-0.55,-0.00,-2.43,0.00
3.486,-0.35,-0.92,-0.04,0.28,0.02,0.06,-0.55,-0.00,-2.43,0.00
3.493,-0.32,-0.88,-0.08,0.28,0.02,0.06,-0.55,-0.00,-2.43,0.00
3.494,-0.32,-0.88,-0.08,0.28,0.02,0.06,-0.49,-0.17,-2.36,0.00
3.495,-0.32,-0.88,-0.08,0.34,0.50,-0.20,-0.49,-0.17,-2.36,0.00
3.507,-0.28,-0.94,-0.13,0.34,0.50,-0.20,-0.49,-0.17,-2.36,0.00
3.509,-0.28,-0.94,-0.13,0.34,0.50,-0.20,-0.45,-0.28,-2.25,0.00
3.51,-0.28,-0.94,-0.13,0.53,0.06,-0.68,-0.45,-0.28,-2.25,0.00
3.515,-0.23,-1.05,-0.19,0.53,0.06,-0.68,-0.45,-0.28,-2.25,0.00
3.516,-0.23,-1.05,-0.19,0.53,0.06,-0.68,-0.44,-0.26,-2.13,0.00
3.517,-0.23,-1.05,-0.19,0.77,-0.99,-1.26,-0.44,-0.26,-2.13,0.00
3.525,-0.20,-1.18,-0.22,0.77,-0.99,-1.26,-0.44,-0.26,-2.13,0.00
3.527,-0.20,-1.18,-0.22,0.77,-0.99,-1.26,-0.48,-0.09,-2.00,0.00
3.528,-0.20,-1.18,-0.22,0.86,-2.19,-1.49,-0.48,-0.09,-2.00,0.00
3.538,-0.21,-1.25,-0.20,0.86,-2.19,-1.49,-0.48,-0.09,-2.00,0.00
3.54,-0.21,-1.25,-0.20,0.86,-2.19,-1.49,-0.57,0.17,-1.86,0.00
3.541,-0.21,-1.25,-0.20,0.61,-2.81,-1.21,-0.57,0.17,-1.86,0.00
3.545,-0.24,-1.24,-0.13,0.61,-2.81,-1.21,-0.57,0.17,-1.86,0.00
3.546,-0.24,-1.24,-0.13,0.61,-2.81,-1.21,-0.66,0.42,-1.71,0.00
3.547,-0.24,-1.24,-0.13,0.16,-2.66,-0.51,-0.66,0.42,-1.71,0.00
3.554,-0.25,-1.19,-0.04,0.16,-2.66,-0.51,-0.66,0.42,-1.71,0.00
3.556,-0.25,-1.19,-0.04,0.16,-2.66,-0.51,-0.70,0.59,-1.58,0.00
3.557,-0.25,-1.19,-0.04,-0.13,-2.21,0.45,-0.70,0.59,-1.58,0.00
3.566,-0.26,-1.17,0.01,-0.13,-2.21,0.45,-0.70,0.59,-1.58,0.00
3.568,-0.26,-1.17,0.01,-0.13,-2.21,0.45,-0.65,0.64,-1.48,0.00
3.569,-0.26,-1.17,0.01,-0.30,-1.96,1.05,-0.65,0.64,-1.48,0.00
3.577,-0.26,-1.18,0.05,-0.30,-1.96,1.05,-0.65,0.64,-1.48,0.00
3.578,-0.26,-1.18,0.05,-0.30,-1.96,1.05,-0.56,0.55,-1.42,0.00
3.58,-0.26,-1.18,0.05,-0.43,-2.02,1.49,-0.56,0.55,-1.42,0.00
3.589,-0.27,-1.20,0.05,-0.43,-2.02,1.49,-0.56,0.55,-1.42,0.00
3.59,-0.27,-1.20,0.05,-0.43,-2.02,1.49,-0.44,0.33,-1.36,0.00
3.591,-0.27,-1.20,0.05,-0.66,-2.16,1.58,-0.44,0.33,-1.36,0.00
3.597,-0.28,-1.19,0.05,-0.66,-2.16,1.58,-0.44,0.33,-1.36,0.00
3.599,-0.28,-1.19,0.05,-0.66,-2.16,1.58,-0.33,-0.00,-1.31,0.00
3.6,-0.28,-1.19,0.05,-0.92,-2.10,1.59,-0.33,-0.00,-1.31,0.00
3.612,-0.30,-1.16,0.03,-0.92,-2.10,1.59,-0.33,-0.00,-1.31,0.00
3.614,-0.30,-1.16,0.03,-0.92,-2.10,1.59,-0.23,-0.39,-1.26,0.00
3.615,-0.30,-1.16,0.03,-1.21,-1.77,1.42,-0.23,-0.39,-1.26,0.00
3.625,-0.31,-1.09,0.01,-1.21,-1.77,1.42,-0.23,-0.39,-1.26,0.00
3.626,-0.31,-1.09,0.01,-1.21,-1.77,1.42,-0.14,-0.77,-1.22,0.00
3.627,-0.31,-1.09,0.01,-1.44,-1.12,1.19,-0.14,-0.77,-1.22,0.00
3.638,-0.29,-1.02,-0.03,-1.44,-1.12,1.19,-0.14,-0.77,-1.22,0.00
3.639,-0.29,-1.02,-0.03,-1.44,-1.12,1.19,-0.06,-1.09,-1.19,0.00
3.641,-0.29,-1.02,-0.03,-1.40,-0.40,0.82,-0.06,-1.09,-1.19,0.00
3.641,-0.28,-0.94,-0.08,-1.40,-0.40,0.82,-0.06,-1.09,-1.19,0.00
3.642,-0.28,-0.94,-0.08,-1.40,-0.40,0.82,0.01,-1.30,-1.14,0.00
3.643,-0.28,-0.94,-0.08,-1.33,0.41,0.32,0.01,-1.30,-1.14,0.00
3.644,-0.25,-0.89,-0.12,-1.33,0.41,0.32,0.01,-1.30,-1.14,0.00
3.645,-0.25,-0.89,-0.12,-1.33,0.41,0.32,0.06,-1.38,-1.08,0.00
3.646,-0.25,-0.89,-0.12,-1.14,0.91,-0.10,0.06,-1.38,-1.08,0.00
3.656,-0.22,-0.86,-0.14,-1.14,0.91,-0.10,0.06,-1.38,-1.08,0.00
3.657,-0.22,-0.86,-0.14,-1.14,0.91,-0.10,0.10,-1.33,-0.99,0.00
3.658,-0.22,-0.86,-0.14,-0.92,1.24,-0.32,0.10,-1.33,-0.99,0.00
3.669,-0.20,-0.84,-0.14,-0.92,1.24,-0.32,0.10,-1.33,-0.99,0.00
3.671,-0.20,-0.84,-0.14,-0.92,1.24,-0.32,0.13,-1.16,-0.88,0.00
3.672,-0.20,-0.84,-0.14,-0.79,1.42,-0.36,0.13,-1.16,-0.88,0.00
3.677,-0.19,-0.83,-0.13,-0.79,1.42,-0.36,0.13,-1.16,-0.88,0.00
3.678,-0.19,-0.83,-0.13,-0.79,1.42,-0.36,0.14,-0.93,-0.78,0.00
3.679,-0.19,-0.83,-0.13,-0.79,1.57,-0.30,0.14,-0.93,-0.78,0.00
3.685,-0.19,-0.82,-0.11,-0.79,1.57,-0.30,0.14,-0.93,-0.78,0.00
3.686,-0.19,-0.82,-0.11,-0.79,1.57,-0.30,0.14,-0.68,-0.70,0.00
3.689,-0.19,-0.82,-0.11,-0.85,1.70,-0.16,0.14,-0.68,-0.70,0.00
3.695,-0.22,-0.79,-0.09,-0.85,1.70,-0.16,0.14,-0.68,-0.70,0.00
3.696,-0.22,-0.79,-0.09,-0.85,1.70,-0.16,0.14,-0.49,-0.66,0.00
3.697,-0.22,-0.79,-0.09,-1.21,1.99,0.08,0.14,-0.49,-0.66,0.00
3.708,-0.24,-0.76,-0.06,-1.21,1.99,0.08,0.14,-0.49,-0.66,0.00
3.709,-0.24,-0.76,-0.06,-1.21,1.99,0.08,0.13,-0.36,-0.65,0.00
3.71,-0.24,-0.76,-0.06,-1.50,2.29,0.30,0.13,-0.36,-0.65,0.00
3.729,-0.28,-0.73,-0.04,-1.50,2.29,0.30,0.13,-0.36,-0.65,0.00
3.731,-0.28,-0.73,-0.04,-1.50,2.29,0.30,0.12,-0.32,-0.66,0.00
3.731,-0.28,-0.73,-0.04,-1.89,2.61,0.48,0.12,-0.32,-0.66,0.00
3.732,-0.31,-0.69,-0.04,-1.89,2.61,0.48,0.12,-0.32,-0.66,0.00
3.733,-0.31,-0.69,-0.04,-1.89,2.61,0.48,0.12,-0.33,-0.67,0.00
3.735,-0.31,-0.69,-0.04,-2.28,2.99,0.50,0.12,-0.33,-0.67,0.00
3.736,-0.32,-0.67,-0.05,-2.28,2.99,0.50,0.12,-0.33,-0.67,0.00
3.737,-0.32,-0.67,-0.05,-2.28,2.99,0.50,0.11,-0.36,-0.66,0.00
3.737,-0.32,-0.67,-0.05,-2.47,3.23,0.41,0.11,-0.36,-0.66,0.00
3.745,-0.34,-0.65,-0.06,-2.47,3.23,0.41,0.11,-0.36,-0.66,0.00
3.746,-0.34,-0.65,-0.06,-2.47,3.23,0.41,0.10,-0.40,-0.61,0.00
3.747,-0.34,-0.65,-0.06,-2.71,3.35,0.26,0.10,-0.40,-0.61,0.00
3.755,-0.35,-0.64,-0.07,-2.71,3.35,0.26,0.10,-0.40,-0.61,0.00
3.757,-0.35,-0.64,-0.07,-2.71,3.35,0.26,0.09,-0.44,-0.56,0.00
3.757,-0.35,-0.64,-0.07,-2.82,3.46,0.16,0.09,-0.44,-0.56,0.00
3.767,-0.35,-0.63,-0.07,-2.82,3.46,0.16,0.09,-0.44,-0.56,0.00
3.769,-0.35,-0.63,-0.07,-2.82,3.46,0.16,0.08,-0.47,-0.49,0.00
3.77,-0.35,-0.63,-0.07,-2.92,3.59,0.17,0.08,-0.47,-0.49,0.00
3.775,-0.34,-0.62,-0.06,-2.92,3.59,0.17,0.08,-0.47,-0.49,0.00
3.776,-0.34,-0.62,-0.06,-2.92,3.59,0.17,0.08,-0.49,-0.41,0.00
3.777,-0.34,-0.62,-0.06,-2.81,3.68,0.23,0.08,-0.49,-0.41,0.00
3.786,-0.31,-0.63,-0.08,-2.81,3.68,0.23,0.08,-0.49,-0.41,0.00
3.787,-0.31,-0.63,-0.08,-2.81,3.68,0.23,0.10,-0.48,-0.34,0.00
3.788,-0.31,-0.63,-0.08,-2.59,3.57,0.02,0.10,-0.48,-0.34,0.00
3.796,-0.29,-0.64,-0.09,-2.59,3.57,0.02,0.10,-0.48,-0.34,0.00
3.797,-0.29,-0.64,-0.09,-2.59,3.57,0.02,0.12,-0.44,-0.28,0.00
3.797,-0.29,-0.64,-0.09,-2.39,3.52,-0.12,0.12,-0.44,-0.28,0.00
3.807,-0.27,-0.65,-0.11,-2.39,3.52,-0.12,0.12,-0.44,-0.28,0.00
3.808,-0.27,-0.65,-0.11,-2.39,3.52,-0.12,0.13,-0.36,-0.23,0.00
3.809,-0.27,-0.65,-0.11,-2.24,3.42,-0.34,0.13,-0.36,-0.23,0.00
3.824,-0.28,-0.66,-0.13,-2.24,3.42,-0.34,0.13,-0.36,-0.23,0.00
3.825,-0.28,-0.66,-0.13,-2.24,3.42,-0.34,0.13,-0.26,-0.18,0.00
3.827,-0.28,-0.66,-0.13,-2.32,3.32,-0.52,0.13,-0.26,-0.18,0.00
3.828,-0.30,-0.66,-0.13,-2.32,3.32,-0.52,0.13,-0.26,-0.18,0.00
3.829,-0.30,-0.66,-0.13,-2.32,3.32,-0.52,0.12,-0.16,-0.12,0.00
3.83,-0.30,-0.66,-0.13,-2.49,3.26,-0.55,0.12,-0.16,-0.12,0.00
3.844,-0.31,-0.68,-0.13,-2.49,3.26,-0.55,0.12,-0.16,-0.12,0.00
3.846,-0.31,-0.68,-0.13,-2.49,3.26,-0.55,0.11,-0.05,-0.05,0.00
3.846,-0.31,-0.68,-0.13,-2.63,3.07,-0.51,0.11,-0.05,-0.05,0.00
3.847,-0.34,-0.71,-0.12,-2.63,3.07,-0.51,0.11,-0.05,-0.05,0.00
3.848,-0.34,-0.71,-0.12,-2.63,3.07,-0.51,0.10,0.05,0.01,0.00
3.849,-0.34,-0.71,-0.12,-2.91,2.81,-0.48,0.10,0.05,0.01,0.00
3.857,-0.36,-0.73,-0.12,-2.91,2.81,-0.48,0.10,0.05,0.01,0.00
3.858,-0.36,-0.73,-0.12,-2.91,2.81,-0.48,0.10,0.10,0.07,0.00
3.859,-0.36,-0.73,-0.12,-3.09,2.58,-0.43,0.10,0.10,0.07,0.00
3.867,-0.39,-0.77,-0.12,-3.09,2.58,-0.43,0.10,0.10,0.07,0.00
3.868,-0.39,-0.77,-0.12,-3.09,2.58,-0.43,0.11,0.10,0.13,0.00
3.869,-0.39,-0.77,-0.12,-3.37,2.21,-0.43,0.11,0.10,0.13,0.00
3.877,-0.41,-0.81,-0.12,-3.37,2.21,-0.43,0.11,0.10,0.13,0.00
3.877,-0.41,-0.81,-0.12,-3.37,2.21,-0.43,0.12,0.08,0.20,0.00
3.878,-0.41,-0.81,-0.12,-3.53,1.83,-0.47,0.12,0.08,0.20,0.00
3.887,-0.42,-0.84,-0.12,-3.53,1.83,-0.47,0.12,0.08,0.20,0.00
3.888,-0.42,-0.84,-0.12,-3.53,1.83,-0.47,0.12,0.04,0.27,0.00
3.889,-0.42,-0.84,-0.12,-3.55,1.50,-0.49,0.12,0.04,0.27,0.00
3.901,-0.41,-0.87,-0.12,-3.55,1.50,-0.49,0.12,0.04,0.27,0.00
3.903,-0.41,-0.87,-0.12,-3.55,1.50,-0.49,0.10,0.01,0.33,0.00
3.904,-0.41,-0.87,-0.12,-3.46,1.20,-0.51,0.10,0.01,0.33,0.00
3.908,-0.40,-0.91,-0.12,-3.46,1.20,-0.51,0.10,0.01,0.33,0.00
3.909,-0.40,-0.91,-0.12,-3.46,1.20,-0.51,0.08,-0.03,0.38,0.00
3.91,-0.40,-0.91,-0.12,-3.28,0.89,-0.53,0.08,-0.03,0.38,0.00
3.918,-0.40,-0.94,-0.11,-3.28,0.89,-0.53,0.08,-0.03,0.38,0.00
3.919,-0.40,-0.94,-0.11,-3.28,0.89,-0.53,0.04,-0.07,0.42,0.00
3.92,-0.40,-0.94,-0.11,-3.20,0.55,-0.45,0.04,-0.07,0.42,0.00
3.928,-0.39,-1.02,-0.10,-3.20,0.55,-0.45,0.04,-0.07,0.42,0.00
3.929,-0.39,-1.02,-0.10,-3.20,0.55,-0.45,-0.01,-0.10,0.45,0.00
3.93,-0.39,-1.02,-0.10,-3.05,-0.22,-0.32,-0.01,-0.10,0.45,0.00
3.943,-0.37,-1.10,-0.08,-3.05,-0.22,-0.32,-0.01,-0.10,0.45,0.00
3.945,-0.37,-1.10,-0.08,-3.05,-0.22,-0.32,-0.05,-0.10,0.48,0.00
3.946,-0.37,-1.10,-0.08,-2.88,-1.07,-0.15,-0.05,-0.10,0.48,0.00
3.972,-0.36,-1.20,-0.08,-2.88,-1.07,-0.15,-0.05,-0.10,0.48,0.00
3.973,-0.36,-1.20,-0.08,-2.88,-1.07,-0.15,-0.07,-0.08,0.50,0.00
3.974,-0.36,-1.20,-0.08,-2.72,-2.04,-0.07,-0.07,-0.08,0.50,0.00
3.975,-0.36,-1.28,-0.07,-2.72,-2.04,-0.07,-0.07,-0.08,0.50,0.00
3.976,-0.36,-1.28,-0.07,-2.72,-2.04,-0.07,-0.07,-0.04,0.52,0.00
3.977,-0.36,-1.28,-0.07,-2.64,-2.84,0.02,-0.07,-0.04,0.52,0.00
3.978,-0.36,-1.34,-0.07,-2.64,-2.84,0.02,-0.07,-0.04,0.52,0.00
3.979,-0.36,-1.34,-0.07,-2.64,-2.84,0.02,-0.08,-0.01,0.56,0.00
3.98,-0.36,-1.34,-0.07,-2.54,-3.38,0.03,-0.08,-0.01,0.56,0.00
3.981,-0.35,-1.35,-0.06,-2.54,-3.38,0.03,-0.08,-0.01,0.56,0.00
3.982,-0.35,-1.35,-0.06,-2.54,-3.38,0.03,-0.06,0.01,0.61,0.00
3.983,-0.35,-1.35,-0.06,-2.41,-3.46,0.09,-0.06,0.01,0.61,0.00
3.988,-0.34,-1.32,-0.06,-2.41,-3.46,0.09,-0.06,0.01,0.61,0.00
3.99,-0.34,-1.32,-0.06,-2.41,-3.46,0.09,-0.03,-0.02,0.65,0.00
3.991,-0.34,-1.32,-0.06,-2.28,-3.21,0.09,-0.03,-0.02,0.65,0.00
3.998,-0.33,-1.32,-0.06,-2.28,-3.21,0.09,-0.03,-0.02,0.65,0.00
3.999,-0.33,-1.32,-0.06,-2.28,-3.21,0.09,0.03,-0.08,0.70,0.00
4.0,-0.33,-1.32,-0.06,-2.09,-3.21,0.07,0.03,-0.08,0.70,0.00
4.009,-0.31,-1.40,-0.11,-2.09,-3.21,0.07,0.03,-0.08,0.70,0.00
4.01,-0.31,-1.40,-0.11,-2.09,-3.21,0.07,0.11,-0.14,0.73,0.00
4.01,-0.31,-1.40,-0.11,-1.86,-3.98,-0.38,0.11,-0.14,0.73,0.00
4.027,-0.30,-1.52,-0.14,-1.86,-3.98,-0.38,0.11,-0.14,0.73,0.00
4.029,-0.30,-1.52,-0.14,-1.86,-3.98,-0.38,0.17,-0.16,0.76,0.00
4.03,-0.30,-1.52,-0.14,-1.63,-5.20,-0.71,0.17,-0.16,0.76,0.00
4.033,-0.29,-1.59,-0.15,-1.63,-5.20,-0.71,0.17,-0.16,0.76,0.00
4.034,-0.29,-1.59,-0.15,-1.63,-5.20,-0.71,0.22,-0.13,0.78,0.00
4.035,-0.29,-1.59,-0.15,-1.44,-5.90,-0.83,0.22,-0.13,0.78,0.00
4.056,-0.28,-1.54,-0.13,-1.44,-5.90,-0.83,0.22,-0.13,0.78,0.00
4.058,-0.28,-1.54,-0.13,-1.44,-5.90,-0.83,0.25,-0.08,0.78,0.00
4.059,-0.28,-1.54,-0.13,-1.29,-5.44,-0.65,0.25,-0.08,0.78,0.00
4.06,-0.30,-1.40,-0.10,-1.29,-5.44,-0.65,0.25,-0.08,0.78,0.00
4.061,-0.30,-1.40,-0.10,-1.29,-5.44,-0.65,0.29,-0.06,0.78,0.00
4.062,-0.30,-1.40,-0.10,-1.42,-4.06,-0.39,0.29,-0.06,0.78,0.00
4.063,-0.32,-1.26,-0.08,-1.42,-4.06,-0.39,0.29,-0.06,0.78,0.00
4.064,-0.32,-1.26,-0.08,-1.42,-4.06,-0.39,0.34,-0.10,0.82,0.00
4.066,-0.32,-1.26,-0.08,-1.54,-2.65,-0.19,0.34,-0.10,0.82,0.00
4.072,-0.34,-1.14,-0.06,-1.54,-2.65,-0.19,0.34,-0.10,0.82,0.00
4.073,-0.34,-1.14,-0.06,-1.54,-2.65,-0.19,0.41,-0.18,0.87,0.00
4.075,-0.34,-1.14,-0.06,-1.64,-1.52,-0.13,0.41,-0.18,0.87,0.00
4.08,-0.34,-1.05,-0.04,-1.64,-1.52,-0.13,0.41,-0.18,0.87,0.00
4.081,-0.34,-1.05,-0.04,-1.64,-1.52,-0.13,0.50,-0.26,0.95,0.00
4.082,-0.34,-1.05,-0.04,-1.59,-0.63,0.05,0.50,-0.26,0.95,0.00
4.09,-0.33,-0.98,-0.05,-1.59,-0.63,0.05,0.50,-0.26,0.95,0.00
4.092,-0.33,-0.98,-0.05,-1.59,-0.63,0.05,0.60,-0.37,1.05,0.00
4.093,-0.33,-0.98,-0.05,-1.33,-0.03,-0.14,0.60,-0.37,1.05,0.00
4.101,-0.30,-0.95,-0.07,-1.33,-0.03,-0.14,0.60,-0.37,1.05,0.00
4.103,-0.30,-0.95,-0.07,-1.33,-0.03,-0.14,0.70,-0.52,1.13,0.00
4.104,-0.30,-0.95,-0.07,-1.00,0.28,-0.41,0.70,-0.52,1.13,0.00
4.11,-0.26,-0.97,-0.11,-1.00,0.28,-0.41,0.70,-0.52,1.13,0.00
4.111,-0.26,-0.97,-0.11,-1.00,0.28,-0.41,0.79,-0.59,1.23,0.00
4.112,-0.26,-0.97,-0.11,-0.44,0.04,-0.81,0.79,-0.59,1.23,0.00
4.119,-0.22,-1.03,-0.11,-0.44,0.04,-0.81,0.79,-0.59,1.23,0.00
4.121,-0.22,-1.03,-0.11,-0.44,0.04,-0.81,0.85,-0.53,1.34,0.00
4.122,-0.22,-1.03,-0.11,0.08,-0.58,-0.98,0.85,-0.53,1.34,0.00
4.13,-0.18,-1.12,-0.10,0.08,-0.58,-0.98,0.85,-0.53,1.34,0.00
4.131,-0.18,-1.12,-0.10,0.08,-0.58,-0.98,0.87,-0.35,1.44,0.00
4.132,-0.18,-1.12,-0.10,0.59,-1.44,-0.92,0.87,-0.35,1.44,0.00
4.14,-0.17,-1.18,-0.10,0.59,-1.44,-0.92,0.87,-0.35,1.44,0.00
4.141,-0.17,-1.18,-0.10,0.59,-1.44,-0.92,0.85,-0.12,1.56,0.00
4.142,-0.17,-1.18,-0.10,0.89,-2.12,-1.03,0.85,-0.12,1.56,0.00
4.161,-0.18,-1.21,-0.07,0.89,-2.12,-1.03,0.85,-0.12,1.56,0.00
4.162,-0.18,-1.21,-0.07,0.89,-2.12,-1.03,0.81,0.13,1.69,0.00
4.164,-0.18,-1.21,-0.07,0.93,-2.44,-0.78,0.81,0.13,1.69,0.00
4.165,-0.20,-1.20,-0.04,0.93,-2.44,-0.78,0.81,0.13,1.69,0.00
4.166,-0.20,-1.20,-0.04,0.93,-2.44,-0.78,0.76,0.38,1.81,0.00
4.167,-0.20,-1.20,-0.04,0.92,-2.38,-0.52,0.76,0.38,1.81,0.00
4.195,-0.22,-1.18,0.02,0.92,-2.38,-0.52,0.76,0.38,1.81,0.00
4.197,-0.22,-1.18,0.02,0.92,-2.38,-0.52,0.70,0.53,1.91,0.00
4.198,-0.22,-1.18,0.02,0.86,-2.29,-0.06,0.70,0.53,1.91,0.00
4.199,-0.23,-1.18,0.06,0.86,-2.29,-0.06,0.70,0.53,1.91,0.00
4.2,-0.23,-1.18,0.06,0.86,-2.29,-0.06,0.66,0.57,1.98,0.00
4.201,-0.23,-1.18,0.06,0.97,-2.26,0.33,0.66,0.57,1.98,0.00
4.202,-0.23,-1.17,0.08,0.97,-2.26,0.33,0.66,0.57,1.98,0.00
4.204,-0.23,-1.17,0.08,0.97,-2.26,0.33,0.63,0.49,2.03,0.00
4.205,-0.23,-1.17,0.08,1.14,-2.31,0.45,0.63,0.49,2.03,0.00
4.206,-0.22,-1.19,0.09,1.14,-2.31,0.45,0.63,0.49,2.03,0.00
4.207,-0.22,-1.19,0.09,1.14,-2.31,0.45,0.62,0.33,2.05,0.00
4.208,-0.22,-1.19,0.09,1.44,-2.60,0.55,0.62,0.33,2.05,0.00
4.212,-0.20,-1.23,0.08,1.44,-2.60,0.55,0.62,0.33,2.05,0.00
4.214,-0.20,-1.23,0.08,1.44,-2.60,0.55,0.61,0.15,2.04,0.00
4.215,-0.20,-1.23,0.08,1.88,-3.02,0.40,0.61,0.15,2.04,0.00
4.225,-0.17,-1.24,0.07,1.88,-3.02,0.40,0.61,0.15,2.04,0.00
4.227,-0.17,-1.24,0.07,1.88,-3.02,0.40,0.62,-0.01,2.00,0.00
4.228,-0.17,-1.24,0.07,2.27,-3.22,0.24,0.62,-0.01,2.00,0.00
4.231,-0.17,-1.23,0.07,2.27,-3.22,0.24,0.62,-0.01,2.00,0.00
4.232,-0.17,-1.23,0.07,2.27,-3.22,0.24,0.63,-0.15,1.92,0.00
4.234,-0.17,-1.23,0.07,2.50,-3.18,0.17,0.63,-0.15,1.92,0.00
4.241,-0.17,-1.19,0.06,2.50,-3.18,0.17,0.63,-0.15,1.92,0.00
4.242,-0.17,-1.19,0.06,2.50,-3.18,0.17,0.63,-0.27,1.84,0.00
4.243,-0.17,-1.19,0.06,2.66,-2.85,-0.05,0.63,-0.27,1.84,0.00
4.263,-0.17,-1.14,0.05,2.66,-2.85,-0.05,0.63,-0.27,1.84,0.00
4.264,-0.17,-1.14,0.05,2.66,-2.85,-0.05,0.64,-0.37,1.76,0.00
4.267,-0.17,-1.14,0.05,2.75,-2.45,-0.22,0.64,-0.37,1.76,0.00
4.269,-0.17,-1.07,0.04,2.75,-2.45,-0.22,0.64,-0.37,1.76,0.00
4.27,-0.17,-1.07,0.04,2.75,-2.45,-0.22,0.66,-0.44,1.69,0.00
4.271,-0.17,-1.07,0.04,2.95,-1.89,-0.40,0.66,-0.44,1.69,0.00
4.289,-0.16,-1.01,0.02,2.95,-1.89,-0.40,0.66,-0.44,1.69,0.00
4.292,-0.16,-1.01,0.02,2.95,-1.89,-0.40,0.68,-0.48,1.61,0.00
4.295,-0.16,-1.01,0.02,3.16,-1.40,-0.66,0.68,-0.48,1.61,0.00
4.296,-0.15,-0.96,0.00,3.16,-1.40,-0.66,0.68,-0.48,1.61,0.00
4.297,-0.15,-0.96,0.00,3.16,-1.40,-0.66,0.69,-0.49,1.53,0.00
4.298,-0.15,-0.96,0.00,3.42,-0.90,-0.89,0.69,-0.49,1.53,0.00
4.299,-0.14,-0.90,-0.02,3.42,-0.90,-0.89,0.69,-0.49,1.53,0.00
4.3,-0.14,-0.90,-0.02,3.42,-0.90,-0.89,0.71,-0.48,1.46,0.00
4.301,-0.14,-0.90,-0.02,3.65,-0.43,-1.15,0.71,-0.48,1.46,0.00
4.305,-0.12,-0.84,-0.03,3.65,-0.43,-1.15,0.71,-0.48,1.46,0.00
4.306,-0.12,-0.84,-0.03,3.65,-0.43,-1.15,0.72,-0.46,1.39,0.00
4.307,-0.12,-0.84,-0.03,3.90,0.09,-1.37,0.72,-0.46,1.39,0.00
4.311,-0.12,-0.79,-0.04,3.90,0.09,-1.37,0.72,-0.46,1.39,0.00
4.311,-0.12,-0.79,-0.04,3.90,0.09,-1.37,0.72,-0.40,1.32,0.00
4.312,-0.12,-0.79,-0.04,4.00,0.52,-1.57,0.72,-0.40,1.32,0.00
4.321,-0.12,-0.73,-0.05,4.00,0.52,-1.57,0.72,-0.40,1.32,0.00
4.322,-0.12,-0.73,-0.05,4.00,0.52,-1.57,0.71,-0.32,1.25,0.00
4.323,-0.12,-0.73,-0.05,4.15,0.95,-1.71,0.71,-0.32,1.25,0.00
4.331,-0.11,-0.70,-0.04,4.15,0.95,-1.71,0.71,-0.32,1.25,0.00
4.332,-0.11,-0.70,-0.04,4.15,0.95,-1.71,0.70,-0.22,1.19,0.00
4.333,-0.11,-0.70,-0.04,4.33,1.25,-1.70,0.70,-0.22,1.19,0.00
4.34,-0.11,-0.66,-0.03,4.33,1.25,-1.70,0.70,-0.22,1.19,0.00
4.341,-0.11,-0.66,-0.03,4.33,1.25,-1.70,0.69,-0.12,1.14,0.00
4.342,-0.11,-0.66,-0.03,4.40,1.55,-1.66,0.69,-0.12,1.14,0.00
4.358,-0.12,-0.64,-0.01,4.40,1.55,-1.66,0.69,-0.12,1.14,0.00
4.359,-0.12,-0.64,-0.01,4.40,1.55,-1.66,0.68,-0.00,1.09,0.00
4.36,-0.12,-0.64,-0.01,4.38,1.70,-1.52,0.68,-0.00,1.09,0.00
4.362,-0.13,-0.61,0.00,4.38,1.70,-1.52,0.68,-0.00,1.09,0.00
4.364,-0.13,-0.61,0.00,4.38,1.70,-1.52,0.67,0.12,1.05,0.00
4.364,-0.13,-0.61,0.00,4.41,1.85,-1.42,0.67,0.12,1.05,0.00
4.38,-0.15,-0.60,0.03,4.41,1.85,-1.42,0.67,0.12,1.05,0.00
4.381,-0.15,-0.60,0.03,4.41,1.85,-1.42,0.67,0.23,1.02,0.00
4.382,-0.15,-0.60,0.03,4.29,1.95,-1.24,0.67,0.23,1.02,0.00
4.383,-0.15,-0.60,0.03,4.29,1.95,-1.24,0.67,0.23,1.02,0.00
4.384,-0.15,-0.60,0.03,4.29,1.95,-1.24,0.66,0.32,0.99,0.00
4.385,-0.15,-0.60,0.03,4.32,1.89,-1.25,0.66,0.32,0.99,0.00
4.391,-0.17,-0.59,0.03,4.32,1.89,-1.25,0.66,0.32,0.99,0.00
4.393,-0.17,-0.59,0.03,4.32,1.89,-1.25,0.64,0.40,0.94,0.00
4.394,-0.17,-0.59,0.03,4.27,1.91,-1.27,0.64,0.40,0.94,0.00
4.402,-0.17,-0.58,0.04,4.27,1.91,-1.27,0.64,0.40,0.94,0.00
4.403,-0.17,-0.58,0.04,4.27,1.91,-1.27,0.61,0.46,0.87,0.00
4.404,-0.17,-0.58,0.04,4.33,1.89,-1.16,0.61,0.46,0.87,0.00
4.412,-0.19,-0.58,0.07,4.33,1.89,-1.16,0.61,0.46,0.87,0.00
4.413,-0.19,-0.58,0.07,4.33,1.89,-1.16,0.59,0.50,0.79,0.00
4.414,-0.19,-0.58,0.07,4.21,1.88,-0.92,0.59,0.50,0.79,0.00
4.421,-0.21,-0.57,0.11,4.21,1.88,-0.92,0.59,0.50,0.79,0.00
4.423,-0.21,-0.57,0.11,4.21,1.88,-0.92,0.56,0.52,0.70,0.00
4.423,-0.21,-0.57,0.11,4.06,1.87,-0.54,0.56,0.52,0.70,0.00
4.432,-0.24,-0.59,0.13,4.06,1.87,-0.54,0.56,0.52,0.70,0.00
4.433,-0.24,-0.59,0.13,4.06,1.87,-0.54,0.54,0.52,0.63,0.00
4.435,-0.24,-0.59,0.13,3.79,1.70,-0.39,0.54,0.52,0.63,0.00
4.443,-0.27,-0.60,0.14,3.79,1.70,-0.39,0.54,0.52,0.63,0.00
4.445,-0.27,-0.60,0.14,3.79,1.70,-0.39,0.53,0.50,0.56,0.00
4.445,-0.27,-0.60,0.14,3.61,1.52,-0.25,0.53,0.50,0.56,0.00
4.461,-0.28,-0.62,0.15,3.61,1.52,-0.25,0.53,0.50,0.56,0.00
4.463,-0.28,-0.62,0.15,3.61,1.52,-0.25,0.51,0.46,0.50,0.00
4.464,-0.28,-0.62,0.15,3.50,1.31,-0.20,0.51,0.46,0.50,0.00
4.465,-0.29,-0.63,0.14,3.50,1.31,-0.20,0.51,0.46,0.50,0.00
4.466,-0.29,-0.63,0.14,3.50,1.31,-0.20,0.48,0.41,0.43,0.00
4.467,-0.29,-0.63,0.14,3.50,1.13,-0.27,0.48,0.41,0.43,0.00
4.489,-0.28,-0.64,0.14,3.50,1.13,-0.27,0.48,0.41,0.43,0.00
4.491,-0.28,-0.64,0.14,3.50,1.13,-0.27,0.45,0.35,0.34,0.00
4.492,-0.28,-0.64,0.14,3.60,1.00,-0.27,0.45,0.35,0.34,0.00
4.493,-0.26,-0.65,0.13,3.60,1.00,-0.27,0.45,0.35,0.34,0.00
4.494,-0.26,-0.65,0.13,3.60,1.00,-0.27,0.41,0.30,0.23,0.00
4.495,-0.26,-0.65,0.13,3.77,0.88,-0.37,0.41,0.30,0.23,0.00
4.495,-0.26,-0.67,0.13,3.77,0.88,-0.37,0.41,0.30,0.23,0.00
4.496,-0.26,-0.67,0.13,3.77,0.88,-0.37,0.37,0.25,0.12,0.00
4.497,-0.26,-0.67,0.13,3.86,0.73,-0.45,0.37,0.25,0.12,0.00
4.504,-0.26,-0.69,0.11,3.86,0.73,-0.45,0.37,0.25,0.12,0.00
4.506,-0.26,-0.69,0.11,3.86,0.73,-0.45,0.30,0.21,-0.01,0.00
4.507,-0.26,-0.69,0.11,3.80,0.53,-0.57,0.30,0.21,-0.01,0.00
4.513,-0.26,-0.71,0.11,3.80,0.53,-0.57,0.30,0.21,-0.01,0.00
4.515,-0.26,-0.71,0.11,3.80,0.53,-0.57,0.22,0.20,-0.13,0.00
4.516,-0.26,-0.71,0.11,3.80,0.30,-0.65,0.22,0.20,-0.13,0.00
4.524,-0.27,-0.75,0.08,3.80,0.30,-0.65,0.22,0.20,-0.13,0.00
4.525,-0.27,-0.75,0.08,3.80,0.30,-0.65,0.12,0.24,-0.25,0.00
4.526,-0.27,-0.75,0.08,3.66,-0.05,-0.84,0.12,0.24,-0.25,0.00
4.536,-0.28,-0.81,0.08,3.66,-0.05,-0.84,0.12,0.24,-0.25,0.00
4.537,-0.28,-0.81,0.08,3.66,-0.05,-0.84,0.01,0.33,-0.38,0.00
4.538,-0.28,-0.81,0.08,3.53,-0.59,-0.87,0.01,0.33,-0.38,0.00
4.543,-0.29,-0.88,0.07,3.53,-0.59,-0.87,0.01,0.33,-0.38,0.00
4.544,-0.29,-0.88,0.07,3.53,-0.59,-0.87,-0.10,0.46,-0.53,0.00
4.545,-0.29,-0.88,0.07,3.40,-1.20,-0.95,-0.10,0.46,-0.53,0.00
4.557,-0.31,-0.95,0.04,3.40,-1.20,-0.95,-0.10,0.46,-0.53,0.00
4.558,-0.31,-0.95,0.04,3.40,-1.20,-0.95,-0.21,0.62,-0.69,0.00
4.559,-0.31,-0.95,0.04,3.19,-1.87,-1.17,-0.21,0.62,-0.69,0.00
4.564,-0.34,-1.02,0.03,3.19,-1.87,-1.17,-0.21,0.62,-0.69,0.00
4.565,-0.34,-1.02,0.03,3.19,-1.87,-1.17,-0.33,0.77,-0.86,0.00
4.566,-0.34,-1.02,0.03,2.87,-2.53,-1.16,-0.33,0.77,-0.86,0.00
4.578,-0.37,-1.08,0.04,2.87,-2.53,-1.16,-0.33,0.77,-0.86,0.00
4.58,-0.37,-1.08,0.04,2.87,-2.53,-1.16,-0.44,0.88,-1.04,0.00
4.581,-0.37,-1.08,0.04,2.49,-3.04,-1.02,-0.44,0.88,-1.04,0.00
4.609,-0.40,-1.12,0.03,2.49,-3.04,-1.02,-0.44,0.88,-1.04,0.00
4.61,-0.40,-1.12,0.03,2.49,-3.04,-1.02,-0.56,0.92,-1.22,0.00
4.612,-0.40,-1.12,0.03,2.12,-3.38,-0.96,-0.56,0.92,-1.22,0.00
4.612,-0.43,-1.15,0.03,2.12,-3.38,-0.96,-0.56,0.92,-1.22,0.00
4.614,-0.43,-1.15,0.03,2.12,-3.38,-0.96,-0.66,0.88,-1.40,0.00
4.615,-0.43,-1.15,0.03,1.71,-3.57,-0.88,-0.66,0.88,-1.40,0.00
4.616,-0.46,-1.18,0.02,1.71,-3.57,-0.88,-0.66,0.88,-1.40,0.00
4.617,-0.46,-1.18,0.02,1.71,-3.57,-0.88,-0.77,0.78,-1.58,0.00
4.618,-0.46,-1.18,0.02,1.33,-3.71,-0.86,-0.77,0.78,-1.58,0.00
4.619,-0.47,-1.21,0.00,1.33,-3.71,-0.86,-0.77,0.78,-1.58,0.00
4.621,-0.47,-1.21,0.00,1.33,-3.71,-0.86,-0.86,0.66,-1.76,0.00
4.622,-0.47,-1.21,0.00,1.11,-3.90,-0.97,-0.86,0.66,-1.76,0.00
4.625,-0.44,-1.24,-0.01,1.11,-3.90,-0.97,-0.86,0.66,-1.76,0.00
4.627,-0.44,-1.24,-0.01,1.11,-3.90,-0.97,-0.94,0.54,-1.93,0.00
4.628,-0.44,-1.24,-0.01,1.18,-4.11,-0.97,-0.94,0.54,-1.93,0.00
4.638,-0.42,-1.30,-0.03,1.18,-4.11,-0.97,-0.94,0.54,-1.93,0.00
4.639,-0.42,-1.30,-0.03,1.18,-4.11,-0.97,-1.02,0.44,-2.08,0.00
4.64,-0.42,-1.30,-0.03,1.22,-4.52,-1.06,-1.02,0.44,-2.08,0.00
4.645,-0.39,-1.36,-0.05,1.22,-4.52,-1.06,-1.02,0.44,-2.08,0.00
4.646,-0.39,-1.36,-0.05,1.22,-4.52,-1.06,-1.10,0.34,-2.22,0.00
4.647,-0.39,-1.36,-0.05,1.39,-5.02,-1.13,-1.10,0.34,-2.22,0.00
4.655,-0.35,-1.42,-0.05,1.39,-5.02,-1.13,-1.10,0.34,-2.22,0.00
4.657,-0.35,-1.42,-0.05,1.39,-5.02,-1.13,-1.18,0.23,-2.33,0.00
4.658,-0.35,-1.42,-0.05,1.57,-5.50,-1.00,-1.18,0.23,-2.33,0.00
4.664,-0.32,-1.47,-0.04,1.57,-5.50,-1.00,-1.18,0.23,-2.33,0.00
4.665,-0.32,-1.47,-0.04,1.57,-5.50,-1.00,-1.25,0.12,-2.44,0.00
4.666,-0.32,-1.47,-0.04,1.65,-5.82,-0.82,-1.25,0.12,-2.44,0.00
4.675,-0.33,-1.45,-0.01,1.65,-5.82,-0.82,-1.25,0.12,-2.44,0.00
4.676,-0.33,-1.45,-0.01,1.65,-5.82,-0.82,-1.27,-0.00,-2.55,0.00
4.677,-0.33,-1.45,-0.01,1.31,-5.56,-0.37,-1.27,-0.00,-2.55,0.00
4.695,-0.37,-1.38,0.02,1.31,-5.56,-0.37,-1.27,-0.00,-2.55,0.00
4.696,-0.37,-1.38,0.02,1.31,-5.56,-0.37,-1.23,-0.12,-2.63,0.00
4.697,-0.37,-1.38,0.02,0.69,-4.70,-0.03,-1.23,-0.12,-2.63,0.00
4.698,-0.40,-1.27,0.02,0.69,-4.70,-0.03,-1.23,-0.12,-2.63,0.00
4.699,-0.40,-1.27,0.02,0.69,-4.70,-0.03,-1.15,-0.25,-2.65,0.00
4.702,-0.40,-1.27,0.02,0.14,-3.55,0.03,-1.15,-0.25,-2.65,0.00
4.727,-0.42,-1.16,0.01,0.14,-3.55,0.03,-1.15,-0.25,-2.65,0.00
4.728,-0.42,-1.16,0.01,0.14,-3.55,0.03,-1.04,-0.40,-2.59,0.00
4.729,-0.42,-1.16,0.01,-0.28,-2.30,0.04,-1.04,-0.40,-2.59,0.00
4.73,-0.42,-1.04,-0.02,-0.28,-2.30,0.04,-1.04,-0.40,-2.59,0.00
4.731,-0.42,-1.04,-0.02,-0.28,-2.30,0.04,-0.93,-0.56,-2.48,0.00
4.732,-0.42,-1.04,-0.02,-0.49,-1.12,-0.15,-0.93,-0.56,-2.48,0.00
4.733,-0.40,-0.96,-0.06,-0.49,-1.12,-0.15,-0.93,-0.56,-2.48,0.00
4.734,-0.40,-0.96,-0.06,-0.49,-1.12,-0.15,-0.81,-0.71,-2.33,0.00
4.736,-0.40,-0.96,-0.06,-0.51,-0.18,-0.53,-0.81,-0.71,-2.33,0.00
4.737,-0.36,-0.94,-0.12,-0.51,-0.18,-0.53,-0.81,-0.71,-2.33,0.00
4.738,-0.36,-0.94,-0.12,-0.51,-0.18,-0.53,-0.70,-0.81,-2.15,0.00
4.739,-0.36,-0.94,-0.12,-0.33,0.05,-1.09,-0.70,-0.81,-2.15,0.00
4.745,-0.30,-1.01,-0.18,-0.33,0.05,-1.09,-0.70,-0.81,-2.15,0.00
4.747,-0.30,-1.01,-0.18,-0.33,0.05,-1.09,-0.63,-0.78,-1.94,0.00
4.747,-0.30,-1.01,-0.18,0.08,-0.53,-1.62,-0.63,-0.78,-1.94,0.00
4.757,-0.24,-1.12,-0.21,0.08,-0.53,-1.62,-0.63,-0.78,-1.94,0.00
4.758,-0.24,-1.12,-0.21,0.08,-0.53,-1.62,-0.61,-0.60,-1.73,0.00
4.759,-0.24,-1.12,-0.21,0.53,-1.58,-1.88,-0.61,-0.60,-1.73,0.00
4.765,-0.20,-1.21,-0.19,0.53,-1.58,-1.88,-0.61,-0.60,-1.73,0.00
4.766,-0.20,-1.21,-0.19,0.53,-1.58,-1.88,-0.64,-0.29,-1.53,0.00
4.767,-0.20,-1.21,-0.19,0.79,-2.44,-1.62,-0.64,-0.29,-1.53,0.00
4.775,-0.21,-1.25,-0.14,0.79,-2.44,-1.62,-0.64,-0.29,-1.53,0.00
4.776,-0.21,-1.25,-0.14,0.79,-2.44,-1.62,-0.66,0.06,-1.35,0.00
4.777,-0.21,-1.25,-0.14,0.52,-2.78,-1.08,-0.66,0.06,-1.35,0.00
4.792,-0.25,-1.22,-0.08,0.52,-2.78,-1.08,-0.66,0.06,-1.35,0.00
4.793,-0.25,-1.22,-0.08,0.52,-2.78,-1.08,-0.65,0.32,-1.19,0.00
4.794,-0.25,-1.22,-0.08,0.01,-2.43,-0.44,-0.65,0.32,-1.19,0.00
4.796,-0.30,-1.18,-0.03,0.01,-2.43,-0.44,-0.65,0.32,-1.19,0.00
4.797,-0.30,-1.18,-0.03,0.01,-2.43,-0.44,-0.59,0.43,-1.05,0.00
4.798,-0.30,-1.18,-0.03,-0.53,-2.08,0.16,-0.59,0.43,-1.05,0.00
4.817,-0.34,-1.17,0.02,-0.53,-2.08,0.16,-0.59,0.43,-1.05,0.00
4.818,-0.34,-1.17,0.02,-0.53,-2.08,0.16,-0.51,0.39,-0.94,0.00
4.819,-0.34,-1.17,0.02,-1.03,-1.91,0.71,-0.51,0.39,-0.94,0.00
4.82,-0.36,-1.14,0.06,-1.03,-1.91,0.71,-0.51,0.39,-0.94,0.00
4.821,-0.36,-1.14,0.06,-1.03,-1.91,0.71,-0.42,0.21,-0.88,0.00
4.822,-0.36,-1.14,0.06,-1.29,-1.59,1.13,-0.42,0.21,-0.88,0.00
4.826,-0.37,-1.10,0.06,-1.29,-1.59,1.13,-0.42,0.21,-0.88,0.00
4.827,-0.37,-1.10,0.06,-1.29,-1.59,1.13,-0.34,-0.09,-0.84,0.00
4.828,-0.37,-1.10,0.06,-1.51,-1.24,1.13,-0.34,-0.09,-0.84,0.00
4.836,-0.37,-1.05,0.05,-1.51,-1.24,1.13,-0.34,-0.09,-0.84,0.00
4.839,-0.37,-1.05,0.05,-1.51,-1.24,1.13,-0.27,-0.46,-0.81,0.00
4.839,-0.37,-1.05,0.05,-1.63,-0.68,1.05,-0.27,-0.46,-0.81,0.00
4.847,-0.37,-0.98,0.01,-1.63,-0.68,1.05,-0.27,-0.46,-0.81,0.00
4.847,-0.37,-0.98,0.01,-1.63,-0.68,1.05,-0.22,-0.82,-0.78,0.00
4.848,-0.37,-0.98,0.01,-1.68,0.02,0.71,-0.22,-0.82,-0.78,0.00
4.856,-0.34,-0.90,-0.05,-1.68,0.02,0.71,-0.22,-0.82,-0.78,0.00
4.857,-0.34,-0.90,-0.05,-1.68,0.02,0.71,-0.17,-1.09,-0.74,0.00
4.858,-0.34,-0.90,-0.05,-1.44,0.75,0.13,-0.17,-1.09,-0.74,0.00
4.866,-0.31,-0.85,-0.09,-1.44,0.75,0.13,-0.17,-1.09,-0.74,0.00
4.867,-0.31,-0.85,-0.09,-1.44,0.75,0.13,-0.14,-1.23,-0.68,0.00
4.868,-0.31,-0.85,-0.09,-1.16,1.31,-0.35,-0.14,-1.23,-0.68,0.00
4.876,-0.26,-0.79,-0.10,-1.16,1.31,-0.35,-0.14,-1.23,-0.68,0.00
4.878,-0.26,-0.79,-0.10,-1.16,1.31,-0.35,-0.14,-1.25,-0.61,0.00
4.878,-0.26,-0.79,-0.10,-0.77,1.87,-0.46,-0.14,-1.25,-0.61,0.00
4.887,-0.22,-0.75,-0.12,-0.77,1.87,-0.46,-0.14,-1.25,-0.61,0.00
4.889,-0.22,-0.75,-0.12,-0.77,1.87,-0.46,-0.15,-1.17,-0.56,0.00
4.89,-0.22,-0.75,-0.12,-0.41,2.26,-0.65,-0.15,-1.17,-0.56,0.00
4.897,-0.21,-0.71,-0.12,-0.41,2.26,-0.65,-0.15,-1.17,-0.56,0.00
4.898,-0.21,-0.71,-0.12,-0.41,2.26,-0.65,-0.18,-1.03,-0.50,0.00
4.898,-0.21,-0.71,-0.12,-0.33,2.67,-0.57,-0.18,-1.03,-0.50,0.00
4.908,-0.21,-0.67,-0.10,-0.33,2.67,-0.57,-0.18,-1.03,-0.50,0.00
4.909,-0.21,-0.67,-0.10,-0.33,2.67,-0.57,-0.22,-0.85,-0.46,0.00
4.91,-0.21,-0.67,-0.10,-0.39,3.08,-0.43,-0.22,-0.85,-0.46,0.00
4.917,-0.21,-0.64,-0.08,-0.39,3.08,-0.43,-0.22,-0.85,-0.46,0.00
4.918,-0.21,-0.64,-0.08,-0.39,3.08,-0.43,-0.26,-0.67,-0.42,0.00
4.919,-0.21,-0.64,-0.08,-0.48,3.37,-0.21,-0.26,-0.67,-0.42,0.00
4.932,-0.23,-0.62,-0.06,-0.48,3.37,-0.21,-0.26,-0.67,-0.42,0.00
4.933,-0.23,-0.62,-0.06,-0.48,3.37,-0.21,-0.30,-0.50,-0.39,0.00
4.934,-0.23,-0.62,-0.06,-0.64,3.62,0.06,-0.30,-0.50,-0.39,0.00
4.963,-0.24,-0.60,-0.04,-0.64,3.62,0.06,-0.30,-0.50,-0.39,0.00
4.965,-0.24,-0.60,-0.04,-0.64,3.62,0.06,-0.35,-0.35,-0.37,0.00
4.966,-0.24,-0.60,-0.04,-0.84,3.77,0.28,-0.35,-0.35,-0.37,0.00
4.967,-0.26,-0.59,-0.01,-0.84,3.77,0.28,-0.35,-0.35,-0.37,0.00
4.968,-0.26,-0.59,-0.01,-0.84,3.77,0.28,-0.38,-0.24,-0.37,0.00
4.97,-0.26,-0.59,-0.01,-1.01,3.90,0.55,-0.38,-0.24,-0.37,0.00
4.971,-0.25,-0.60,0.02,-1.01,3.90,0.55,-0.38,-0.24,-0.37,0.00
4.972,-0.25,-0.60,0.02,-1.01,3.90,0.55,-0.40,-0.14,-0.37,0.00
4.973,-0.25,-0.60,0.02,-0.98,3.84,0.88,-0.40,-0.14,-0.37,0.00
4.974,-0.25,-0.61,0.03,-0.98,3.84,0.88,-0.40,-0.14,-0.37,0.00
4.975,-0.25,-0.61,0.03,-0.98,3.84,0.88,-0.42,-0.06,-0.39,0.00
4.976,-0.25,-0.61,0.03,-1.00,3.70,1.01,-0.42,-0.06,-0.39,0.00
4.977,-0.25,-0.63,0.03,-1.00,3.70,1.01,-0.42,-0.06,-0.39,0.00
4.978,-0.25,-0.63,0.03,-1.00,3.70,1.01,-0.44,-0.01,-0.42,0.00
4.979,-0.25,-0.63,0.03,-1.07,3.53,1.05,-0.44,-0.01,-0.42,0.00
4.997,-0.26,-0.64,0.02,-1.07,3.53,1.05,-0.44,-0.01,-0.42,0.00
4.998,-0.26,-0.64,0.02,-1.07,3.53,1.05,-0.45,0.01,-0.45,0.00
4.999,-0.26,-0.64,0.02,-1.23,3.39,0.99,-0.45,0.01,-0.45,0.00
5.024,-0.27,-0.66,0.00,-1.23,3.39,0.99,-0.45,0.01,-0.45,0.00
5.025,-0.27,-0.66,0.00,-1.23,3.39,0.99,-0.47,-0.00,-0.46,0.00
5.026,-0.27,-0.66,0.00,-1.38,3.18,0.91,-0.47,-0.00,-0.46,0.00
5.027,-0.28,-0.68,-0.01,-1.38,3.18,0.91,-0.47,-0.00,-0.46,0.00
5.028,-0.28,-0.68,-0.01,-1.38,3.18,0.91,-0.48,-0.02,-0.45,0.00
5.029,-0.28,-0.68,-0.01,-1.43,2.97,0.83,-0.48,-0.02,-0.45,0.00
5.029,-0.27,-0.70,-0.03,-1.43,2.97,0.83,-0.48,-0.02,-0.45,0.00
5.03,-0.27,-0.70,-0.03,-1.43,2.97,0.83,-0.48,-0.02,-0.43,0.00
5.031,-0.27,-0.70,-0.03,-1.45,2.78,0.71,-0.48,-0.02,-0.43,0.00
5.031,-0.27,-0.73,-0.04,-1.45,2.78,0.71,-0.48,-0.02,-0.43,0.00
5.032,-0.27,-0.73,-0.04,-1.45,2.78,0.71,-0.48,-0.01,-0.40,0.00
5.032,-0.27,-0.73,-0.04,-1.46,2.53,0.64,-0.48,-0.01,-0.40,0.00
5.039,-0.27,-0.75,-0.05,-1.46,2.53,0.64,-0.48,-0.01,-0.40,0.00
5.04,-0.27,-0.75,-0.05,-1.46,2.53,0.64,-0.46,0.01,-0.37,0.00
5.041,-0.27,-0.75,-0.05,-1.50,2.38,0.61,-0.46,0.01,-0.37,0.00
5.048,-0.28,-0.76,-0.05,-1.50,2.38,0.61,-0.46,0.01,-0.37,0.00
5.048,-0.28,-0.76,-0.05,-1.50,2.38,0.61,-0.44,0.04,-0.33,0.00
5.049,-0.28,-0.76,-0.05,-1.60,2.21,0.61,-0.44,0.04,-0.33,0.00
5.058,-0.28,-0.78,-0.05,-1.60,2.21,0.61,-0.44,0.04,-0.33,0.00
5.059,-0.28,-0.78,-0.05,-1.60,2.21,0.61,-0.41,0.07,-0.27,0.00
5.06,-0.28,-0.78,-0.05,-1.67,2.00,0.65,-0.41,0.07,-0.27,0.00
5.068,-0.28,-0.82,-0.06,-1.67,2.00,0.65,-0.41,0.07,-0.27,0.00
5.069,-0.28,-0.82,-0.06,-1.67,2.00,0.65,-0.37,0.11,-0.22,0.00
5.07,-0.28,-0.82,-0.06,-1.65,1.68,0.55,-0.37,0.11,-0.22,0.00
5.079,-0.28,-0.86,-0.07,-1.65,1.68,0.55,-0.37,0.11,-0.22,0.00
5.08,-0.28,-0.86,-0.07,-1.65,1.68,0.55,-0.32,0.14,-0.17,0.00
5.081,-0.28,-0.86,-0.07,-1.65,1.28,0.56,-0.32,0.14,-0.17,0.00
5.088,-0.29,-0.90,-0.08,-1.65,1.28,0.56,-0.32,0.14,-0.17,0.00
5.09,-0.29,-0.90,-0.08,-1.65,1.28,0.56,-0.27,0.17,-0.12,0.00
5.091,-0.29,-0.90,-0.08,-1.79,0.88,0.44,-0.27,0.17,-0.12,0.00
5.098,-0.31,-0.93,-0.09,-1.79,0.88,0.44,-0.27,0.17,-0.12,0.00
5.1,-0.31,-0.93,-0.09,-1.79,0.88,0.44,-0.21,0.17,-0.08,0.00
5.101,-0.31,-0.93,-0.09,-1.97,0.53,0.40,-0.21,0.17,-0.08,0.00
5.109,-0.33,-0.96,-0.09,-1.97,0.53,0.40,-0.21,0.17,-0.08,0.00
5.11,-0.33,-0.96,-0.09,-1.97,0.53,0.40,-0.15,0.14,-0.04,0.00
5.111,-0.33,-0.96,-0.09,-2.18,0.29,0.39,-0.15,0.14,-0.04,0.00
5.13,-0.34,-0.96,-0.10,-2.18,0.29,0.39,-0.15,0.14,-0.04,0.00
5.131,-0.34,-0.96,-0.10,-2.18,0.29,0.39,-0.08,0.09,0.01,0.00
5.132,-0.34,-0.96,-0.10,-2.28,0.27,0.31,-0.08,0.09,0.01,0.00
5.133,-0.35,-0.97,-0.10,-2.28,0.27,0.31,-0.08,0.09,0.01,0.00
5.134,-0.35,-0.97,-0.10,-2.28,0.27,0.31,-0.01,0.00,0.07,0.00
5.135,-0.35,-0.97,-0.10,-2.39,0.19,0.25,-0.01,0.00,0.07,0.00
5.165,-0.35,-0.99,-0.11,-2.39,0.19,0.25,-0.01,0.00,0.07,0.00
5.167,-0.35,-0.99,-0.11,-2.39,0.19,0.25,0.05,-0.08,0.12,0.00
5.168,-0.35,-0.99,-0.11,-2.33,0.01,0.17,0.05,-0.08,0.12,0.00
5.169,-0.34,-1.02,-0.13,-2.33,0.01,0.17,0.05,-0.08,0.12,0.00
5.17,-0.34,-1.02,-0.13,-2.33,0.01,0.17,0.10,-0.14,0.17,0.00
5.171,-0.34,-1.02,-0.13,-2.22,-0.35,0.02,0.10,-0.14,0.17,0.00
5.173,-0.31,-1.09,-0.13,-2.22,-0.35,0.02,0.10,-0.14,0.17,0.00
5.174,-0.31,-1.09,-0.13,-2.22,-0.35,0.02,0.12,-0.15,0.22,0.00
5.175,-0.31,-1.09,-0.13,-1.88,-1.05,-0.05,0.12,-0.15,0.22,0.00
5.176,-0.29,-1.17,-0.15,-1.88,-1.05,-0.05,0.12,-0.15,0.22,0.00
5.177,-0.29,-1.17,-0.15,-1.88,-1.05,-0.05,0.11,-0.11,0.25,0.00
5.178,-0.29,-1.17,-0.15,-1.68,-1.82,-0.23,0.11,-0.11,0.25,0.00
5.179,-0.28,-1.25,-0.15,-1.68,-1.82,-0.23,0.11,-0.11,0.25,0.00
5.18,-0.28,-1.25,-0.15,-1.68,-1.82,-0.23,0.08,-0.04,0.27,0.00
5.181,-0.28,-1.25,-0.15,-1.52,-2.59,-0.28,0.08,-0.04,0.27,0.00
5.192,-0.29,-1.31,-0.14,-1.52,-2.59,-0.28,0.08,-0.04,0.27,0.00
5.194,-0.29,-1.31,-0.14,-1.52,-2.59,-0.28,0.05,0.05,0.27,0.00
5.195,-0.29,-1.31,-0.14,-1.58,-3.19,-0.18,0.05,0.05,0.27,0.00
5.2,-0.30,-1.33,-0.12,-1.58,-3.19,-0.18,0.05,0.05,0.27,0.00
5.201,-0.30,-1.33,-0.12,-1.58,-3.19,-0.18,0.02,0.11,0.28,0.00
5.202,-0.30,-1.33,-0.12,-1.65,-3.34,0.05,0.02,0.11,0.28,0.00
5.211,-0.29,-1.30,-0.09,-1.65,-3.34,0.05,0.02,0.11,0.28,0.00
5.212,-0.29,-1.30,-0.09,-1.65,-3.34,0.05,0.04,0.12,0.31,0.00
5.213,-0.29,-1.30,-0.09,-1.52,-3.07,0.33,0.04,0.12,0.31,0.00
5.23,-0.28,-1.26,-0.08,-1.52,-3.07,0.33,0.04,0.12,0.31,0.00
5.231,-0.28,-1.26,-0.08,-1.52,-3.07,0.33,0.10,0.07,0.34,0.00
5.232,-0.28,-1.26,-0.08,-1.41,-2.67,0.42,0.10,0.07,0.34,0.00
5.233,-0.26,-1.27,-0.10,-1.41,-2.67,0.42,0.10,0.07,0.34,0.00
5.234,-0.26,-1.27,-0.10,-1.41,-2.67,0.42,0.19,-0.03,0.36,0.00
5.236,-0.26,-1.27,-0.10,-1.20,-2.76,0.21,0.19,-0.03,0.36,0.00
5.26,-0.26,-1.30,-0.15,-1.20,-2.76,0.21,0.19,-0.03,0.36,0.00
5.262,-0.26,-1.30,-0.15,-1.20,-2.76,0.21,0.28,-0.11,0.37,0.00
5.263,-0.26,-1.30,-0.15,-1.14,-3.12,-0.31,0.28,-0.11,0.37,0.00
5.264,-0.26,-1.34,-0.18,-1.14,-3.12,-0.31,0.28,-0.11,0.37,0.00
5.265,-0.26,-1.34,-0.18,-1.14,-3.12,-0.31,0.37,-0.14,0.35,0.00
5.266,-0.26,-1.34,-0.18,-1.08,-3.47,-0.69,0.37,-0.14,0.35,0.00
5.267,-0.25,-1.35,-0.20,-1.08,-3.47,-0.69,0.37,-0.14,0.35,0.00
5.268,-0.25,-1.35,-0.20,-1.08,-3.47,-0.69,0.41,-0.10,0.34,0.00
5.27,-0.25,-1.35,-0.20,-0.98,-3.58,-0.95,0.41,-0.10,0.34,0.00
5.275,-0.24,-1.32,-0.21,-0.98,-3.58,-0.95,0.41,-0.10,0.34,0.00
5.276,-0.24,-1.32,-0.21,-0.98,-3.58,-0.95,0.45,-0.02,0.34,0.00
5.277,-0.24,-1.32,-0.21,-0.88,-3.31,-1.06,0.45,-0.02,0.34,0.00
5.28,-0.24,-1.25,-0.21,-0.88,-3.31,-1.06,0.45,-0.02,0.34,0.00
5.283,-0.24,-1.25,-0.21,-0.88,-3.31,-1.06,0.48,0.08,0.35,0.00
5.284,-0.24,-1.25,-0.21,-0.84,-2.66,-1.06,0.48,0.08,0.35,0.00
5.293,-0.27,-1.15,-0.20,-0.84,-2.66,-1.06,0.48,0.08,0.35,0.00
5.296,-0.27,-1.15,-0.20,-0.84,-2.66,-1.06,0.49,0.23,0.40,0.00
5.297,-0.27,-1.15,-0.20,-1.09,-1.68,-1.01,0.49,0.23,0.40,0.00
5.3,-0.30,-1.04,-0.17,-1.09,-1.68,-1.01,0.49,0.23,0.40,0.00
5.302,-0.30,-1.04,-0.17,-1.09,-1.68,-1.01,0.51,0.39,0.52,0.00
5.303,-0.30,-1.04,-0.17,-1.30,-0.58,-0.78,0.51,0.39,0.52,0.00
5.31,-0.30,-0.95,-0.12,-1.30,-0.58,-0.78,0.51,0.39,0.52,0.00
5.312,-0.30,-0.95,-0.12,-1.30,-0.58,-0.78,0.52,0.53,0.69,0.00
5.313,-0.30,-0.95,-0.12,-1.27,0.28,-0.37,0.52,0.53,0.69,0.00
5.322,-0.30,-0.90,-0.08,-1.27,0.28,-0.37,0.52,0.53,0.69,0.00
5.323,-0.30,-0.90,-0.08,-1.27,0.28,-0.37,0.55,0.61,0.84,0.00
5.324,-0.30,-0.90,-0.08,-1.17,0.81,0.04,0.55,0.61,0.84,0.00
5.33,-0.28,-0.91,-0.05,-1.17,0.81,0.04,0.55,0.61,0.84,0.00
5.331,-0.28,-0.91,-0.05,-1.17,0.81,0.04,0.60,0.62,0.92,0.00
5.332,-0.28,-0.91,-0.05,-0.87,0.69,0.29,0.60,0.62,0.92,0.00
5.344,-0.25,-0.98,-0.05,-0.87,0.69,0.29,0.60,0.62,0.92,0.00
5.345,-0.25,-0.98,-0.05,-0.87,0.69,0.29,0.66,0.59,0.97,0.00
5.346,-0.25,-0.98,-0.05,-0.48,-0.03,0.16,0.66,0.59,0.97,0.00
5.351,-0.21,-1.10,-0.08,-0.48,-0.03,0.16,0.66,0.59,0.97,0.00
5.351,-0.21,-1.10,-0.08,-0.48,-0.03,0.16,0.71,0.59,1.05,0.00
5.352,-0.21,-1.10,-0.08,0.04,-1.18,-0.17,0.71,0.59,1.05,0.00
5.375,-0.18,-1.18,-0.10,0.04,-1.18,-0.17,0.71,0.59,1.05,0.00
5.376,-0.18,-1.18,-0.10,0.04,-1.18,-0.17,0.72,0.65,1.13,0.00
5.377,-0.18,-1.18,-0.10,0.43,-2.00,-0.37,0.72,0.65,1.13,0.00
5.378,-0.18,-1.24,-0.08,0.43,-2.00,-0.37,0.72,0.65,1.13,0.00
5.38,-0.18,-1.24,-0.08,0.43,-2.00,-0.37,0.70,0.76,1.24,0.00
5.381,-0.18,-1.24,-0.08,0.51,-2.63,-0.22,0.70,0.76,1.24,0.00
5.382,-0.20,-1.25,-0.05,0.51,-2.63,-0.22,0.70,0.76,1.24,0.00
5.382,-0.20,-1.25,-0.05,0.51,-2.63,-0.22,0.65,0.87,1.35,0.00
5.383,-0.20,-1.25,-0.05,0.44,-2.79,-0.04,0.65,0.87,1.35,0.00
5.396,-0.22,-1.24,0.00,0.44,-2.79,-0.04,0.65,0.87,1.35,0.00
5.397,-0.22,-1.24,0.00,0.44,-2.79,-0.04,0.61,0.96,1.46,0.00
5.398,-0.22,-1.24,0.00,0.35,-2.66,0.46,0.61,0.96,1.46,0.00
5.4,-0.21,-1.20,0.06,0.35,-2.66,0.46,0.61,0.96,1.46,0.00
5.401,-0.21,-1.20,0.06,0.35,-2.66,0.46,0.57,0.98,1.53,0.00
5.402,-0.21,-1.20,0.06,0.58,-2.35,0.96,0.57,0.98,1.53,0.00
5.41,-0.21,-1.19,0.10,0.58,-2.35,0.96,0.57,0.98,1.53,0.00
5.411,-0.21,-1.19,0.10,0.58,-2.35,0.96,0.57,0.87,1.56,0.00
5.412,-0.21,-1.19,0.10,0.72,-2.26,1.35,0.57,0.87,1.56,0.00
5.423,-0.20,-1.17,0.12,0.72,-2.26,1.35,0.57,0.87,1.56,0.00
5.424,-0.20,-1.17,0.12,0.72,-2.26,1.35,0.59,0.68,1.57,0.00
5.425,-0.20,-1.17,0.12,0.96,-2.16,1.49,0.59,0.68,1.57,0.00
5.431,-0.19,-1.17,0.11,0.96,-2.16,1.49,0.59,0.68,1.57,0.00
5.432,-0.19,-1.17,0.11,0.96,-2.16,1.49,0.63,0.45,1.56,0.00
5.433,-0.19,-1.17,0.11,1.25,-2.13,1.42,0.63,0.45,1.56,0.00
5.447,-0.18,-1.13,0.09,1.25,-2.13,1.42,0.63,0.45,1.56,0.00
5.449,-0.18,-1.13,0.09,1.25,-2.13,1.42,0.67,0.22,1.54,0.00
5.45,-0.18,-1.13,0.09,1.50,-1.86,1.09,0.67,0.22,1.54,0.00
5.477,-0.18,-1.09,0.06,1.50,-1.86,1.09,0.67,0.22,1.54,0.00
5.479,-0.18,-1.09,0.06,1.50,-1.86,1.09,0.72,0.02,1.50,0.00
5.48,-0.18,-1.09,0.06,1.64,-1.48,0.74,0.72,0.02,1.50,0.00
5.481,-0.18,-1.05,0.03,1.64,-1.48,0.74,0.72,0.02,1.50,0.00
5.482,-0.18,-1.05,0.03,1.64,-1.48,0.74,0.78,-0.11,1.46,0.00
5.483,-0.18,-1.05,0.03,1.80,-1.13,0.41,0.78,-0.11,1.46,0.00
5.484,-0.19,-1.00,-0.00,1.80,-1.13,0.41,0.78,-0.11,1.46,0.00
5.486,-0.19,-1.00,-0.00,1.80,-1.13,0.41,0.82,-0.17,1.41,0.00
5.487,-0.19,-1.00,-0.00,1.79,-0.65,0.02,0.82,-0.17,1.41,0.00
5.488,-0.18,-0.95,-0.03,1.79,-0.65,0.02,0.82,-0.17,1.41,0.00
5.489,-0.18,-0.95,-0.03,1.79,-0.65,0.02,0.86,-0.16,1.38,0.00
5.49,-0.18,-0.95,-0.03,1.97,-0.29,-0.33,0.86,-0.16,1.38,0.00
5.494,-0.18,-0.90,-0.04,1.97,-0.29,-0.33,0.86,-0.16,1.38,0.00
5.495,-0.18,-0.90,-0.04,1.97,-0.29,-0.33,0.88,-0.13,1.36,0.00
5.497,-0.18,-0.90,-0.04,2.17,0.13,-0.51,0.88,-0.13,1.36,0.00
5.501,-0.17,-0.86,-0.05,2.17,0.13,-0.51,0.88,-0.13,1.36,0.00
5.504,-0.17,-0.86,-0.05,2.17,0.13,-0.51,0.89,-0.08,1.36,0.00
5.505,-0.17,-0.86,-0.05,2.36,0.51,-0.68,0.89,-0.08,1.36,0.00
5.512,-0.17,-0.81,-0.04,2.36,0.51,-0.68,0.89,-0.08,1.36,0.00
5.514,-0.17,-0.81,-0.04,2.36,0.51,-0.68,0.90,-0.03,1.35,0.00
5.515,-0.17,-0.81,-0.04,2.50,0.99,-0.69,0.90,-0.03,1.35,0.00
5.522,-0.17,-0.76,-0.02,2.50,0.99,-0.69,0.90,-0.03,1.35,0.00
5.523,-0.17,-0.76,-0.02,2.50,0.99,-0.69,0.91,0.01,1.36,0.00
5.524,-0.17,-0.76,-0.02,2.65,1.34,-0.62,0.91,0.01,1.36,0.00
5.532,-0.17,-0.73,-0.01,2.65,1.34,-0.62,0.91,0.01,1.36,0.00
5.533,-0.17,-0.73,-0.01,2.65,1.34,-0.62,0.92,0.04,1.37,0.00
5.534,-0.17,-0.73,-0.01,2.77,1.63,-0.53,0.92,0.04,1.37,0.00
5.541,-0.15,-0.70,0.00,2.77,1.63,-0.53,0.92,0.04,1.37,0.00
5.543,-0.15,-0.70,0.00,2.77,1.63,-0.53,0.94,0.07,1.38,0.00
5.544,-0.15,-0.70,0.00,3.00,1.87,-0.51,0.94,0.07,1.38,0.00
5.551,-0.14,-0.67,0.01,3.00,1.87,-0.51,0.94,0.07,1.38,0.00
5.552,-0.14,-0.67,0.01,3.00,1.87,-0.51,0.95,0.11,1.37,0.00
5.553,-0.14,-0.67,0.01,3.28,2.02,-0.52,0.95,0.11,1.37,0.00
5.565,-0.14,-0.65,0.01,3.28,2.02,-0.52,0.95,0.11,1.37,0.00
5.567,-0.14,-0.65,0.01,3.28,2.02,-0.52,0.95,0.14,1.35,0.00
5.568,-0.14,-0.65,0.01,3.34,2.16,-0.63,0.95,0.14,1.35,0.00
5.598,-0.14,-0.63,0.00,3.34,2.16,-0.63,0.95,0.14,1.35,0.00
5.6,-0.14,-0.63,0.00,3.34,2.16,-0.63,0.95,0.18,1.32,0.00
5.601,-0.14,-0.63,0.00,3.53,2.26,-0.76,0.95,0.18,1.32,0.00
5.604,-0.14,-0.62,0.01,3.53,2.26,-0.76,0.95,0.18,1.32,0.00
5.605,-0.14,-0.62,0.01,3.53,2.26,-0.76,0.93,0.21,1.29,0.00
5.606,-0.14,-0.62,0.01,3.59,2.36,-0.77,0.93,0.21,1.29,0.00
5.607,-0.15,-0.60,0.01,3.59,2.36,-0.77,0.93,0.21,1.29,0.00
5.608,-0.15,-0.60,0.01,3.59,2.36,-0.77,0.90,0.25,1.26,0.00
5.609,-0.15,-0.60,0.01,3.66,2.45,-0.81,0.90,0.25,1.26,0.00
5.61,-0.16,-0.59,0.02,3.66,2.45,-0.81,0.90,0.25,1.26,0.00
5.611,-0.16,-0.59,0.02,3.66,2.45,-0.81,0.86,0.30,1.23,0.00
5.612,-0.16,-0.59,0.02,3.63,2.50,-0.79,0.86,0.30,1.23,0.00
5.613,-0.18,-0.58,0.03,3.63,2.50,-0.79,0.86,0.30,1.23,0.00
5.614,-0.18,-0.58,0.03,3.63,2.50,-0.79,0.82,0.33,1.20,0.00
5.615,-0.18,-0.58,0.03,3.54,2.48,-0.72,0.82,0.33,1.20,0.00
5.622,-0.18,-0.59,0.04,3.54,2.48,-0.72,0.82,0.33,1.20,0.00
5.624,-0.18,-0.59,0.04,3.54,2.48,-0.72,0.78,0.36,1.16,0.00
5.625,-0.18,-0.59,0.04,3.68,2.36,-0.66,0.78,0.36,1.16,0.00
5.633,-0.19,-0.61,0.03,3.68,2.36,-0.66,0.78,0.36,1.16,0.00
5.634,-0.19,-0.61,0.03,3.68,2.36,-0.66,0.73,0.38,1.11,0.00
5.635,-0.19,-0.61,0.03,3.67,2.09,-0.79,0.73,0.38,1.11,0.00
5.644,-0.20,-0.63,0.03,3.67,2.09,-0.79,0.73,0.38,1.11,0.00
5.645,-0.20,-0.63,0.03,3.67,2.09,-0.79,0.66,0.41,1.04,0.00
5.647,-0.20,-0.63,0.03,3.66,1.85,-0.85,0.66,0.41,1.04,0.00
5.664,-0.20,-0.65,0.03,3.66,1.85,-0.85,0.66,0.41,1.04,0.00
5.666,-0.20,-0.65,0.03,3.66,1.85,-0.85,0.57,0.42,0.95,0.00
5.667,-0.20,-0.65,0.03,3.70,1.56,-0.89,0.57,0.42,0.95,0.00
5.668,-0.20,-0.68,0.02,3.70,1.56,-0.89,0.57,0.42,0.95,0.00
5.669,-0.20,-0.68,0.02,3.70,1.56,-0.89,0.48,0.43,0.85,0.00
5.67,-0.20,-0.68,0.02,3.74,1.20,-0.93,0.48,0.43,0.85,0.00
5.696,-0.22,-0.71,0.01,3.74,1.20,-0.93,0.48,0.43,0.85,0.00
5.697,-0.22,-0.71,0.01,3.74,1.20,-0.93,0.38,0.44,0.74,0.00
5.698,-0.22,-0.71,0.01,3.68,0.86,-1.03,0.38,0.44,0.74,0.00
5.7,-0.22,-0.75,0.01,3.68,0.86,-1.03,0.38,0.44,0.74,0.00
5.701,-0.22,-0.75,0.01,3.68,0.86,-1.03,0.27,0.47,0.63,0.00
5.702,-0.22,-0.75,0.01,3.70,0.47,-1.06,0.27,0.47,0.63,0.00
5.703,-0.22,-0.78,0.01,3.70,0.47,-1.06,0.27,0.47,0.63,0.00
5.704,-0.22,-0.78,0.01,3.70,0.47,-1.06,0.17,0.50,0.51,0.00
5.705,-0.22,-0.78,0.01,3.77,0.11,-1.03,0.17,0.50,0.51,0.00
5.708,-0.22,-0.82,0.01,3.77,0.11,-1.03,0.17,0.50,0.51,0.00
5.709,-0.22,-0.82,0.01,3.77,0.11,-1.03,0.06,0.53,0.38,0.00
5.711,-0.22,-0.82,0.01,3.74,-0.28,-1.01,0.06,0.53,0.38,0.00
5.715,-0.23,-0.86,0.00,3.74,-0.28,-1.01,0.06,0.53,0.38,0.00
5.717,-0.23,-0.86,0.00,3.74,-0.28,-1.01,-0.05,0.54,0.24,0.00
5.718,-0.23,-0.86,0.00,3.67,-0.70,-1.03,-0.05,0.54,0.24,0.00
5.728,-0.25,-0.91,-0.00,3.67,-0.70,-1.03,-0.05,0.54,0.24,0.00
5.729,-0.25,-0.91,-0.00,3.67,-0.70,-1.03,-0.16,0.55,0.09,0.00
5.731,-0.25,-0.91,-0.00,3.56,-1.20,-1.04,-0.16,0.55,0.09,0.00
5.734,-0.27,-0.97,-0.02,3.56,-1.20,-1.04,-0.16,0.55,0.09,0.00
5.735,-0.27,-0.97,-0.02,3.56,-1.20,-1.04,-0.26,0.55,-0.04,0.00
5.737,-0.27,-0.97,-0.02,3.37,-1.83,-1.16,-0.26,0.55,-0.04,0.00
5.744,-0.28,-1.05,-0.04,3.37,-1.83,-1.16,-0.26,0.55,-0.04,0.00
5.745,-0.28,-1.05,-0.04,3.37,-1.83,-1.16,-0.37,0.54,-0.18,0.00
5.746,-0.28,-1.05,-0.04,3.26,-2.57,-1.29,-0.37,0.54,-0.18,0.00
5.757,-0.29,-1.14,-0.04,3.26,-2.57,-1.29,-0.37,0.54,-0.18,0.00
5.758,-0.29,-1.14,-0.04,3.26,-2.57,-1.29,-0.48,0.54,-0.32,0.00
5.758,-0.29,-1.14,-0.04,3.14,-3.39,-1.19,-0.48,0.54,-0.32,0.00
5.765,-0.29,-1.22,-0.04,3.14,-3.39,-1.19,-0.48,0.54,-0.32,0.00
5.766,-0.29,-1.22,-0.04,3.14,-3.39,-1.19,-0.57,0.53,-0.46,0.00
5.766,-0.29,-1.22,-0.04,3.10,-4.17,-1.17,-0.57,0.53,-0.46,0.00
5.78,-0.29,-1.28,-0.04,3.10,-4.17,-1.17,-0.57,0.53,-0.46,0.00
5.781,-0.29,-1.28,-0.04,3.10,-4.17,-1.17,-0.65,0.48,-0.62,0.00
5.782,-0.29,-1.28,-0.04,3.00,-4.69,-1.04,-0.65,0.48,-0.62,0.00
5.812,-0.29,-1.30,-0.03,3.00,-4.69,-1.04,-0.65,0.48,-0.62,0.00
5.814,-0.29,-1.30,-0.03,3.00,-4.69,-1.04,-0.72,0.39,-0.80,0.00
5.815,-0.29,-1.30,-0.03,2.94,-4.91,-0.93,-0.72,0.39,-0.80,0.00
5.816,-0.29,-1.29,-0.04,2.94,-4.91,-0.93,-0.72,0.39,-0.80,0.00
5.817,-0.29,-1.29,-0.04,2.94,-4.91,-0.93,-0.76,0.28,-0.98,0.00
5.817,-0.29,-1.29,-0.04,2.87,-4.71,-0.89,-0.76,0.28,-0.98,0.00
5.818,-0.31,-1.24,-0.04,2.87,-4.71,-0.89,-0.76,0.28,-0.98,0.00
5.82,-0.31,-1.24,-0.04,2.87,-4.71,-0.89,-0.79,0.16,-1.18,0.00
5.821,-0.31,-1.24,-0.04,2.60,-4.12,-0.86,-0.79,0.16,-1.18,0.00
5.822,-0.31,-1.18,-0.05,2.60,-4.12,-0.86,-0.79,0.16,-1.18,0.00
5.823,-0.31,-1.18,-0.05,2.60,-4.12,-0.86,-0.81,0.04,-1.36,0.00
5.825,-0.31,-1.18,-0.05,2.48,-3.49,-0.93,-0.81,0.04,-1.36,0.00
5.826,-0.30,-1.16,-0.08,2.48,-3.49,-0.93,-0.81,0.04,-1.36,0.00
5.826,-0.30,-1.16,-0.08,2.48,-3.49,-0.93,-0.82,-0.04,-1.50,0.00
5.827,-0.30,-1.16,-0.08,2.50,-3.17,-1.09,-0.82,-0.04,-1.50,0.00
5.835,-0.27,-1.19,-0.10,2.50,-3.17,-1.09,-0.82,-0.04,-1.50,0.00
5.837,-0.27,-1.19,-0.10,2.50,-3.17,-1.09,-0.83,-0.08,-1.62,0.00
5.838,-0.27,-1.19,-0.10,2.65,-3.42,-1.20,-0.83,-0.08,-1.62,0.00
5.845,-0.22,-1.28,-0.11,2.65,-3.42,-1.20,-0.83,-0.08,-1.62,0.00
5.846,-0.22,-1.28,-0.11,2.65,-3.42,-1.20,-0.86,-0.04,-1.74,0.00
5.847,-0.22,-1.28,-0.11,2.94,-4.16,-1.31,-0.86,-0.04,-1.74,0.00
5.856,-0.19,-1.37,-0.12,2.94,-4.16,-1.31,-0.86,-0.04,-1.74,0.00
5.858,-0.19,-1.37,-0.12,2.94,-4.16,-1.31,-0.89,0.06,-1.86,0.00
5.858,-0.19,-1.37,-0.12,3.09,-4.98,-1.26,-0.89,0.06,-1.86,0.00
5.865,-0.17,-1.40,-0.11,3.09,-4.98,-1.26,-0.89,0.06,-1.86,0.00
5.866,-0.17,-1.40,-0.11,3.09,-4.98,-1.26,-0.92,0.20,-1.99,0.00
5.867,-0.17,-1.40,-0.11,3.09,-5.19,-1.09,-0.92,0.20,-1.99,0.00
5.877,-0.19,-1.35,-0.08,3.09,-5.19,-1.09,-0.92,0.20,-1.99,0.00
5.878,-0.19,-1.35,-0.08,3.09,-5.19,-1.09,-0.92,0.36,-2.15,0.00
5.878,-0.19,-1.35,-0.08,2.73,-4.57,-0.71,-0.92,0.36,-2.15,0.00
5.886,-0.21,-1.24,-0.05,2.73,-4.57,-0.71,-0.92,0.36,-2.15,0.00
5.887,-0.21,-1.24,-0.05,2.73,-4.57,-0.71,-0.88,0.50,-2.29,0.00
5.888,-0.21,-1.24,-0.05,2.35,-3.40,-0.34,-0.88,0.50,-2.29,0.00
5.9,-0.23,-1.11,-0.05,2.35,-3.40,-0.34,-0.88,0.50,-2.29,0.00
5.902,-0.23,-1.11,-0.05,2.35,-3.40,-0.34,-0.80,0.59,-2.40,0.00
5.903,-0.23,-1.11,-0.05,1.93,-2.05,-0.26,-0.80,0.59,-2.40,0.00
5.931,-0.25,-0.98,-0.07,1.93,-2.05,-0.26,-0.80,0.59,-2.40,0.00
5.933,-0.25,-0.98,-0.07,1.93,-2.05,-0.26,-0.69,0.60,-2.47,0.00
5.934,-0.25,-0.98,-0.07,1.53,-0.67,-0.37,-0.69,0.60,-2.47,0.00
5.936,-0.26,-0.89,-0.11,1.53,-0.67,-0.37,-0.69,0.60,-2.47,0.00
5.937,-0.26,-0.89,-0.11,1.53,-0.67,-0.37,-0.58,0.52,-2.44,0.00
5.938,-0.26,-0.89,-0.11,1.16,0.32,-0.68,-0.58,0.52,-2.44,0.00
5.941,-0.27,-0.90,-0.17,1.16,0.32,-0.68,-0.58,0.52,-2.44,0.00
5.942,-0.27,-0.90,-0.17,1.16,0.32,-0.68,-0.50,0.42,-2.30,0.00
5.943,-0.27,-0.90,-0.17,0.88,0.32,-1.17,-0.50,0.42,-2.30,0.00
5.944,-0.25,-0.98,-0.23,0.88,0.32,-1.17,-0.50,0.42,-2.30,0.00
5.945,-0.25,-0.98,-0.23,0.88,0.32,-1.17,-0.44,0.41,-2.07,0.00
5.946,-0.25,-0.98,-0.23,0.86,-0.43,-1.72,-0.44,0.41,-2.07,0.00
5.947,-0.22,-1.14,-0.26,0.86,-0.43,-1.72,-0.44,0.41,-2.07,0.00
5.948,-0.22,-1.14,-0.26,0.86,-0.43,-1.72,-0.43,0.52,-1.80,0.00
5.949,-0.22,-1.14,-0.26,0.97,-1.95,-1.97,-0.43,0.52,-1.80,0.00
5.96,-0.22,-1.29,-0.25,0.97,-1.95,-1.97,-0.43,0.52,-1.80,0.00
5.962,-0.22,-1.29,-0.25,0.97,-1.95,-1.97,-0.48,0.76,-1.57,0.00
5.963,-0.22,-1.29,-0.25,0.84,-3.35,-1.77,-0.48,0.76,-1.57,0.00
5.966,-0.26,-1.34,-0.20,0.84,-3.35,-1.77,-0.48,0.76,-1.57,0.00
5.967,-0.26,-1.34,-0.20,0.84,-3.35,-1.77,-0.55,1.03,-1.41,0.00
5.968,-0.26,-1.34,-0.20,0.34,-3.81,-1.17,-0.55,1.03,-1.41,0.00
5.976,-0.31,-1.31,-0.11,0.34,-3.81,-1.17,-0.55,1.03,-1.41,0.00
5.978,-0.31,-1.31,-0.11,0.34,-3.81,-1.17,-0.59,1.22,-1.29,0.00
5.979,-0.31,-1.31,-0.11,-0.29,-3.46,-0.27,-0.59,1.22,-1.29,0.00
5.997,-0.36,-1.25,-0.03,-0.29,-3.46,-0.27,-0.59,1.22,-1.29,0.00
5.999,-0.36,-1.25,-0.03,-0.29,-3.46,-0.27,-0.57,1.22,-1.18,0.00
6.0,-0.36,-1.25,-0.03,-0.91,-2.82,0.63,-0.57,1.22,-1.18,0.00
6.001,-0.37,-1.20,0.04,-0.91,-2.82,0.63,-0.57,1.22,-1.18,0.00
6.002,-0.37,-1.20,0.04,-0.91,-2.82,0.63,-0.50,1.02,-1.07,0.00
6.003,-0.37,-1.20,0.04,-1.15,-2.38,1.42,-0.50,1.02,-1.07,0.00
6.034,-0.37,-1.19,0.09,-1.15,-2.38,1.42,-0.50,1.02,-1.07,0.00
6.035,-0.37,-1.19,0.09,-1.15,-2.38,1.42,-0.38,0.62,-0.95,0.00
6.036,-0.37,-1.19,0.09,-1.23,-2.21,1.92,-0.38,0.62,-0.95,0.00
6.037,-0.35,-1.16,0.10,-1.23,-2.21,1.92,-0.38,0.62,-0.95,0.00
6.038,-0.35,-1.16,0.10,-1.23,-2.21,1.92,-0.24,0.06,-0.83,0.00
6.04,-0.35,-1.16,0.10,-1.11,-1.95,2.03,-0.24,0.06,-0.83,0.00
6.041,-0.34,-1.12,0.07,-1.11,-1.95,2.03,-0.24,0.06,-0.83,0.00
6.041,-0.34,-1.12,0.07,-1.11,-1.95,2.03,-0.09,-0.61,-0.74,0.00
6.042,-0.34,-1.12,0.07,-1.04,-1.50,1.79,-0.09,-0.61,-0.74,0.00
6.043,-0.34,-1.06,0.02,-1.04,-1.50,1.79,-0.09,-0.61,-0.74,0.00
6.044,-0.34,-1.06,0.02,-1.04,-1.50,1.79,0.05,-1.28,-0.68,0.00
6.045,-0.34,-1.06,0.02,-1.09,-0.85,1.27,0.05,-1.28,-0.68,0.00
6.048,-0.32,-0.99,-0.06,-1.09,-0.85,1.27,0.05,-1.28,-0.68,0.00
6.048,-0.32,-0.99,-0.06,-1.09,-0.85,1.27,0.16,-1.81,-0.63,0.00
6.049,-0.32,-0.99,-0.06,-0.93,-0.17,0.39,0.16,-1.81,-0.63,0.00
6.057,-0.29,-0.93,-0.13,-0.93,-0.17,0.39,0.16,-1.81,-0.63,0.00
6.059,-0.29,-0.93,-0.13,-0.93,-0.17,0.39,0.24,-2.14,-0.58,0.00
6.06,-0.29,-0.93,-0.13,-0.66,0.43,-0.41,0.24,-2.14,-0.58,0.00
6.068,-0.24,-0.88,-0.19,-0.66,0.43,-0.41,0.24,-2.14,-0.58,0.00
6.069,-0.24,-0.88,-0.19,-0.66,0.43,-0.41,0.27,-2.22,-0.53,0.00
6.07,-0.24,-0.88,-0.19,-0.26,0.94,-1.07,0.27,-2.22,-0.53,0.00
6.078,-0.21,-0.82,-0.22,-0.26,0.94,-1.07,0.27,-2.22,-0.53,0.00
6.079,-0.21,-0.82,-0.22,-0.26,0.94,-1.07,0.27,-2.11,-0.49,0.00
6.08,-0.21,-0.82,-0.22,0.06,1.49,-1.43,0.27,-2.11,-0.49,0.00
6.1,-0.18,-0.78,-0.22,0.06,1.49,-1.43,0.27,-2.11,-0.49,0.00
6.101,-0.18,-0.78,-0.22,0.06,1.49,-1.43,0.24,-1.90,-0.46,0.00
6.102,-0.18,-0.78,-0.22,0.27,1.93,-1.47,0.24,-1.90,-0.46,0.00
6.103,-0.17,-0.73,-0.22,0.27,1.93,-1.47,0.24,-1.90,-0.46,0.00
6.104,-0.17,-0.73,-0.22,0.27,1.93,-1.47,0.20,-1.64,-0.43,0.00
6.105,-0.17,-0.73,-0.22,0.40,2.41,-1.50,0.20,-1.64,-0.43,0.00
6.136,-0.17,-0.70,-0.20,0.40,2.41,-1.50,0.20,-1.64,-0.43,0.00
6.138,-0.17,-0.70,-0.20,0.40,2.41,-1.50,0.15,-1.38,-0.39,0.00
6.14,-0.17,-0.70,-0.20,0.37,2.69,-1.36,0.15,-1.38,-0.39,0.00
6.141,-0.19,-0.68,-0.16,0.37,2.69,-1.36,0.15,-1.38,-0.39,0.00
6.142,-0.19,-0.68,-0.16,0.37,2.69,-1.36,0.09,-1.14,-0.37,0.00
6.143,-0.19,-0.68,-0.16,0.15,2.90,-0.97,0.09,-1.14,-0.37,0.00
6.144,-0.21,-0.65,-0.12,0.15,2.90,-0.97,0.09,-1.14,-0.37,0.00
6.145,-0.21,-0.65,-0.12,0.15,2.90,-0.97,0.03,-0.95,-0.40,0.00
6.147,-0.21,-0.65,-0.12,-0.14,3.25,-0.61,0.03,-0.95,-0.40,0.00
6.148,-0.22,-0.63,-0.09,-0.14,3.25,-0.61,0.03,-0.95,-0.40,0.00
6.149,-0.22,-0.63,-0.09,-0.14,3.25,-0.61,-0.02,-0.84,-0.41,0.00
6.15,-0.22,-0.63,-0.09,-0.27,3.45,-0.31,-0.02,-0.84,-0.41,0.00
6.15,-0.21,-0.62,-0.07,-0.27,3.45,-0.31,-0.02,-0.84,-0.41,0.00
6.151,-0.21,-0.62,-0.07,-0.27,3.45,-0.31,-0.06,-0.76,-0.39,0.00
6.152,-0.21,-0.62,-0.07,-0.25,3.54,-0.11,-0.06,-0.76,-0.39,0.00
6.158,-0.22,-0.61,-0.04,-0.25,3.54,-0.11,-0.06,-0.76,-0.39,0.00
6.16,-0.22,-0.61,-0.04,-0.25,3.54,-0.11,-0.09,-0.69,-0.38,0.00
6.161,-0.22,-0.61,-0.04,-0.35,3.67,0.10,-0.09,-0.69,-0.38,0.00
6.168,-0.23,-0.60,-0.04,-0.35,3.67,0.10,-0.09,-0.69,-0.38,0.00
6.17,-0.23,-0.60,-0.04,-0.35,3.67,0.10,-0.11,-0.63,-0.40,0.00
6.171,-0.23,-0.60,-0.04,-0.44,3.74,0.13,-0.11,-0.63,-0.40,0.00
6.18,-0.24,-0.60,-0.04,-0.44,3.74,0.13,-0.11,-0.63,-0.40,0.00
6.181,-0.24,-0.60,-0.04,-0.44,3.74,0.13,-0.11,-0.58,-0.42,0.00
6.182,-0.24,-0.60,-0.04,-0.56,3.74,0.12,-0.11,-0.58,-0.42,0.00
6.191,-0.23,-0.61,-0.06,-0.56,3.74,0.12,-0.11,-0.58,-0.42,0.00
6.192,-0.23,-0.61,-0.06,-0.56,3.74,0.12,-0.11,-0.53,-0.43,0.00
6.194,-0.23,-0.61,-0.06,-0.55,3.62,-0.10,-0.11,-0.53,-0.43,0.00
6.199,-0.24,-0.61,-0.08,-0.55,3.62,-0.10,-0.11,-0.53,-0.43,0.00
6.2,-0.24,-0.61,-0.08,-0.55,3.62,-0.10,-0.12,-0.48,-0.43,0.00
6.201,-0.24,-0.61,-0.08,-0.68,3.64,-0.26,-0.12,-0.48,-0.43,0.00
6.217,-0.24,-0.62,-0.08,-0.68,3.64,-0.26,-0.12,-0.48,-0.43,0.00
6.219,-0.24,-0.62,-0.08,-0.68,3.64,-0.26,-0.14,-0.43,-0.43,0.00
6.22,-0.24,-0.62,-0.08,-0.76,3.58,-0.25,-0.14,-0.43,-0.43,0.00
6.221,-0.26,-0.63,-0.09,-0.76,3.58,-0.25,-0.14,-0.43,-0.43,0.00
6.222,-0.26,-0.63,-0.09,-0.76,3.58,-0.25,-0.16,-0.39,-0.44,0.00
6.223,-0.26,-0.63,-0.09,-0.97,3.53,-0.37,-0.16,-0.39,-0.44,0.00
6.252,-0.27,-0.65,-0.09,-0.97,3.53,-0.37,-0.16,-0.39,-0.44,0.00
6.254,-0.27,-0.65,-0.09,-0.97,3.53,-0.37,-0.18,-0.37,-0.44,0.00
6.255,-0.27,-0.65,-0.09,-1.10,3.28,-0.33,-0.18,-0.37,-0.44,0.00
6.256,-0.27,-0.69,-0.11,-1.10,3.28,-0.33,-0.18,-0.37,-0.44,0.00
6.257,-0.27,-0.69,-0.11,-1.10,3.28,-0.33,-0.20,-0.33,-0.44,0.00
6.259,-0.27,-0.69,-0.11,-1.18,2.91,-0.49,-0.20,-0.33,-0.44,0.00
6.261,-0.28,-0.73,-0.11,-1.18,2.91,-0.49,-0.20,-0.33,-0.44,0.00
6.262,-0.28,-0.73,-0.11,-1.18,2.91,-0.49,-0.23,-0.29,-0.43,0.00
6.263,-0.28,-0.73,-0.11,-1.30,2.49,-0.50,-0.23,-0.29,-0.43,0.00
6.264,-0.29,-0.77,-0.13,-1.30,2.49,-0.50,-0.23,-0.29,-0.43,0.00
6.265,-0.29,-0.77,-0.13,-1.30,2.49,-0.50,-0.26,-0.22,-0.42,0.00
6.266,-0.29,-0.77,-0.13,-1.37,2.11,-0.61,-0.26,-0.22,-0.42,0.00
6.27,-0.30,-0.81,-0.13,-1.37,2.11,-0.61,-0.26,-0.22,-0.42,0.00
6.271,-0.30,-0.81,-0.13,-1.37,2.11,-0.61,-0.28,-0.12,-0.41,0.00
6.272,-0.30,-0.81,-0.13,-1.53,1.78,-0.61,-0.28,-0.12,-0.41,0.00
6.281,-0.32,-0.83,-0.12,-1.53,1.78,-0.61,-0.28,-0.12,-0.41,0.00
6.284,-0.32,-0.83,-0.12,-1.53,1.78,-0.61,-0.31,-0.03,-0.40,0.00
6.286,-0.32,-0.83,-0.12,-1.81,1.56,-0.52,-0.31,-0.03,-0.40,0.00
6.293,-0.34,-0.85,-0.11,-1.81,1.56,-0.52,-0.31,-0.03,-0.40,0.00
6.295,-0.34,-0.85,-0.11,-1.81,1.56,-0.52,-0.33,0.04,-0.41,0.00
6.297,-0.34,-0.85,-0.11,-2.05,1.40,-0.41,-0.33,0.04,-0.41,0.00
6.299,-0.38,-0.87,-0.11,-2.05,1.40,-0.41,-0.33,0.04,-0.41,0.00
6.301,-0.38,-0.87,-0.11,-2.05,1.40,-0.41,-0.33,0.06,-0.40,0.00
6.302,-0.38,-0.87,-0.11,-2.40,1.16,-0.37,-0.33,0.06,-0.40,0.00
6.311,-0.40,-0.91,-0.10,-2.40,1.16,-0.37,-0.33,0.06,-0.40,0.00
6.313,-0.40,-0.91,-0.10,-2.40,1.16,-0.37,-0.33,0.06,-0.38,0.00
6.314,-0.40,-0.91,-0.10,-2.71,0.76,-0.17,-0.33,0.06,-0.38,0.00
6.32,-0.43,-0.98,-0.09,-2.71,0.76,-0.17,-0.33,0.06,-0.38,0.00
6.321,-0.43,-0.98,-0.09,-2.71,0.76,-0.17,-0.33,0.03,-0.33,0.00
6.322,-0.43,-0.98,-0.09,-2.98,0.11,-0.05,-0.33,0.03,-0.33,0.00
6.338,-0.44,-1.05,-0.09,-2.98,0.11,-0.05,-0.33,0.03,-0.33,0.00
6.34,-0.44,-1.05,-0.09,-2.98,0.11,-0.05,-0.32,-0.01,-0.27,0.00
6.34,-0.44,-1.05,-0.09,-3.15,-0.58,-0.07,-0.32,-0.01,-0.27,0.00
6.341,-0.45,-1.13,-0.09,-3.15,-0.58,-0.07,-0.32,-0.01,-0.27,0.00
6.342,-0.45,-1.13,-0.09,-3.15,-0.58,-0.07,-0.31,-0.04,-0.19,0.00
6.343,-0.45,-1.13,-0.09,-3.21,-1.42,-0.04,-0.31,-0.04,-0.19,0.00
6.349,-0.43,-1.22,-0.09,-3.21,-1.42,-0.04,-0.31,-0.04,-0.19,0.00
6.35,-0.43,-1.22,-0.09,-3.21,-1.42,-0.04,-0.31,-0.05,-0.11,0.00
6.351,-0.43,-1.22,-0.09,-3.03,-2.30,0.05,-0.31,-0.05,-0.11,0.00
6.375,-0.42,-1.30,-0.06,-3.03,-2.30,0.05,-0.31,-0.05,-0.11,0.00
6.376,-0.42,-1.30,-0.06,-3.03,-2.30,0.05,-0.31,-0.06,-0.03,0.00
6.377,-0.42,-1.30,-0.06,-2.91,-3.04,0.33,-0.31,-0.06,-0.03,0.00
6.378,-0.38,-1.35,-0.04,-2.91,-3.04,0.33,-0.31,-0.06,-0.03,0.00
6.379,-0.38,-1.35,-0.04,-2.91,-3.04,0.33,-0.28,-0.07,0.02,0.00
6.38,-0.38,-1.35,-0.04,-2.59,-3.50,0.57,-0.28,-0.07,0.02,0.00
6.381,-0.37,-1.34,-0.02,-2.59,-3.50,0.57,-0.28,-0.07,0.02,0.00
6.384,-0.37,-1.34,-0.02,-2.59,-3.50,0.57,-0.22,-0.09,0.06,0.00
6.385,-0.37,-1.34,-0.02,-2.44,-3.48,0.77,-0.22,-0.09,0.06,0.00
6.391,-0.34,-1.31,-0.02,-2.44,-3.48,0.77,-0.22,-0.09,0.06,0.00
6.392,-0.34,-1.31,-0.02,-2.44,-3.48,0.77,-0.11,-0.13,0.12,0.00
6.393,-0.34,-1.31,-0.02,-2.16,-3.16,0.75,-0.11,-0.13,0.12,0.00
6.401,-0.34,-1.24,-0.04,-2.16,-3.16,0.75,-0.11,-0.13,0.12,0.00
6.402,-0.34,-1.24,-0.04,-2.16,-3.16,0.75,0.02,-0.19,0.18,0.00
6.403,-0.34,-1.24,-0.04,-2.09,-2.51,0.57,0.02,-0.19,0.18,0.00
6.411,-0.33,-1.19,-0.08,-2.09,-2.51,0.57,0.02,-0.19,0.18,0.00
6.412,-0.33,-1.19,-0.08,-2.09,-2.51,0.57,0.18,-0.25,0.25,0.00
6.413,-0.33,-1.19,-0.08,-1.97,-1.94,0.17,0.18,-0.25,0.25,0.00
6.421,-0.32,-1.19,-0.15,-1.97,-1.94,0.17,0.18,-0.25,0.25,0.00
6.422,-0.32,-1.19,-0.15,-1.97,-1.94,0.17,0.34,-0.28,0.31,0.00
6.422,-0.32,-1.19,-0.15,-1.87,-2.02,-0.53,0.34,-0.28,0.31,0.00
6.434,-0.34,-1.30,-0.22,-1.87,-2.02,-0.53,0.34,-0.28,0.31,0.00
6.436,-0.34,-1.30,-0.22,-1.87,-2.02,-0.53,0.43,-0.25,0.34,0.00
6.437,-0.34,-1.30,-0.22,-2.00,-3.03,-1.28,0.43,-0.25,0.34,0.00
6.463,-0.35,-1.41,-0.25,-2.00,-3.03,-1.28,0.43,-0.25,0.34,0.00
6.464,-0.35,-1.41,-0.25,-2.00,-3.03,-1.28,0.44,-0.15,0.34,0.00
6.465,-0.35,-1.41,-0.25,-2.11,-4.12,-1.59,0.44,-0.15,0.34,0.00
6.466,-0.40,-1.42,-0.20,-2.11,-4.12,-1.59,0.44,-0.15,0.34,0.00
6.467,-0.40,-1.42,-0.20,-2.11,-4.12,-1.59,0.35,-0.01,0.33,0.00
6.468,-0.40,-1.42,-0.20,-2.52,-4.28,-1.17,0.35,-0.01,0.33,0.00
6.469,-0.46,-1.31,-0.09,-2.52,-4.28,-1.17,0.35,-0.01,0.33,0.00
6.471,-0.46,-1.31,-0.09,-2.52,-4.28,-1.17,0.23,0.06,0.35,0.00
6.472,-0.46,-1.31,-0.09,-3.04,-3.14,-0.13,0.23,0.06,0.35,0.00
6.473,-0.46,-1.11,0.02,-3.04,-3.14,-0.13,0.23,0.06,0.35,0.00
6.474,-0.46,-1.11,0.02,-3.04,-3.14,-0.13,0.14,0.04,0.43,0.00
6.475,-0.46,-1.11,0.02,-3.04,-1.26,0.99,0.14,0.04,0.43,0.00
6.481,-0.40,-0.95,0.08,-3.04,-1.26,0.99,0.14,0.04,0.43,0.00
6.483,-0.40,-0.95,0.08,-3.04,-1.26,0.99,0.16,-0.04,0.60,0.00
6.484,-0.40,-0.95,0.08,-2.36,0.35,1.47,0.16,-0.04,0.60,0.00
6.492,-0.32,-0.86,0.08,-2.36,0.35,1.47,0.16,-0.04,0.60,0.00
6.495,-0.32,-0.86,0.08,-2.36,0.35,1.47,0.25,-0.16,0.79,0.00
6.496,-0.32,-0.86,0.08,-1.48,1.19,1.49,0.25,-0.16,0.79,0.00
6.501,-0.25,-0.84,0.04,-1.48,1.19,1.49,0.25,-0.16,0.79,0.00
6.502,-0.25,-0.84,0.04,-1.48,1.19,1.49,0.41,-0.25,0.90,0.00
6.502,-0.25,-0.84,0.04,-0.74,1.42,1.07,0.41,-0.25,0.90,0.00
6.511,-0.21,-0.88,-0.06,-0.74,1.42,1.07,0.41,-0.25,0.90,0.00
6.512,-0.21,-0.88,-0.06,-0.74,1.42,1.07,0.60,-0.25,0.96,0.00
6.513,-0.21,-0.88,-0.06,-0.22,1.01,0.03,0.60,-0.25,0.96,0.00
6.521,-0.17,-1.00,-0.12,-0.22,1.01,0.03,0.60,-0.25,0.96,0.00
6.522,-0.17,-1.00,-0.12,-0.22,1.01,0.03,0.74,-0.14,1.05,0.00
6.522,-0.17,-1.00,-0.12,0.22,-0.20,-0.69,0.74,-0.14,1.05,0.00
6.532,-0.16,-1.13,-0.15,0.22,-0.20,-0.69,0.74,-0.14,1.05,0.00
6.532,-0.16,-1.13,-0.15,0.22,-0.20,-0.69,0.77,0.05,1.18,0.00
