time;gFx;gFy;gFz;ax;ay;az;wx;wy;wz;P
0.003;-0,56;0,69;0,52;0,09;0,25;-0,60;-0,04;0,08;0,33;0,00
0.004;-0,59;0,72;0,59;0,09;0,25;-0,60;-0,04;0,08;0,33;0,00
0.004;-0,62;0,72;0,63;0,09;0,25;-0,60;-0,04;0,08;0,33;0,00
0.005;-0,56;0,72;0,57;0,09;0,25;-0,60;-0,04;0,08;0,33;0,00
0.005;-0,56;0,72;0,57;-0,60;0,90;0,37;-0,04;0,08;0,33;0,00
0.049;-0,56;0,72;0,57;-0,60;0,90;0,37;0,09;0,44;0,56;0,00
0.05;-0,59;0,75;0,53;-0,60;0,90;0,37;0,09;0,44;0,56;0,00
0.05;-0,65;0,79;0,55;-0,60;0,90;0,37;0,09;0,44;0,56;0,00
0.05;-0,66;0,79;0,58;-0,60;0,90;0,37;0,09;0,44;0,56;0,00
0.051;-0,66;0,79;0,58;-0,88;1,19;0,03;0,09;0,44;0,56;0,00
0.107;-0,66;0,79;0,58;-0,88;1,19;0,03;0,18;0,65;0,87;0,00
0.108;-0,66;0,79;0,58;-1,24;0,85;0,75;0,18;0,65;0,87;0,00
0.109;-0,66;0,78;0,60;-1,24;0,85;0,75;0,18;0,65;0,87;0,00
0.109;-0,64;0,76;0,60;-1,24;0,85;0,75;0,18;0,65;0,87;0,00
0.109;-0,56;0,72;0,57;-1,24;0,85;0,75;0,18;0,65;0,87;0,00
0.167;-0,56;0,72;0,57;-1,24;0,85;0,75;-0,05;0,39;0,77;0,00
0.168;-0,49;0,69;0,56;-1,24;0,85;0,75;-0,05;0,39;0,77;0,00
0.169;-0,49;0,66;0,59;-1,24;0,85;0,75;-0,05;0,39;0,77;0,00
0.169;-0,54;0,63;0,60;-1,24;0,85;0,75;-0,05;0,39;0,77;0,00
0.17;-0,54;0,63;0,60;-0,09;-0,28;0,71;-0,05;0,39;0,77;0,00
0.225;-0,54;0,63;0,60;-0,09;-0,28;0,71;-0,28;0,05;0,13;0,00
0.225;-0,54;0,63;0,60;-0,56;-0,45;0,36;-0,28;0,05;0,13;0,00
0.226;-0,53;0,63;0,57;-0,56;-0,45;0,36;-0,28;0,05;0,13;0,00
0.226;-0,54;0,66;0,54;-0,56;-0,45;0,36;-0,28;0,05;0,13;0,00
0.227;-0,59;0,73;0,49;-0,56;-0,45;0,36;-0,28;0,05;0,13;0,00
0.283;-0,59;0,73;0,49;-0,56;-0,45;0,36;-0,27;0,05;-0,15;0,00
0.283;-0,59;0,73;0,49;-0,83;0,57;-0,34;-0,27;0,05;-0,15;0,00
0.291;-0,58;0,77;0,49;-0,83;0,57;-0,34;-0,27;0,05;-0,15;0,00
0.291;-0,59;0,75;0,49;-0,83;0,57;-0,34;-0,27;0,05;-0,15;0,00
0.292;-0,54;0,68;0,48;-0,83;0,57;-0,34;-0,27;0,05;-0,15;0,00
0.342;-0,54;0,68;0,48;-0,83;0,57;-0,34;-0,02;0,30;0,10;0,00
0.343;-0,48;0,62;0,44;-0,83;0,57;-0,34;-0,02;0,30;0,10;0,00
0.343;-0,43;0,59;0,39;-0,83;0,57;-0,34;-0,02;0,30;0,10;0,00
0.344;-0,39;0,58;0,38;-0,83;0,57;-0,34;-0,02;0,30;0,10;0,00
0.344;-0,39;0,58;0,38;0,45;-0,77;-0,96;-0,02;0,30;0,10;0,00
0.4;-0,39;0,58;0,38;0,45;-0,77;-0,96;0,08;0,27;0,07;0,00
0.401;-0,39;0,58;0,38;1,25;-1,06;-1,50;0,08;0,27;0,07;0,00
0.401;-0,39;0,58;0,37;1,25;-1,06;-1,50;0,08;0,27;0,07;0,00
0.401;-0,37;0,58;0,34;1,25;-1,06;-1,50;0,08;0,27;0,07;0,00
0.402;-0,38;0,59;0,32;1,25;-1,06;-1,50;0,08;0,27;0,07;0,00
0.461;-0,38;0,59;0,32;1,25;-1,06;-1,50;-0,03;0,10;-0,08;0,00
0.462;-0,38;0,59;0,32;1,09;-0,69;-1,66;-0,03;0,10;-0,08;0,00
0.463;-0,40;0,61;0,32;1,09;-0,69;-1,66;-0,03;0,10;-0,08;0,00
0.463;-0,40;0,62;0,34;1,09;-0,69;-1,66;-0,03;0,10;-0,08;0,00
0.464;-0,41;0,65;0,35;1,09;-0,69;-1,66;-0,03;0,10;-0,08;0,00
0.517;-0,41;0,65;0,35;1,09;-0,69;-1,66;-0,07;0,03;-0,20;0,00
0.517;-0,43;0,66;0,36;1,09;-0,69;-1,66;-0,07;0,03;-0,20;0,00
0.518;-0,47;0,66;0,37;1,09;-0,69;-1,66;-0,07;0,03;-0,20;0,00
0.518;-0,52;0,70;0,41;1,09;-0,69;-1,66;-0,07;0,03;-0,20;0,00
0.519;-0,52;0,70;0,41;0,62;-0,17;-1,27;-0,07;0,03;-0,20;0,00
0.585;-0,52;0,70;0,41;0,62;-0,17;-1,27;0,07;-0,14;-0,19;0,00
0.586;-0,52;0,74;0,45;0,62;-0,17;-1,27;0,07;-0,14;-0,19;0,00
0.587;-0,54;0,76;0,46;0,62;-0,17;-1,27;0,07;-0,14;-0,19;0,00
0.588;-0,57;0,77;0,48;0,62;-0,17;-1,27;0,07;-0,14;-0,19;0,00
0.589;-0,57;0,77;0,48;-0,14;0,67;-0,43;0,07;-0,14;-0,19;0,00
0.632;-0,57;0,77;0,48;-0,14;0,67;-0,43;0,25;-0,19;-0,11;0,00
0.633;-0,57;0,77;0,48;-1,08;1,12;0,23;0,25;-0,19;-0,11;0,00
0.634;-0,61;0,78;0,53;-1,08;1,12;0,23;0,25;-0,19;-0,11;0,00
0.635;-0,66;0,80;0,54;-1,08;1,12;0,23;0,25;-0,19;-0,11;0,00
0.635;-0,67;0,84;0,47;-1,08;1,12;0,23;0,25;-0,19;-0,11;0,00
0.691;-0,67;0,84;0,47;-1,08;1,12;0,23;0,10;-0,18;-0,07;0,00
0.692;-0,66;0,89;0,44;-1,08;1,12;0,23;0,10;-0,18;-0,07;0,00
0.692;-0,67;0,92;0,53;-1,08;1,12;0,23;0,10;-0,18;-0,07;0,00
0.692;-0,71;0,88;0,69;-1,08;1,12;0,23;0,10;-0,18;-0,07;0,00
0.693;-0,71;0,88;0,69;-1,49;2,06;0,14;0,10;-0,18;-0,07;0,00
0.75;-0,71;0,88;0,69;-1,49;2,06;0,14;-0,37;-0,24;-0,38;0,00
0.752;-0,71;0,88;0,69;-1,80;0,64;2,07;-0,37;-0,24;-0,38;0,00
0.753;-0,73;0,77;0,75;-1,80;0,64;2,07;-0,37;-0,24;-0,38;0,00
0.753;-0,72;0,67;0,73;-1,80;0,64;2,07;-0,37;-0,24;-0,38;0,00
0.754;-0,65;0,66;0,70;-1,80;0,64;2,07;-0,37;-0,24;-0,38;0,00
0.808;-0,65;0,66;0,70;-1,80;0,64;2,07;-0,12;0,25;-0,60;0,00
0.809;-0,65;0,66;0,70;0,20;-0,03;0,90;-0,12;0,25;-0,60;0,00
0.809;-0,56;0,66;0,65;0,20;-0,03;0,90;-0,12;0,25;-0,60;0,00
0.81;-0,50;0,62;0,59;0,20;-0,03;0,90;-0,12;0,25;-0,60;0,00
0.81;-0,45;0,62;0,48;0,20;-0,03;0,90;-0,12;0,25;-0,60;0,00
0.866;-0,45;0,62;0,48;0,20;-0,03;0,90;-0,05;0,47;-0,65;0,00
0.867;-0,45;0,62;0,48;2,01;-0,23;-0,09;-0,05;0,47;-0,65;0,00
0.867;-0,40;0,65;0,48;2,01;-0,23;-0,09;-0,05;0,47;-0,65;0,00
0.868;-0,36;0,58;0,53;2,01;-0,23;-0,09;-0,05;0,47;-0,65;0,00
0.868;-0,33;0,48;0,50;2,01;-0,23;-0,09;-0,05;0,47;-0,65;0,00
0.926;-0,33;0,48;0,50;2,01;-0,23;-0,09;-0,33;0,51;-0,99;0,00
0.927;-0,27;0,40;0,41;2,01;-0,23;-0,09;-0,33;0,51;-0,99;0,00
0.928;-0,25;0,37;0,29;2,01;-0,23;-0,09;-0,33;0,51;-0,99;0,00
0.929;-0,26;0,39;0,27;2,01;-0,23;-0,09;-0,33;0,51;-0,99;0,00
0.93;-0,26;0,39;0,27;3,53;-1,76;-1,39;-0,33;0,51;-0,99;0,00
0.983;-0,26;0,39;0,27;3,53;-1,76;-1,39;-0,67;1,49;-1,61;0,00
0.984;-0,26;0,39;0,27;4,55;-1,67;-2,36;-0,67;1,49;-1,61;0,00
0.985;-0,25;0,35;0,24;4,55;-1,67;-2,36;-0,67;1,49;-1,61;0,00
0.985;-0,23;0,31;0,20;4,55;-1,67;-2,36;-0,67;1,49;-1,61;0,00
0.986;-0,23;0,26;0,17;4,55;-1,67;-2,36;-0,67;1,49;-1,61;0,00
1.042;-0,23;0,26;0,17;4,55;-1,67;-2,36;-0,77;1,64;-2,36;0,00
1.043;-0,23;0,26;0,17;4,75;-2,07;-1,66;-0,77;1,64;-2,36;0,00
1.044;-0,33;0,20;0,23;4,75;-2,07;-1,66;-0,77;1,64;-2,36;0,00
1.044;-0,34;0,14;0,27;4,75;-2,07;-1,66;-0,77;1,64;-2,36;0,00
1.045;-0,27;0,07;0,20;4,75;-2,07;-1,66;-0,77;1,64;-2,36;0,00
1.101;-0,27;0,07;0,20;4,75;-2,07;-1,66;-0,70;1,39;-3,21;0,00
1.103;-0,14;0,01;0,10;4,75;-2,07;-1,66;-0,70;1,39;-3,21;0,00
1.103;-0,19;-0,11;0,03;4,75;-2,07;-1,66;-0,70;1,39;-3,21;0,00
1.104;-0,42;-0,26;0,19;4,75;-2,07;-1,66;-0,70;1,39;-3,21;0,00
1.105;-0,42;-0,26;0,19;6,43;-2,62;-2,52;-0,70;1,39;-3,21;0,00
1.158;-0,42;-0,26;0,19;6,43;-2,62;-2,52;-0,81;1,30;-3,95;0,00
1.159;-0,42;-0,26;0,19;2,88;-3,65;1,01;-0,81;1,30;-3,95;0,00
1.159;-0,64;-0,40;0,43;2,88;-3,65;1,01;-0,81;1,30;-3,95;0,00
1.159;-0,69;-0,42;0,42;2,88;-3,65;1,01;-0,81;1,30;-3,95;0,00
1.16;-0,60;-0,40;0,23;2,88;-3,65;1,01;-0,81;1,30;-3,95;0,00
1.218;-0,60;-0,40;0,23;2,88;-3,65;1,01;-0,92;0,47;-4,27;0,00
1.219;-0,64;-0,52;0,10;2,88;-3,65;1,01;-0,92;0,47;-4,27;0,00
1.22;-0,79;-0,78;0,20;2,88;-3,65;1,01;-0,92;0,47;-4,27;0,00
1.22;-0,99;-0,99;0,43;2,88;-3,65;1,01;-0,92;0,47;-4,27;0,00
1.221;-0,99;-0,99;0,43;1,48;-3,92;-0,45;-0,92;0,47;-4,27;0,00
1.276;-0,99;-0,99;0,43;1,48;-3,92;-0,45;-1,00;0,46;-4,09;0,00
1.277;-1,05;-1,06;0,40;1,48;-3,92;-0,45;-1,00;0,46;-4,09;0,00
1.278;-0,95;-1,01;0,16;1,48;-3,92;-0,45;-1,00;0,46;-4,09;0,00
1.279;-0,97;-1,13;-0,04;1,48;-3,92;-0,45;-1,00;0,46;-4,09;0,00
1.28;-0,97;-1,13;-0,04;-1,87;-5,44;0,63;-1,00;0,46;-4,09;0,00
1.334;-0,97;-1,13;-0,04;-1,87;-5,44;0,63;-1,50;0,75;-3,85;0,00
1.336;-0,97;-1,13;-0,04;-3,09;-6,59;0,39;-1,50;0,75;-3,85;0,00
1.336;-1,03;-1,32;0,03;-3,09;-6,59;0,39;-1,50;0,75;-3,85;0,00
1.337;-1,00;-1,38;0,25;-3,09;-6,59;0,39;-1,50;0,75;-3,85;0,00
1.338;-0,89;-1,59;0,48;-3,09;-6,59;0,39;-1,50;0,75;-3,85;0,00
1.393;-0,89;-1,59;0,48;-3,09;-6,59;0,39;-1,56;-0,99;-4,01;0,00
1.394;-0,82;-1,66;0,51;-3,09;-6,59;0,39;-1,56;-0,99;-4,01;0,00
1.395;-0,82;-1,63;0,37;-3,09;-6,59;0,39;-1,56;-0,99;-4,01;0,00
1.396;-0,84;-1,70;0,18;-3,09;-6,59;0,39;-1,56;-0,99;-4,01;0,00
1.397;-0,84;-1,70;0,18;-3,09;-7,92;3,30;-1,56;-0,99;-4,01;0,00
1.453;-0,84;-1,70;0,18;-3,09;-7,92;3,30;-1,32;-0,71;-3,72;0,00
1.455;-0,84;-1,70;0,18;-4,79;-6,88;1,66;-1,32;-0,71;-3,72;0,00
1.459;-0,76;-1,74;0,16;-4,79;-6,88;1,66;-1,32;-0,71;-3,72;0,00
1.459;-0,81;-1,59;0,21;-4,79;-6,88;1,66;-1,32;-0,71;-3,72;0,00
1.46;-0,88;-1,54;0,30;-4,79;-6,88;1,66;-1,32;-0,71;-3,72;0,00
1.508;-0,88;-1,54;0,30;-4,79;-6,88;1,66;-0,84;-0,48;-2,46;0,00
1.508;-0,88;-1,54;0,30;-7,50;-3,74;3,56;-0,84;-0,48;-2,46;0,00
1.509;-0,91;-1,46;0,36;-7,50;-3,74;3,56;-0,84;-0,48;-2,46;0,00
1.51;-0,96;-1,32;0,35;-7,50;-3,74;3,56;-0,84;-0,48;-2,46;0,00
1.51;-0,97;-1,12;0,32;-7,50;-3,74;3,56;-0,84;-0,48;-2,46;0,00
1.567;-0,97;-1,12;0,32;-6,26;1,52;2,18;-0,84;-0,48;-2,46;0,00
1.568;-0,97;-1,12;0,32;-6,26;1,52;2,18;0,02;-2,39;-0,78;0,00
1.568;-0,84;-0,92;0,27;-6,26;1,52;2,18;0,02;-2,39;-0,78;0,00
1.568;-0,68;-0,75;0,18;-6,26;1,52;2,18;0,02;-2,39;-0,78;0,00
1.569;-0,57;-0,62;0,09;-6,26;1,52;2,18;0,02;-2,39;-0,78;0,00
1.625;-0,57;-0,62;0,09;-6,26;1,52;2,18;0,34;-2,26;0,00;0,00
1.627;-0,57;-0,62;0,09;-2,99;4,92;-0,05;0,34;-2,26;0,00;0,00
1.628;-0,47;-0,51;0,04;-2,99;4,92;-0,05;0,34;-2,26;0,00;0,00
1.628;-0,38;-0,45;0,01;-2,99;4,92;-0,05;0,34;-2,26;0,00;0,00
1.629;-0,34;-0,42;-0,01;-2,99;4,92;-0,05;0,34;-2,26;0,00;0,00
1.684;-0,34;-0,42;-0,01;-2,99;4,92;-0,05;0,19;-0,70;-0,10;0,00
1.687;-0,34;-0,42;-0,01;-2,06;5,00;-0,57;0,19;-0,70;-0,10;0,00
1.688;-0,31;-0,42;-0,01;-2,06;5,00;-0,57;0,19;-0,70;-0,10;0,00
1.688;-0,34;-0,49;-0,00;-2,06;5,00;-0,57;0,19;-0,70;-0,10;0,00
1.689;-0,39;-0,63;0,01;-2,06;5,00;-0,57;0,19;-0,70;-0,10;0,00
1.742;-0,39;-0,63;0,01;-2,06;5,00;-0,57;-0,03;0,40;-0,34;0,00
1.743;-0,39;-0,63;0,01;-3,36;1,91;-0,21;-0,03;0,40;-0,34;0,00
1.743;-0,45;-0,75;0,02;-3,36;1,91;-0,21;-0,03;0,40;-0,34;0,00
1.744;-0,47;-0,84;0,03;-3,36;1,91;-0,21;-0,03;0,40;-0,34;0,00
1.744;-0,50;-0,90;0,07;-3,36;1,91;-0,21;-0,03;0,40;-0,34;0,00
1.8;-0,50;-0,90;0,07;-3,36;1,91;-0,21;0,05;0,68;-0,03;0,00
1.801;-0,52;-0,93;0,11;-3,36;1,91;-0,21;0,05;0,68;-0,03;0,00
1.801;-0,55;-0,98;0,13;-3,36;1,91;-0,21;0,05;0,68;-0,03;0,00
1.801;-0,54;-1,03;0,12;-3,36;1,91;-0,21;0,05;0,68;-0,03;0,00
1.802;-0,54;-1,03;0,12;-4,07;0,22;0,66;0,05;0,68;-0,03;0,00
1.857;-0,54;-1,03;0,12;-4,07;0,22;0,66;0,46;0,53;0,54;0,00
1.858;-0,54;-1,03;0,12;-3,10;-1,38;-0,23;0,46;0,53;0,54;0,00
1.861;-0,49;-1,09;0,06;-3,10;-1,38;-0,23;0,46;0,53;0,54;0,00
1.862;-0,43;-1,16;0,01;-3,10;-1,38;-0,23;0,46;0,53;0,54;0,00
1.862;-0,43;-1,18;0,03;-3,10;-1,38;-0,23;0,46;0,53;0,54;0,00
1.917;-0,43;-1,18;0,03;-3,10;-1,38;-0,23;0,50;0,55;0,78;0,00
1.917;-0,45;-1,15;0,06;-3,10;-1,38;-0,23;0,50;0,55;0,78;0,00
1.918;-0,40;-1,22;0,02;-3,10;-1,38;-0,23;0,50;0,55;0,78;0,00
1.918;-0,31;-1,39;-0,02;-3,10;-1,38;-0,23;0,50;0,55;0,78;0,00
1.918;-0,31;-1,39;-0,02;-2,07;-2,33;-0,57;0,50;0,55;0,78;0,00
1.975;-0,31;-1,39;-0,02;-2,07;-2,33;-0,57;0,12;0,91;0,56;0,00
1.975;-0,31;-1,39;-0,02;-0,62;-4,43;-0,25;0,12;0,91;0,56;0,00
1.976;-0,28;-1,49;0,02;-0,62;-4,43;-0,25;0,12;0,91;0,56;0,00
1.976;-0,31;-1,42;0,11;-0,62;-4,43;-0,25;0,12;0,91;0,56;0,00
1.976;-0,37;-1,27;0,17;-0,62;-4,43;-0,25;0,12;0,91;0,56;0,00
1.995;-0,38;-1,19;0,19;-0,62;-4,43;-0,25;0,12;0,91;0,56;0,00
2.052;-0,38;-1,19;0,19;0,39;-4,64;0,01;0,12;0,91;0,56;0,00
2.053;-0,38;-1,19;0,19;0,39;-4,64;0,01;0,18;1,41;0,86;0,00
2.097;-0,33;-1,08;0,15;0,39;-4,64;0,01;0,18;1,41;0,86;0,00
2.098;-0,24;-1,00;0,15;0,39;-4,64;0,01;0,18;1,41;0,86;0,00
2.099;-0,23;-0,92;0,16;0,39;-4,64;0,01;0,18;1,41;0,86;0,00
2.151;-0,27;-0,77;0,18;0,39;-4,64;0,01;0,18;1,41;0,86;0,00
2.203;-0,27;-0,77;0,18;0,39;-4,64;0,01;0,23;1,07;1,22;0,00
2.206;-0,27;-0,77;0,18;1,50;-5,03;0,20;0,23;1,07;1,22;0,00
2.206;-0,27;-0,70;0,17;1,50;-5,03;0,20;0,23;1,07;1,22;0,00
2.207;-0,25;-0,65;0,18;1,50;-5,03;0,20;0,23;1,07;1,22;0,00
2.207;-0,21;-0,63;0,20;1,50;-5,03;0,20;0,23;1,07;1,22;0,00
2.262;-0,21;-0,63;0,20;1,50;-5,03;0,20;0,43;0,53;1,53;0,00
2.263;-0,16;-0,62;0,19;1,50;-5,03;0,20;0,43;0,53;1,53;0,00
2.263;-0,08;-0,62;0,15;1,50;-5,03;0,20;0,43;0,53;1,53;0,00
2.264;-0,02;-0,64;0,11;1,50;-5,03;0,20;0,43;0,53;1,53;0,00
2.264;-0,02;-0,64;0,11;3,18;2,25;1,32;0,43;0,53;1,53;0,00
2.32;-0,02;-0,64;0,11;3,18;2,25;1,32;0,59;0,18;1,33;0,00
2.322;-0,02;-0,64;0,11;5,48;1,65;0,34;0,59;0,18;1,33;0,00
2.323;0,02;-0,67;0,08;5,48;1,65;0,34;0,59;0,18;1,33;0,00
2.323;0,02;-0,71;0,08;5,48;1,65;0,34;0,59;0,18;1,33;0,00
2.324;-0,01;-0,73;0,08;5,48;1,65;0,34;0,59;0,18;1,33;0,00
2.38;-0,01;-0,73;0,08;5,48;1,65;0,34;0,25;0,61;0,38;0,00
2.381;-0,13;-0,79;0,13;5,48;1,65;0,34;0,25;0,61;0,38;0,00
2.382;-0,19;-0,83;0,18;5,48;1,65;0,34;0,25;0,61;0,38;0,00
2.385;-0,17;-0,90;0,18;5,48;1,65;0,34;0,25;0,61;0,38;0,00
2.385;-0,17;-0,90;0,18;5,49;0,54;0,28;0,25;0,61;0,38;0,00
2.438;-0,17;-0,90;0,18;5,49;0,54;0,28;-0,10;0,16;-0,47;0,00
2.439;-0,17;-0,90;0,18;3,92;-0,86;1,04;-0,10;0,16;-0,47;0,00
2.44;-0,15;-0,98;0,14;3,92;-0,86;1,04;-0,10;0,16;-0,47;0,00
2.44;-0,20;-1,10;0,13;3,92;-0,86;1,04;-0,10;0,16;-0,47;0,00
2.441;-0,27;-1,20;0,15;3,92;-0,86;1,04;-0,10;0,16;-0,47;0,00
2.495;-0,27;-1,20;0,15;3,92;-0,86;1,04;-0,27;-0,15;-1,11;0,00
2.497;-0,27;-1,20;0,15;2,39;-3,09;0,92;-0,27;-0,15;-1,11;0,00
2.498;-0,34;-1,22;0,16;2,39;-3,09;0,92;-0,27;-0,15;-1,11;0,00
2.498;-0,39;-1,17;0,15;2,39;-3,09;0,92;-0,27;-0,15;-1,11;0,00
2.499;-0,41;-1,06;0,13;2,39;-3,09;0,92;-0,27;-0,15;-1,11;0,00
2.554;-0,41;-1,06;0,13;2,39;-3,09;0,92;-0,33;-0,87;-1,37;0,00
2.555;-0,43;-1,03;0,07;2,39;-3,09;0,92;-0,33;-0,87;-1,37;0,00
2.555;-0,42;-1,21;0,01;2,39;-3,09;0,92;-0,33;-0,87;-1,37;0,00
2.555;-0,40;-1,34;0,03;2,39;-3,09;0,92;-0,33;-0,87;-1,37;0,00
2.556;-0,40;-1,34;0,03;0,30;-1,86;0,51;-0,33;-0,87;-1,37;0,00
2.612;-0,40;-1,34;0,03;0,30;-1,86;0,51;-0,56;-1,15;-1,23;0,00
2.613;-0,45;-1,38;0,08;0,30;-1,86;0,51;-0,56;-1,15;-1,23;0,00
2.613;-0,50;-1,31;0,14;0,30;-1,86;0,51;-0,56;-1,15;-1,23;0,00
2.613;-0,52;-1,25;0,16;0,30;-1,86;0,51;-0,56;-1,15;-1,23;0,00
2.614;-0,52;-1,25;0,16;-0,53;-3,66;-0,20;-0,56;-1,15;-1,23;0,00
2.669;-0,52;-1,25;0,16;-0,53;-3,66;-0,20;-0,69;-1,59;-1,21;0,00
2.67;-0,52;-1,25;0,16;-2,06;-2,80;0,75;-0,69;-1,59;-1,21;0,00
2.67;-0,51;-1,20;0,09;-2,06;-2,80;0,75;-0,69;-1,59;-1,21;0,00
2.67;-0,46;-1,11;0,02;-2,06;-2,80;0,75;-0,69;-1,59;-1,21;0,00
2.67;-0,43;-1,03;0,04;-2,06;-2,80;0,75;-0,69;-1,59;-1,21;0,00
2.729;-0,43;-1,03;0,04;-2,06;-2,80;0,75;-0,51;-1,25;-0,92;0,00
2.73;-0,46;-0,93;0,07;-2,06;-2,80;0,75;-0,51;-1,25;-0,92;0,00
2.731;-0,51;-0,80;0,10;-2,06;-2,80;0,75;-0,51;-1,25;-0,92;0,00
2.732;-0,51;-0,65;0,10;-2,06;-2,80;0,75;-0,51;-1,25;-0,92;0,00
2.732;-0,51;-0,65;0,10;-1,95;-0,42;-0,00;-0,51;-1,25;-0,92;0,00
2.787;-0,51;-0,65;0,10;-1,95;-0,42;-0,00;-0,21;-0,37;-0,46;0,00
2.788;-0,51;-0,65;0,10;-2,63;3,19;0,60;-0,21;-0,37;-0,46;0,00
2.788;-0,47;-0,53;0,10;-2,63;3,19;0,60;-0,21;-0,37;-0,46;0,00
2.788;-0,40;-0,46;0,11;-2,63;3,19;0,60;-0,21;-0,37;-0,46;0,00
2.789;-0,34;-0,45;0,08;-2,63;3,19;0,60;-0,21;-0,37;-0,46;0,00
2.852;-0,34;-0,45;0,08;-2,63;3,19;0,60;0,02;-0,48;0,06;0,00
2.853;-0,34;-0,45;0,08;-1,13;4,99;0,33;0,02;-0,48;0,06;0,00
2.854;-0,30;-0,49;0,05;-1,13;4,99;0,33;0,02;-0,48;0,06;0,00
2.855;-0,25;-0,56;0,05;-1,13;4,99;0,33;0,02;-0,48;0,06;0,00
2.856;-0,26;-0,68;0,06;-1,13;4,99;0,33;0,02;-0,48;0,06;0,00
2.903;-0,26;-0,68;0,06;-1,13;4,99;0,33;-0,04;-0,01;-0,02;0,00
2.904;-0,26;-0,68;0,06;-0,34;2,99;0,17;-0,04;-0,01;-0,02;0,00
2.905;-0,29;-0,76;0,07;-0,34;2,99;0,17;-0,04;-0,01;-0,02;0,00
2.905;-0,34;-0,85;0,11;-0,34;2,99;0,17;-0,04;-0,01;-0,02;0,00
2.906;-0,37;-0,91;0,16;-0,34;2,99;0,17;-0,04;-0,01;-0,02;0,00
2.964;-0,37;-0,91;0,16;-0,34;2,99;0,17;-0,20;0,18;-0,34;0,00
2.964;-0,40;-0,88;0,18;-0,34;2,99;0,17;-0,20;0,18;-0,34;0,00
2.965;-0,42;-0,84;0,18;-0,34;2,99;0,17;-0,20;0,18;-0,34;0,00
2.965;-0,41;-0,82;0,16;-0,34;2,99;0,17;-0,20;0,18;-0,34;0,00
2.966;-0,41;-0,82;0,16;-1,53;0,93;1,18;-0,20;0,18;-0,34;0,00
3.02;-0,41;-0,82;0,16;-2,00;1,38;1,10;-0,20;0,18;-0,34;0,00
3.021;-0,41;-0,82;0,16;-2,00;1,38;1,10;0,18;0,20;-0,12;0,00
3.022;-0,41;-0,83;0,12;-2,00;1,38;1,10;0,18;0,20;-0,12;0,00
3.022;-0,41;-0,91;0,08;-2,00;1,38;1,10;0,18;0,20;-0,12;0,00
3.023;-0,43;-1,03;0,05;-2,00;1,38;1,10;0,18;0,20;-0,12;0,00
3.078;-0,43;-1,03;0,05;-2,22;-0,55;0,02;0,18;0,20;-0,12;0,00
3.079;-0,43;-1,03;0,05;-2,22;-0,55;0,02;0,44;0,48;0,11;0,00
3.079;-0,51;-1,14;0,06;-2,22;-0,55;0,02;0,44;0,48;0,11;0,00
3.079;-0,57;-1,07;0,12;-2,22;-0,55;0,02;0,44;0,48;0,11;0,00
3.08;-0,52;-1,02;0,17;-2,22;-0,55;0,02;0,44;0,48;0,11;0,00
3.137;-0,52;-1,02;0,17;-2,22;-0,55;0,02;0,37;-0,03;0,39;0,00
3.139;-0,41;-1,22;0,09;-2,22;-0,55;0,02;0,37;-0,03;0,39;0,00
3.139;-0,38;-1,41;-0,02;-2,22;-0,55;0,02;0,37;-0,03;0,39;0,00
3.14;-0,39;-1,48;-0,04;-2,22;-0,55;0,02;0,37;-0,03;0,39;0,00
3.141;-0,39;-1,48;-0,04;-2,46;-1,34;0,43;0,37;-0,03;0,39;0,00
3.195;-0,39;-1,48;-0,04;-1,34;-4,42;-0,85;0,37;-0,03;0,39;0,00
3.196;-0,39;-1,48;-0,04;-1,34;-4,42;-0,85;0,18;0,25;0,33;0,00
3.196;-0,46;-1,37;0,06;-1,34;-4,42;-0,85;0,18;0,25;0,33;0,00
3.197;-0,49;-1,26;0,17;-1,34;-4,42;-0,85;0,18;0,25;0,33;0,00
3.197;-0,48;-1,29;0,21;-1,34;-4,42;-0,85;0,18;0,25;0,33;0,00
3.254;-0,48;-1,29;0,21;-1,41;-3,38;1,04;0,18;0,25;0,33;0,00
3.256;-0,48;-1,29;0,21;-1,41;-3,38;1,04;0,21;1,14;0,78;0,00
3.256;-0,43;-1,36;0,18;-1,41;-3,38;1,04;0,21;1,14;0,78;0,00
3.257;-0,35;-1,35;0,18;-1,41;-3,38;1,04;0,21;1,14;0,78;0,00
3.258;-0,23;-1,34;0,17;-1,41;-3,38;1,04;0,21;1,14;0,78;0,00
3.312;-0,23;-1,34;0,17;-1,41;-3,38;1,04;0,54;0,81;1,33;0,00
3.312;-0,23;-1,34;0,17;1,46;-3,46;0,82;0,54;0,81;1,33;0,00
3.313;-0,16;-1,17;0,19;1,46;-3,46;0,82;0,54;0,81;1,33;0,00
3.313;-0,14;-1,02;0,20;1,46;-3,46;0,82;0,54;0,81;1,33;0,00
3.313;-0,16;-0,91;0,18;1,46;-3,46;0,82;0,54;0,81;1,33;0,00
3.37;-0,16;-0,91;0,18;3,26;-0,27;0,75;0,54;0,81;1,33;0,00
3.37;-0,16;-0,91;0,18;3,26;-0,27;0,75;0,91;1,12;1,39;0,00
3.371;-0,12;-0,83;0,20;3,26;-0,27;0,75;0,91;1,12;1,39;0,00
3.372;-0,09;-0,75;0,18;3,26;-0,27;0,75;0,91;1,12;1,39;0,00
3.372;-0,09;-0,70;0,11;3,26;-0,27;0,75;0,91;1,12;1,39;0,00
3.429;-0,09;-0,70;0,11;3,26;-0,27;0,75;1,16;1,05;1,29;0,00
3.431;-0,09;-0,70;0,11;4,50;1,32;-0,15;1,16;1,05;1,29;0,00
3.432;-0,06;-0,67;0,10;4,50;1,32;-0,15;1,16;1,05;1,29;0,00
3.432;-0,05;-0,65;0,12;4,50;1,32;-0,15;1,16;1,05;1,29;0,00
3.433;-0,07;-0,63;0,13;4,50;1,32;-0,15;1,16;1,05;1,29;0,00
3.487;-0,07;-0,57;0,08;4,50;1,32;-0,15;1,16;1,05;1,29;0,00
3.488;-0,06;-0,50;0,03;4,50;1,32;-0,15;1,16;1,05;1,29;0,00
3.488;-0,10;-0,43;0,02;4,50;1,32;-0,15;1,16;1,05;1,29;0,00
3.489;-0,10;-0,43;0,02;4,50;1,32;-0,15;1,09;1,14;0,90;0,00
3.489;-0,10;-0,43;0,02;5,08;1,80;-0,47;1,09;1,14;0,90;0,00
3.546;-0,10;-0,43;0,02;5,08;1,80;-0,47;0,55;0,78;0,16;0,00
3.548;-0,10;-0,43;0,02;4,78;3,39;-1,24;0,55;0,78;0,16;0,00
3.549;-0,14;-0,39;0,03;4,78;3,39;-1,24;0,55;0,78;0,16;0,00
3.552;-0,14;-0,38;0,02;4,78;3,39;-1,24;0,55;0,78;0,16;0,00
3.555;-0,13;-0,43;0,00;4,78;3,39;-1,24;0,55;0,78;0,16;0,00
3.604;-0,13;-0,43;0,00;4,78;3,39;-1,24;-0,34;-0,29;-0,76;0,00
3.607;-0,12;-0,54;-0,03;4,78;3,39;-1,24;-0,34;-0,29;-0,76;0,00
3.608;-0,18;-0,74;-0,02;4,78;3,39;-1,24;-0,34;-0,29;-0,76;0,00
3.608;-0,25;-0,98;0,09;4,78;3,39;-1,24;-0,34;-0,29;-0,76;0,00
3.608;-0,25;-0,98;0,09;4,07;3,52;-1,43;-0,34;-0,29;-0,76;0,00
3.661;-0,25;-0,98;0,09;4,07;3,52;-1,43;-1,61;-1,05;-1,92;0,00
3.662;-0,25;-0,98;0,09;2,03;-0,78;0,17;-1,61;-1,05;-1,92;0,00
3.663;-0,27;-1,15;0,27;2,03;-0,78;0,17;-1,61;-1,05;-1,92;0,00
3.663;-0,32;-1,23;0,33;2,03;-0,78;0,17;-1,61;-1,05;-1,92;0,00
3.663;-0,35;-1,43;0,26;2,03;-0,78;0,17;-1,61;-1,05;-1,92;0,00
3.72;-0,35;-1,43;0,26;2,03;-0,78;0,17;-2,11;-2,02;-2,31;0,00
3.721;-0,35;-1,69;0,26;2,03;-0,78;0,17;-2,11;-2,02;-2,31;0,00
3.722;-0,42;-1,76;0,34;2,03;-0,78;0,17;-2,11;-2,02;-2,31;0,00
3.722;-0,49;-1,59;0,39;2,03;-0,78;0,17;-2,11;-2,02;-2,31;0,00
3.723;-0,49;-1,59;0,39;-0,30;-4,97;2,46;-2,11;-2,02;-2,31;0,00
3.779;-0,49;-1,59;0,39;-0,30;-4,97;2,46;-1,61;-2,75;-1,72;0,00
3.78;-0,42;-1,47;0,31;-0,30;-4,97;2,46;-1,61;-2,75;-1,72;0,00
3.781;-0,28;-1,55;0,16;-0,30;-4,97;2,46;-1,61;-2,75;-1,72;0,00
3.781;-0,20;-1,55;0,01;-0,30;-4,97;2,46;-1,61;-2,75;-1,72;0,00
3.782;-0,20;-1,55;0,01;-2,19;-6,15;3,51;-1,61;-2,75;-1,72;0,00
3.836;-0,20;-1,55;0,01;-0,69;-4,98;0,65;-1,61;-2,75;-1,72;0,00
3.838;-0,20;-1,55;0,01;-0,69;-4,98;0,65;-0,46;-1,81;-0,88;0,00
3.839;-0,24;-1,42;-0,01;-0,69;-4,98;0,65;-0,46;-1,81;-0,88;0,00
3.84;-0,32;-1,25;0,09;-0,69;-4,98;0,65;-0,46;-1,81;-0,88;0,00
3.841;-0,39;-1,00;0,12;-0,69;-4,98;0,65;-0,46;-1,81;-0,88;0,00
3.895;-0,39;-1,00;0,12;-0,69;-4,98;0,65;0,04;-0,37;-0,68;0,00
3.895;-0,39;-1,00;0,12;-2,39;0,01;1,10;0,04;-0,37;-0,68;0,00
3.895;-0,42;-0,76;0,10;-2,39;0,01;1,10;0,04;-0,37;-0,68;0,00
3.896;-0,38;-0,60;0,06;-2,39;0,01;1,10;0,04;-0,37;-0,68;0,00
3.896;-0,32;-0,49;0,02;-2,39;0,01;1,10;0,04;-0,37;-0,68;0,00
3.955;-0,32;-0,49;0,02;-2,03;4,85;0,08;0,04;-0,37;-0,68;0,00
3.956;-0,32;-0,49;0,02;-2,03;4,85;0,08;0,34;-0,70;-0,16;0,00
3.957;-0,31;-0,42;0,00;-2,03;4,85;0,08;0,34;-0,70;-0,16;0,00
3.958;-0,28;-0,43;-0,00;-2,03;4,85;0,08;0,34;-0,70;-0,16;0,00
3.959;-0,28;-0,47;-0,01;-2,03;4,85;0,08;0,34;-0,70;-0,16;0,00
3.981;-0,28;-0,47;-0,01;-2,03;4,85;0,08;0,30;-0,43;-0,07;0,00
3.982;-0,28;-0,47;-0,01;-1,56;5,02;-0,46;0,30;-0,43;-0,07;0,00
3.983;-0,29;-0,53;-0,01;-1,56;5,02;-0,46;0,30;-0,43;-0,07;0,00
4.031;-0,29;-0,53;-0,01;-2,57;2,58;-0,20;0,30;-0,43;-0,07;0,00
4.031;-0,29;-0,53;-0,01;-2,57;2,58;-0,20;0,03;0,16;-0,31;0,00
4.032;-0,32;-0,61;-0,00;-2,57;2,58;-0,20;0,03;0,16;-0,31;0,00
4.032;-0,38;-0,74;0,02;-2,57;2,58;-0,20;0,03;0,16;-0,31;0,00
4.032;-0,43;-0,82;0,04;-2,57;2,58;-0,20;0,03;0,16;-0,31;0,00
4.089;-0,43;-0,82;0,04;-3,14;1,29;0,18;0,03;0,16;-0,31;0,00
4.089;-0,43;-0,82;0,04;-3,14;1,29;0,18;0,05;0,45;-0,13;0,00
4.089;-0,43;-0,84;0,07;-3,14;1,29;0,18;0,05;0,45;-0,13;0,00
4.09;-0,43;-0,84;0,06;-3,14;1,29;0,18;0,05;0,45;-0,13;0,00
4.09;-0,44;-0,88;0,04;-3,14;1,29;0,18;0,05;0,45;-0,13;0,00
4.148;-0,44;-0,88;0,04;-3,42;-1,77;-0,38;0,05;0,45;-0,13;0,00
4.148;-0,44;-0,88;0,04;-3,42;-1,77;-0,38;0,24;0,94;0,23;0,00
4.148;-0,45;-1,00;0,01;-3,42;-1,77;-0,38;0,24;0,94;0,23;0,00
4.149;-0,48;-1,19;-0,00;-3,42;-1,77;-0,38;0,24;0,94;0,23;0,00
4.149;-0,52;-1,30;0,01;-3,42;-1,77;-0,38;0,24;0,94;0,23;0,00
4.206;-0,52;-1,30;0,01;-3,37;-1,46;0,65;0,24;0,94;0,23;0,00
4.207;-0,52;-1,30;0,01;-3,37;-1,46;0,65;0,22;0,49;0,66;0,00
4.207;-0,56;-1,27;0,08;-3,37;-1,46;0,65;0,22;0,49;0,66;0,00
4.207;-0,54;-1,13;0,14;-3,37;-1,46;0,65;0,22;0,49;0,66;0,00
4.207;-0,47;-0,99;0,14;-3,37;-1,46;0,65;0,22;0,49;0,66;0,00
4.263;-0,47;-0,99;0,14;-3,37;-1,46;0,65;0,27;-0,10;0,76;0,00
4.264;-0,47;-0,99;0,14;-0,64;-3,65;-1,21;0,27;-0,10;0,76;0,00
4.264;-0,33;-1,07;0,05;-0,64;-3,65;-1,21;0,27;-0,10;0,76;0,00
4.264;-0,25;-1,41;-0,11;-0,64;-3,65;-1,21;0,27;-0,10;0,76;0,00
4.264;-0,29;-1,57;-0,11;-0,64;-3,65;-1,21;0,27;-0,10;0,76;0,00
4.323;-0,29;-1,57;-0,11;-0,64;-3,65;-1,21;-0,04;1,77;0,59;0,00
4.323;-0,43;-1,43;0,03;-0,64;-3,65;-1,21;-0,04;1,77;0,59;0,00
4.324;-0,48;-1,27;0,14;-0,64;-3,65;-1,21;-0,04;1,77;0,59;0,00
4.324;-0,45;-1,21;0,21;-0,64;-3,65;-1,21;-0,04;1,77;0,59;0,00
4.324;-0,45;-1,21;0,21;-1,82;-3,21;0,80;-0,04;1,77;0,59;0,00
4.387;-0,45;-1,21;0,21;-1,82;-3,21;0,80;0,19;1,43;1,30;0,00
4.389;-0,40;-1,24;0,21;-1,82;-3,21;0,80;0,19;1,43;1,30;0,00
4.389;-0,35;-1,24;0,14;-1,82;-3,21;0,80;0,19;1,43;1,30;0,00
4.39;-0,30;-1,19;0,14;-1,82;-3,21;0,80;0,19;1,43;1,30;0,00
4.391;-0,30;-1,19;0,14;-0,08;-2,64;1,29;0,19;1,43;1,30;0,00
4.439;-0,30;-1,19;0,14;1,48;-0,36;1,29;0,19;1,43;1,30;0,00
4.441;-0,30;-1,19;0,14;1,48;-0,36;1,29;0,28;1,43;1,49;0,00
4.442;-0,27;-1,09;0,14;1,48;-0,36;1,29;0,28;1,43;1,49;0,00
4.442;-0,27;-0,95;0,15;1,48;-0,36;1,29;0,28;1,43;1,49;0,00
4.443;-0,27;-0,83;0,16;1,48;-0,36;1,29;0,28;1,43;1,49;0,00
4.504;-0,27;-0,83;0,16;1,48;-0,36;1,29;0,38;0,83;1,76;0,00
4.506;-0,28;-0,74;0,17;1,48;-0,36;1,29;0,38;0,83;1,76;0,00
4.507;-0,27;-0,68;0,17;1,48;-0,36;1,29;0,38;0,83;1,76;0,00
4.508;-0,23;-0,65;0,15;1,48;-0,36;1,29;0,38;0,83;1,76;0,00
4.509;-0,23;-0,65;0,15;2,48;1,77;1,43;0,38;0,83;1,76;0,00
4.557;-0,23;-0,65;0,15;2,48;1,77;1,43;0,51;0,20;1,81;0,00
4.559;-0,16;-0,63;0,13;2,48;1,77;1,43;0,51;0,20;1,81;0,00
4.56;-0,09;-0,64;0,11;2,48;1,77;1,43;0,51;0,20;1,81;0,00
4.56;-0,04;-0,68;0,09;2,48;1,77;1,43;0,51;0,20;1,81;0,00
4.561;-0,04;-0,68;0,09;4,87;1,56;0,72;0,51;0,20;1,81;0,00
4.616;-0,04;-0,68;0,09;4,87;1,56;0,72;0,30;0,44;1,14;0,00
4.618;-0,01;-0,72;0,07;4,87;1,56;0,72;0,30;0,44;1,14;0,00
4.619;-0,03;-0,74;0,05;4,87;1,56;0,72;0,30;0,44;1,14;0,00
4.619;-0,06;-0,75;0,06;4,87;1,56;0,72;0,30;0,44;1,14;0,00
4.62;-0,06;-0,75;0,06;5,90;0,31;0,27;0,30;0,44;1,14;0,00
4.673;-0,06;-0,75;0,06;5,34;-0,64;0,85;0,30;0,44;1,14;0,00
4.674;-0,06;-0,75;0,06;5,34;-0,64;0,85;-0,10;0,08;0,25;0,00
4.675;-0,09;-0,77;0,10;5,34;-0,64;0,85;-0,10;0,08;0,25;0,00
4.675;-0,09;-0,81;0,13;5,34;-0,64;0,85;-0,10;0,08;0,25;0,00
4.675;-0,11;-0,89;0,12;5,34;-0,64;0,85;-0,10;0,08;0,25;0,00
4.731;-0,11;-0,89;0,12;4,52;-2,69;0,40;-0,10;0,08;0,25;0,00
4.732;-0,11;-0,89;0,12;4,52;-2,69;0,40;-0,28;-0,64;-0,62;0,00
4.733;-0,13;-0,99;0,09;4,52;-2,69;0,40;-0,28;-0,64;-0,62;0,00
4.733;-0,13;-1,08;0,10;4,52;-2,69;0,40;-0,28;-0,64;-0,62;0,00
4.733;-0,15;-1,11;0,06;4,52;-2,69;0,40;-0,28;-0,64;-0,62;0,00
4.79;-0,15;-1,11;0,06;4,52;-2,69;0,40;-0,43;-0,90;-1,22;0,00
4.791;-0,15;-1,11;0,06;2,21;-1,77;-0,76;-0,43;-0,90;-1,22;0,00
4.792;-0,24;-1,07;0,01;2,21;-1,77;-0,76;-0,43;-0,90;-1,22;0,00
4.793;-0,33;-0,99;-0,02;2,21;-1,77;-0,76;-0,43;-0,90;-1,22;0,00
4.794;-0,37;-0,98;-0,07;2,21;-1,77;-0,76;-0,43;-0,90;-1,22;0,00
4.849;-0,37;-0,98;-0,07;2,21;-1,77;-0,76;-0,79;-1,19;-1,26;0,00
4.85;-0,34;-1,07;-0,05;2,21;-1,77;-0,76;-0,79;-1,19;-1,26;0,00
4.851;-0,30;-1,21;0,03;2,21;-1,77;-0,76;-0,79;-1,19;-1,26;0,00
4.851;-0,25;-1,54;0,06;2,21;-1,77;-0,76;-0,79;-1,19;-1,26;0,00
4.852;-0,25;-1,54;0,06;1,69;-3,88;-0,31;-0,79;-1,19;-1,26;0,00
4.906;-0,25;-1,54;0,06;1,69;-3,88;-0,31;-1,07;-1,58;-1,98;0,00
4.906;-0,25;-1,54;0,06;-0,57;-6,91;0,61;-1,07;-1,58;-1,98;0,00
4.907;-0,29;-1,72;0,10;-0,57;-6,91;0,61;-1,07;-1,58;-1,98;0,00
4.907;-0,41;-1,75;0,12;-0,57;-6,91;0,61;-1,07;-1,58;-1,98;0,00
4.907;-0,56;-1,47;0,05;-0,57;-6,91;0,61;-1,07;-1,58;-1,98;0,00
4.964;-0,56;-1,47;0,05;-0,57;-6,91;0,61;-0,87;-1,70;-1,81;0,00
4.964;-0,56;-1,47;0,05;-2,71;-1,27;0,85;-0,87;-1,70;-1,81;0,00
4.965;-0,57;-1,29;0,07;-2,71;-1,27;0,85;-0,87;-1,70;-1,81;0,00
4.965;-0,53;-1,11;0,10;-2,71;-1,27;0,85;-0,87;-1,70;-1,81;0,00
4.965;-0,52;-0,92;0,11;-2,71;-1,27;0,85;-0,87;-1,70;-1,81;0,00
5.023;-0,52;-0,92;0,11;-2,71;-1,27;0,85;-0,40;-0,93;-1,06;0,00
5.024;-0,53;-0,73;0,06;-2,71;-1,27;0,85;-0,40;-0,93;-1,06;0,00
5.024;-0,48;-0,59;0,05;-2,71;-1,27;0,85;-0,40;-0,93;-1,06;0,00
5.024;-0,47;-0,50;0,06;-2,71;-1,27;0,85;-0,40;-0,93;-1,06;0,00
5.025;-0,47;-0,50;0,06;-2,81;3,69;0,55;-0,40;-0,93;-1,06;0,00
5.081;-0,47;-0,50;0,06;-2,81;3,69;0,55;-0,14;-0,34;-0,62;0,00
5.082;-0,45;-0,48;0,09;-2,81;3,69;0,55;-0,14;-0,34;-0,62;0,00
5.082;-0,38;-0,50;0,11;-2,81;3,69;0,55;-0,14;-0,34;-0,62;0,00
5.083;-0,36;-0,56;0,13;-2,81;3,69;0,55;-0,14;-0,34;-0,62;0,00
5.083;-0,36;-0,56;0,13;-2,18;4,59;1,09;-0,14;-0,34;-0,62;0,00
5.154;-0,36;-0,56;0,13;-2,18;4,59;1,09;-0,07;0,32;-0,61;0,00
5.155;-0,36;-0,56;0,13;-3,11;3,02;1,87;-0,07;0,32;-0,61;0,00
5.157;-0,38;-0,62;0,15;-3,11;3,02;1,87;-0,07;0,32;-0,61;0,00
5.157;-0,46;-0,68;0,19;-3,11;3,02;1,87;-0,07;0,32;-0,61;0,00
5.158;-0,55;-0,73;0,22;-3,11;3,02;1,87;-0,07;0,32;-0,61;0,00
5.199;-0,55;-0,73;0,22;-3,11;3,02;1,87;0,16;0,30;-0,22;0,00
5.201;-0,57;-0,76;0,23;-3,11;3,02;1,87;0,16;0,30;-0,22;0,00
5.201;-0,57;-0,79;0,22;-3,11;3,02;1,87;0,16;0,30;-0,22;0,00
5.202;-0,53;-0,83;0,22;-3,11;3,02;1,87;0,16;0,30;-0,22;0,00
5.203;-0,53;-0,83;0,22;-4,09;1,84;2,14;0,16;0,30;-0,22;0,00
5.257;-0,53;-0,83;0,22;-4,09;1,84;2,14;0,51;0,22;0,26;0,00
5.258;-0,53;-0,95;0,21;-4,09;1,84;2,14;0,51;0,22;0,26;0,00
5.259;-0,54;-1,08;0,21;-4,09;1,84;2,14;0,51;0,22;0,26;0,00
5.26;-0,53;-1,17;0,19;-4,09;1,84;2,14;0,51;0,22;0,26;0,00
5.261;-0,53;-1,17;0,19;-3,65;-0,86;1,66;0,51;0,22;0,26;0,00
5.314;-0,53;-1,17;0,19;-3,30;-2,12;0,59;0,51;0,22;0,26;0,00
5.315;-0,53;-1,17;0,19;-3,30;-2,12;0,59;0,73;0,10;0,52;0,00
5.316;-0,56;-1,19;0,16;-3,30;-2,12;0,59;0,73;0,10;0,52;0,00
5.316;-0,56;-1,15;0,14;-3,30;-2,12;0,59;0,73;0,10;0,52;0,00
5.316;-0,48;-1,24;0,11;-3,30;-2,12;0,59;0,73;0,10;0,52;0,00
5.374;-0,48;-1,24;0,11;-3,30;-2,12;0,59;0,75;0,88;0,63;0,00
5.375;-0,48;-1,24;0,11;-1,48;-4,93;-0,45;0,75;0,88;0,63;0,00
5.376;-0,40;-1,43;0,05;-1,48;-4,93;-0,45;0,75;0,88;0,63;0,00
5.377;-0,35;-1,53;0,05;-1,48;-4,93;-0,45;0,75;0,88;0,63;0,00
5.378;-0,42;-1,46;0,08;-1,48;-4,93;-0,45;0,75;0,88;0,63;0,00
5.431;-0,42;-1,46;0,08;-1,48;-4,93;-0,45;0,70;1,89;1,06;0,00
5.432;-0,42;-1,46;0,08;-1,21;-3,76;0,53;0,70;1,89;1,06;0,00
5.432;-0,47;-1,37;0,15;-1,21;-3,76;0,53;0,70;1,89;1,06;0,00
5.433;-0,46;-1,32;0,19;-1,21;-3,76;0,53;0,70;1,89;1,06;0,00
5.433;-0,38;-1,33;0,17;-1,21;-3,76;0,53;0,70;1,89;1,06;0,00
5.489;-0,38;-1,33;0,17;-1,21;-3,76;0,53;0,71;1,70;1,31;0,00
5.492;-0,38;-1,33;0,17;1,88;-2,81;-0,01;0,71;1,70;1,31;0,00
5.492;-0,20;-1,31;0,10;1,88;-2,81;-0,01;0,71;1,70;1,31;0,00
5.493;-0,22;-1,23;0,12;1,88;-2,81;-0,01;0,71;1,70;1,31;0,00
5.493;-0,18;-1,11;0,14;1,88;-2,81;-0,01;0,71;1,70;1,31;0,00
5.547;-0,18;-1,11;0,14;1,88;-2,81;-0,01;0,63;1,89;1,28;0,00
5.548;-0,18;-1,11;0,14;2,81;0,51;0,97;0,63;1,89;1,28;0,00
5.548;-0,14;-0,98;0,20;2,81;0,51;0,97;0,63;1,89;1,28;0,00
5.548;-0,19;-0,83;0,23;2,81;0,51;0,97;0,63;1,89;1,28;0,00
5.548;-0,22;-0,72;0,19;2,81;0,51;0,97;0,63;1,89;1,28;0,00
5.607;-0,22;-0,72;0,19;3,07;2,52;0,22;0,63;1,89;1,28;0,00
5.608;-0,22;-0,72;0,19;3,07;2,52;0,22;0,48;0,77;1,49;0,00
5.608;-0,25;-0,64;0,16;3,07;2,52;0,22;0,48;0,77;1,49;0,00
5.609;-0,24;-0,58;0,13;3,07;2,52;0,22;0,48;0,77;1,49;0,00
5.609;-0,21;-0,53;0,12;3,07;2,52;0,22;0,48;0,77;1,49;0,00
5.664;-0,21;-0,53;0,12;3,07;2,52;0,22;0,30;-0,14;1,50;0,00
5.665;-0,21;-0,53;0,12;5,09;2,66;-0,88;0,30;-0,14;1,50;0,00
5.665;-0,16;-0,50;0,08;5,09;2,66;-0,88;0,30;-0,14;1,50;0,00
5.665;-0,08;-0,50;0,04;5,09;2,66;-0,88;0,30;-0,14;1,50;0,00
5.665;-0,03;-0,53;-0,00;5,09;2,66;-0,88;0,30;-0,14;1,50;0,00
5.722;-0,03;-0,53;-0,00;5,09;2,66;-0,88;-0,22;0,03;0,83;0,00
5.723;-0,03;-0,56;0,02;5,09;2,66;-0,88;-0,22;0,03;0,83;0,00
5.723;-0,03;-0,63;0,03;5,09;2,66;-0,88;-0,22;0,03;0,83;0,00
5.723;-0,00;-0,69;0,04;5,09;2,66;-0,88;-0,22;0,03;0,83;0,00
5.723;-0,00;-0,69;0,04;6,00;1,23;-0,85;-0,22;0,03;0,83;0,00
5.781;-0,00;-0,69;0,04;6,00;1,23;-0,85;-0,80;-0,14;-0,39;0,00
5.781;-0,00;-0,69;0,04;5,25;-1,21;-0,13;-0,80;-0,14;-0,39;0,00
5.782;-0,06;-0,77;0,03;5,25;-1,21;-0,13;-0,80;-0,14;-0,39;0,00
5.782;-0,08;-0,90;0,07;5,25;-1,21;-0,13;-0,80;-0,14;-0,39;0,00
5.782;-0,07;-1,01;0,12;5,25;-1,21;-0,13;-0,80;-0,14;-0,39;0,00
5.839;-0,07;-1,01;0,12;3,39;-3,64;1,38;-0,80;-0,14;-0,39;0,00
5.84;-0,07;-1,01;0,12;3,39;-3,64;1,38;-1,06;-0,41;-1,36;0,00
5.84;-0,13;-1,11;0,18;3,39;-3,64;1,38;-1,06;-0,41;-1,36;0,00
5.84;-0,19;-1,22;0,22;3,39;-3,64;1,38;-1,06;-0,41;-1,36;0,00
5.84;-0,25;-1,27;0,19;3,39;-3,64;1,38;-1,06;-0,41;-1,36;0,00
5.906;-0,25;-1,27;0,19;1,50;-4,34;0,97;-1,06;-0,41;-1,36;0,00
5.908;-0,25;-1,27;0,19;1,50;-4,34;0,97;-0,81;-0,72;-1,68;0,00
5.909;-0,31;-1,24;0,14;1,50;-4,34;0,97;-0,81;-0,72;-1,68;0,00
5.909;-0,28;-1,32;0,11;1,50;-4,34;0,97;-0,81;-0,72;-1,68;0,00
5.91;-0,29;-1,44;0,15;1,50;-4,34;0,97;-0,81;-0,72;-1,68;0,00
5.958;-0,29;-1,44;0,15;-0,98;-4,10;1,53;-0,81;-0,72;-1,68;0,00
5.959;-0,29;-1,44;0,15;-0,98;-4,10;1,53;-0,68;-0,56;-1,90;0,00
5.96;-0,35;-1,49;0,17;-0,98;-4,10;1,53;-0,68;-0,56;-1,90;0,00
5.961;-0,44;-1,38;0,16;-0,98;-4,10;1,53;-0,68;-0,56;-1,90;0,00
5.962;-0,55;-1,20;0,18;-0,98;-4,10;1,53;-0,68;-0,56;-1,90;0,00
6.015;-0,55;-1,20;0,18;-0,98;-4,10;1,53;-0,35;-0,87;-1,36;0,00
6.017;-0,55;-1,20;0,18;-2,58;-2,72;0,68;-0,35;-0,87;-1,36;0,00
6.018;-0,57;-1,14;0,15;-2,58;-2,72;0,68;-0,35;-0,87;-1,36;0,00
6.019;-0,54;-1,26;0,05;-2,58;-2,72;0,68;-0,35;-0,87;-1,36;0,00
6.019;-0,51;-1,34;0,04;-2,58;-2,72;0,68;-0,35;-0,87;-1,36;0,00
6.073;-0,51;-1,34;0,04;-2,58;-2,72;0,68;-0,10;-0,44;-0,79;0,00
6.074;-0,54;-1,28;0,10;-2,58;-2,72;0,68;-0,10;-0,44;-0,79;0,00
6.075;-0,58;-1,12;0,15;-2,58;-2,72;0,68;-0,10;-0,44;-0,79;0,00
6.075;-0,59;-0,91;0,14;-2,58;-2,72;0,68;-0,10;-0,44;-0,79;0,00
6.076;-0,59;-0,91;0,14;-3,28;-1,19;1,11;-0,10;-0,44;-0,79;0,00
6.132;-0,59;-0,91;0,14;-3,28;-1,19;1,11;0,26;-1,27;0,03;0,00
6.132;-0,55;-0,71;0,10;-3,28;-1,19;1,11;0,26;-1,27;0,03;0,00
6.133;-0,47;-0,55;0,06;-3,28;-1,19;1,11;0,26;-1,27;0,03;0,00
6.133;-0,39;-0,45;0,04;-3,28;-1,19;1,11;0,26;-1,27;0,03;0,00
6.133;-0,39;-0,45;0,04;-2,25;3,94;0,19;0,26;-1,27;0,03;0,00
6.189;-0,39;-0,45;0,04;-2,25;3,94;0,19;0,39;-1,05;0,42;0,00
6.19;-0,39;-0,45;0,04;0,08;5,44;-0,79;0,39;-1,05;0,42;0,00
6.19;-0,30;-0,41;0,02;0,08;5,44;-0,79;0,39;-1,05;0,42;0,00
6.191;-0,24;-0,39;0,01;0,08;5,44;-0,79;0,39;-1,05;0,42;0,00
6.191;-0,21;-0,41;-0,02;0,08;5,44;-0,79;0,39;-1,05;0,42;0,00
6.249;-0,21;-0,41;-0,02;0,68;3,96;-1,12;0,39;-1,05;0,42;0,00
6.251;-0,21;-0,41;-0,02;0,68;3,96;-1,12;0,16;-0,34;0,08;0,00
6.252;-0,19;-0,47;-0,03;0,68;3,96;-1,12;0,16;-0,34;0,08;0,00
6.253;-0,17;-0,54;-0,02;0,68;3,96;-1,12;0,16;-0,34;0,08;0,00
6.254;-0,21;-0,63;-0,01;0,68;3,96;-1,12;0,16;-0,34;0,08;0,00
6.306;-0,21;-0,63;-0,01;0,68;3,96;-1,12;-0,25;-0,17;-0,50;0,00
6.307;-0,21;-0,63;-0,01;-1,43;1,31;-0,16;-0,25;-0,17;-0,50;0,00
6.307;-0,28;-0,73;0,04;-1,43;1,31;-0,16;-0,25;-0,17;-0,50;0,00
6.308;-0,40;-0,84;0,06;-1,43;1,31;-0,16;-0,25;-0,17;-0,50;0,00
6.308;-0,47;-0,89;0,10;-1,43;1,31;-0,16;-0,25;-0,17;-0,50;0,00
6.365;-0,47;-0,89;0,10;-2,08;-0,26;0,04;-0,25;-0,17;-0,50;0,00
6.367;-0,47;-0,89;0,10;-2,08;-0,26;0,04;-0,05;-0,50;-0,33;0,00
6.368;-0,45;-0,90;0,12;-2,08;-0,26;0,04;-0,05;-0,50;-0,33;0,00
6.369;-0,42;-0,96;0,10;-2,08;-0,26;0,04;-0,05;-0,50;-0,33;0,00
6.369;-0,42;-1,10;0,05;-2,08;-0,26;0,04;-0,05;-0,50;-0,33;0,00
6.423;-0,42;-1,10;0,05;-2,08;-0,26;0,04;0,16;0,13;-0,37;0,00
6.424;-0,42;-1,10;0,05;-3,09;-3,12;-0,62;0,16;0,13;-0,37;0,00
6.424;-0,44;-1,29;0,01;-3,09;-3,12;-0,62;0,16;0,13;-0,37;0,00
6.425;-0,51;-1,35;0,01;-3,09;-3,12;-0,62;0,16;0,13;-0,37;0,00
6.425;-0,60;-1,22;0,07;-3,09;-3,12;-0,62;0,16;0,13;-0,37;0,00
6.481;-0,60;-1,22;0,07;-3,09;-3,12;-0,62;0,24;-0,09;-0,08;0,00
6.482;-0,60;-1,22;0,07;-3,34;-2,01;-0,68;0,24;-0,09;-0,08;0,00
6.482;-0,63;-1,05;0,10;-3,34;-2,01;-0,68;0,24;-0,09;-0,08;0,00
6.482;-0,54;-1,13;0,05;-3,34;-2,01;-0,68;0,24;-0,09;-0,08;0,00
6.482;-0,46;-1,35;-0,04;-3,34;-2,01;-0,68;0,24;-0,09;-0,08;0,00
6.539;-0,46;-1,35;-0,04;-3,04;-3,31;-0,37;0,24;-0,09;-0,08;0,00
6.54;-0,46;-1,35;-0,04;-3,04;-3,31;-0,37;-0,11;1,15;-0,04;0,00
6.54;-0,46;-1,39;-0,08;-3,04;-3,31;-0,37;-0,11;1,15;-0,04;0,00
6.54;-0,52;-1,33;0,04;-3,04;-3,31;-0,37;-0,11;1,15;-0,04;0,00
6.541;-0,58;-1,23;0,18;-3,04;-3,31;-0,37;-0,11;1,15;-0,04;0,00
6.599;-0,58;-1,23;0,18;-2,29;-2,18;1,20;-0,11;1,15;-0,04;0,00
6.6;-0,58;-1,23;0,18;-2,29;-2,18;1,20;0,02;1,36;0,76;0,00
6.6;-0,59;-1,17;0,22;-2,29;-2,18;1,20;0,02;1,36;0,76;0,00
6.601;-0,52;-1,20;0,19;-2,29;-2,18;1,20;0,02;1,36;0,76;0,00
6.601;-0,39;-1,22;0,16;-2,29;-2,18;1,20;0,02;1,36;0,76;0,00
6.657;-0,39;-1,22;0,16;0,63;-0,93;1,37;0,02;1,36;0,76;0,00
6.658;-0,39;-1,22;0,16;0,63;-0,93;1,37;0,21;1,45;1,27;0,00
6.659;-0,30;-1,16;0,18;0,63;-0,93;1,37;0,21;1,45;1,27;0,00
6.66;-0,26;-1,05;0,21;0,63;-0,93;1,37;0,21;1,45;1,27;0,00
6.661;-0,26;-0,93;0,21;0,63;-0,93;1,37;0,21;1,45;1,27;0,00
6.714;-0,26;-0,93;0,21;1,65;1,83;1,42;0,21;1,45;1,27;0,00
6.715;-0,26;-0,93;0,21;1,65;1,83;1,42;0,35;1,13;1,50;0,00
6.715;-0,26;-0,82;0,21;1,65;1,83;1,42;0,35;1,13;1,50;0,00
6.715;-0,26;-0,72;0,21;1,65;1,83;1,42;0,35;1,13;1,50;0,00
6.716;-0,25;-0,64;0,19;1,65;1,83;1,42;0,35;1,13;1,50;0,00
6.774;-0,25;-0,64;0,19;1,65;1,83;1,42;0,49;0,37;1,70;0,00
6.775;-0,25;-0,64;0,19;3,55;2,79;0,75;0,49;0,37;1,70;0,00
6.776;-0,20;-0,59;0,17;3,55;2,79;0,75;0,49;0,37;1,70;0,00
6.777;-0,14;-0,57;0,16;3,55;2,79;0,75;0,49;0,37;1,70;0,00
6.778;-0,08;-0,56;0,12;3,55;2,79;0,75;0,49;0,37;1,70;0,00
6.831;-0,08;-0,56;0,12;3,55;2,79;0,75;0,40;0,45;1,39;0,00
6.832;-0,04;-0,58;0,09;3,55;2,79;0,75;0,40;0,45;1,39;0,00
6.832;-0,00;-0,63;0,08;3,55;2,79;0,75;0,40;0,45;1,39;0,00
6.833;0,03;-0,71;0,09;3,55;2,79;0,75;0,40;0,45;1,39;0,00
6.833;0,03;-0,71;0,09;5,50;1,69;0,05;0,40;0,45;1,39;0,00
6.889;0,03;-0,71;0,09;5,50;1,69;0,05;-0,07;0,45;0,35;0,00
6.891;-0,02;-0,78;0,09;5,50;1,69;0,05;-0,07;0,45;0,35;0,00
6.892;-0,11;-0,81;0,13;5,50;1,69;0,05;-0,07;0,45;0,35;0,00
6.892;-0,14;-0,83;0,17;5,50;1,69;0,05;-0,07;0,45;0,35;0,00
6.893;-0,14;-0,83;0,17;4,79;-0,08;0,70;-0,07;0,45;0,35;0,00
6.938;-0,14;-0,83;0,17;3,55;-2,62;0,98;-0,07;0,45;0,35;0,00
6.939;-0,14;-0,83;0,17;3,55;-2,62;0,98;-0,35;-0,28;-0,50;0,00
6.939;-0,13;-0,94;0,18;3,55;-2,62;0,98;-0,35;-0,28;-0,50;0,00
6.94;-0,18;-1,09;0,15;3,55;-2,62;0,98;-0,35;-0,28;-0,50;0,00
6.94;-0,24;-1,24;0,14;3,55;-2,62;0,98;-0,35;-0,28;-0,50;0,00
6.997;-0,24;-1,24;0,14;3,55;-2,62;0,98;-0,41;-0,89;-1,08;0,00
6.998;-0,26;-1,28;0,17;3,55;-2,62;0,98;-0,41;-0,89;-1,08;0,00
6.998;-0,27;-1,23;0,20;3,55;-2,62;0,98;-0,41;-0,89;-1,08;0,00
6.998;-0,31;-1,25;0,11;3,55;-2,62;0,98;-0,41;-0,89;-1,08;0,00
6.999;-0,31;-1,25;0,11;2,03;-3,81;0,96;-0,41;-0,89;-1,08;0,00
7.055;-0,31;-1,25;0,11;2,03;-3,81;0,96;-0,47;-1,18;-1,35;0,00
7.056;-0,35;-1,45;0,02;2,03;-3,81;0,96;-0,47;-1,18;-1,35;0,00
7.056;-0,34;-1,55;0,05;2,03;-3,81;0,96;-0,47;-1,18;-1,35;0,00
7.057;-0,37;-1,43;0,12;2,03;-3,81;0,96;-0,47;-1,18;-1,35;0,00
7.057;-0,37;-1,43;0,12;0,56;-5,56;-0,09;-0,47;-1,18;-1,35;0,00
7.113;-0,37;-1,43;0,12;0,56;-5,56;-0,09;-0,42;-1,37;-1,30;0,00
7.114;-0,37;-1,43;0,12;-0,66;-2,31;-0,21;-0,42;-1,37;-1,30;0,00
7.114;-0,41;-1,24;0,14;-0,66;-2,31;-0,21;-0,42;-1,37;-1,30;0,00
7.115;-0,42;-1,15;0,07;-0,66;-2,31;-0,21;-0,42;-1,37;-1,30;0,00
7.115;-0,38;-1,14;-0,04;-0,66;-2,31;-0,21;-0,42;-1,37;-1,30;0,00
7.172;-0,35;-1,12;-0,10;-0,66;-2,31;-0,21;-0,42;-1,37;-1,30;0,00
7.173;-0,38;-1,06;-0,02;-0,66;-2,31;-0,21;-0,42;-1,37;-1,30;0,00
7.22;-0,38;-1,06;-0,02;-0,66;-2,31;-0,21;-0,53;-0,61;-1,13;0,00
7.221;-0,42;-0,97;0,09;-0,66;-2,31;-0,21;-0,53;-0,61;-1,13;0,00
7.222;-0,45;-0,83;0,14;-0,66;-2,31;-0,21;-0,53;-0,61;-1,13;0,00
7.222;-0,45;-0,69;0,14;-0,66;-2,31;-0,21;-0,53;-0,61;-1,13;0,00
7.222;-0,45;-0,69;0,14;-1,13;-0,82;-0,67;-0,53;-0,61;-1,13;0,00
7.279;-0,45;-0,69;0,14;-1,13;-0,82;-0,67;-0,67;-1,03;-0,93;0,00
7.279;-0,40;-0,59;0,12;-1,13;-0,82;-0,67;-0,67;-1,03;-0,93;0,00
7.28;-0,33;-0,53;0,11;-1,13;-0,82;-0,67;-0,67;-1,03;-0,93;0,00
7.28;-0,29;-0,50;0,11;-1,13;-0,82;-0,67;-0,67;-1,03;-0,93;0,00
7.28;-0,29;-0,50;0,11;-2,11;2,70;0,95;-0,67;-1,03;-0,93;0,00
7.336;-0,29;-0,50;0,11;-1,21;4,54;0,86;-0,67;-1,03;-0,93;0,00
7.337;-0,29;-0,50;0,11;-1,21;4,54;0,86;-0,55;-1,15;-0,63;0,00
7.338;-0,30;-0,52;0,11;-1,21;4,54;0,86;-0,55;-1,15;-0,63;0,00
7.338;-0,33;-0,56;0,13;-1,21;4,54;0,86;-0,55;-1,15;-0,63;0,00
7.338;-0,33;-0,59;0,16;-1,21;4,54;0,86;-0,55;-1,15;-0,63;0,00
7.396;-0,35;-0,65;0,16;-1,21;4,54;0,86;-0,55;-1,15;-0,63;0,00
7.397;-0,38;-0,72;0,16;-1,21;4,54;0,86;-0,55;-1,15;-0,63;0,00
7.398;-0,43;-0,79;0,17;-1,21;4,54;0,86;-0,55;-1,15;-0,63;0,00
7.399;-0,43;-0,79;0,17;-1,21;4,54;0,86;-0,34;-0,42;-0,51;0,00
7.4;-0,43;-0,79;0,17;-1,74;3,70;1,39;-0,34;-0,42;-0,51;0,00
7.455;-0,43;-0,79;0,17;-2,84;2,01;1,65;-0,34;-0,42;-0,51;0,00
7.457;-0,43;-0,79;0,17;-2,84;2,01;1,65;-0,15;-0,16;-0,44;0,00
7.458;-0,47;-0,80;0,19;-2,84;2,01;1,65;-0,15;-0,16;-0,44;0,00
7.459;-0,49;-0,81;0,19;-2,84;2,01;1,65;-0,15;-0,16;-0,44;0,00
7.46;-0,46;-0,81;0,16;-2,84;2,01;1,65;-0,15;-0,16;-0,44;0,00
7.512;-0,46;-0,81;0,16;-3,26;1,40;1,34;-0,15;-0,16;-0,44;0,00
7.513;-0,46;-0,81;0,16;-3,26;1,40;1,34;0,23;-0,09;-0,10;0,00
7.514;-0,46;-0,88;0,12;-3,26;1,40;1,34;0,23;-0,09;-0,10;0,00
7.515;-0,49;-1,01;0,07;-3,26;1,40;1,34;0,23;-0,09;-0,10;0,00
7.515;-0,56;-1,19;0,07;-3,26;1,40;1,34;0,23;-0,09;-0,10;0,00
7.572;-0,56;-1,19;0,07;-3,26;1,40;1,34;0,47;0,22;0,17;0,00
7.574;-0,60;-1,23;0,13;-3,26;1,40;1,34;0,47;0,22;0,17;0,00
7.575;-0,58;-1,12;0,17;-3,26;1,40;1,34;0,47;0,22;0,17;0,00
7.576;-0,50;-1,10;0,13;-3,26;1,40;1,34;0,47;0,22;0,17;0,00
7.577;-0,50;-1,10;0,13;-3,86;-1,65;0,42;0,47;0,22;0,17;0,00
7.629;-0,50;-1,10;0,13;-3,86;-1,65;0,42;0,67;-0,40;0,59;0,00
7.629;-0,42;-1,25;-0,00;-3,86;-1,65;0,42;0,67;-0,40;0,59;0,00
7.629;-0,37;-1,37;-0,11;-3,86;-1,65;0,42;0,67;-0,40;0,59;0,00
7.63;-0,36;-1,41;-0,03;-3,86;-1,65;0,42;0,67;-0,40;0,59;0,00
7.63;-0,36;-1,41;-0,03;-3,03;-1,81;0,12;0,67;-0,40;0,59;0,00
7.686;-0,36;-1,41;-0,03;-1,48;-4,42;-1,15;0,67;-0,40;0,59;0,00
7.687;-0,36;-1,41;-0,03;-1,48;-4,42;-1,15;0,48;0,81;0,50;0,00
7.689;-0,40;-1,48;0,10;-1,48;-4,42;-1,15;0,48;0,81;0,50;0,00
7.689;-0,42;-1,52;0,16;-1,48;-4,42;-1,15;0,48;0,81;0,50;0,00
7.69;-0,41;-1,48;0,22;-1,48;-4,42;-1,15;0,48;0,81;0,50;0,00
7.748;-0,41;-1,48;0,22;-1,48;-4,42;-1,15;0,40;1,87;0,74;0,00
7.749;-0,41;-1,48;0,22;-0,96;-4,80;0,98;0,40;1,87;0,74;0,00
7.749;-0,32;-1,37;0,21;-0,96;-4,80;0,98;0,40;1,87;0,74;0,00
7.75;-0,22;-1,22;0,20;-0,96;-4,80;0,98;0,40;1,87;0,74;0,00
7.75;-0,15;-1,08;0,19;-0,96;-4,80;0,98;0,40;1,87;0,74;0,00
7.803;-0,15;-1,08;0,19;1,76;-1,37;0,87;0,40;1,87;0,74;0,00
7.804;-0,15;-1,08;0,19;1,76;-1,37;0,87;0,60;1,88;0,93;0,00
7.804;-0,12;-0,96;0,18;1,76;-1,37;0,87;0,60;1,88;0,93;0,00
7.805;-0,14;-0,84;0,17;1,76;-1,37;0,87;0,60;1,88;0,93;0,00
7.805;-0,18;-0,72;0,17;1,76;-1,37;0,87;0,60;1,88;0,93;0,00
7.873;-0,18;-0,72;0,17;2,20;1,82;0,93;0,60;1,88;0,93;0,00
7.875;-0,18;-0,72;0,17;2,20;1,82;0,93;0,68;2,43;0,93;0,00
7.876;-0,20;-0,64;0,20;2,20;1,82;0,93;0,68;2,43;0,93;0,00
7.877;-0,21;-0,58;0,21;2,20;1,82;0,93;0,68;2,43;0,93;0,00
7.878;-0,18;-0,53;0,20;2,20;1,82;0,93;0,68;2,43;0,93;0,00
7.921;-0,18;-0,53;0,20;2,20;1,82;0,93;0,70;1,59;1,07;0,00
7.922;-0,15;-0,51;0,16;2,20;1,82;0,93;0,70;1,59;1,07;0,00
7.922;-0,09;-0,54;0,13;2,20;1,82;0,93;0,70;1,59;1,07;0,00
7.922;-0,08;-0,64;0,10;2,20;1,82;0,93;0,70;1,59;1,07;0,00
7.923;-0,08;-0,64;0,10;2,75;3,34;1,03;0,70;1,59;1,07;0,00
7.991;-0,08;-0,64;0,10;4,13;2,18;0,19;0,70;1,59;1,07;0,00
7.993;-0,08;-0,70;0,09;4,13;2,18;0,19;0,70;1,59;1,07;0,00
7.993;-0,11;-0,75;0,11;4,13;2,18;0,19;0,70;1,59;1,07;0,00
7.994;-0,14;-0,77;0,15;4,13;2,18;0,19;0,70;1,59;1,07;0,00
7.995;-0,14;-0,77;0,15;4,13;2,18;0,19;0,53;0,93;0,97;0,00
8.036;-0,14;-0,77;0,15;3,68;0,50;0,71;0,53;0,93;0,97;0,00
8.037;-0,14;-0,77;0,15;3,68;0,50;0,71;0,04;0,65;0,47;0,00
8.038;-0,20;-0,82;0,16;3,68;0,50;0,71;0,04;0,65;0,47;0,00
8.038;-0,20;-0,94;0,15;3,68;0,50;0,71;0,04;0,65;0,47;0,00
8.038;-0,19;-1,10;0,14;3,68;0,50;0,71;0,04;0,65;0,47;0,00
8.096;-0,19;-1,10;0,14;3,68;0,50;0,71;-0,31;-0,28;0,06;0,00
8.097;-0,15;-1,21;0,18;3,68;0,50;0,71;-0,31;-0,28;0,06;0,00
8.098;-0,17;-1,23;0,19;3,68;0,50;0,71;-0,31;-0,28;0,06;0,00
8.099;-0,22;-1,18;0,16;3,68;0,50;0,71;-0,31;-0,28;0,06;0,00
8.1;-0,22;-1,18;0,16;3,33;-2,40;0,90;-0,31;-0,28;0,06;0,00
8.154;-0,22;-1,18;0,16;2,58;-3,03;0,73;-0,31;-0,28;0,06;0,00
8.155;-0,22;-1,18;0,16;2,58;-3,03;0,73;-0,46;-1,07;-0,57;0,00
8.155;-0,28;-1,11;0,10;2,58;-3,03;0,73;-0,46;-1,07;-0,57;0,00
8.155;-0,25;-1,18;0,08;2,58;-3,03;0,73;-0,46;-1,07;-0,57;0,00
8.156;-0,23;-1,28;0,04;2,58;-3,03;0,73;-0,46;-1,07;-0,57;0,00
8.211;-0,23;-1,28;0,04;2,58;-3,03;0,73;-0,56;-1,40;-0,84;0,00
8.212;-0,23;-1,28;0,04;1,79;-3,42;-0,17;-0,56;-1,40;-0,84;0,00
8.213;-0,27;-1,26;0,07;1,79;-3,42;-0,17;-0,56;-1,40;-0,84;0,00
8.214;-0,31;-1,19;0,11;1,79;-3,42;-0,17;-0,56;-1,40;-0,84;0,00
8.215;-0,31;-1,22;0,11;1,79;-3,42;-0,17;-0,56;-1,40;-0,84;0,00
8.27;-0,31;-1,22;0,11;1,79;-3,42;-0,17;-0,68;-1,45;-1,01;0,00
8.271;-0,30;-1,33;0,08;1,79;-3,42;-0,17;-0,68;-1,45;-1,01;0,00
8.271;-0,30;-1,35;0,06;1,79;-3,42;-0,17;-0,68;-1,45;-1,01;0,00
8.272;-0,31;-1,29;0,06;1,79;-3,42;-0,17;-0,68;-1,45;-1,01;0,00
8.272;-0,31;-1,29;0,06;0,64;-3,15;0,16;-0,68;-1,45;-1,01;0,00
8.328;-0,31;-1,18;0,09;0,64;-3,15;0,16;-0,68;-1,45;-1,01;0,00
8.329;-0,34;-1,01;0,11;0,64;-3,15;0,16;-0,68;-1,45;-1,01;0,00
8.329;-0,41;-0,82;0,11;0,64;-3,15;0,16;-0,68;-1,45;-1,01;0,00
8.33;-0,41;-0,82;0,11;0,64;-3,15;0,16;-0,63;-1,24;-1,23;0,00
8.33;-0,41;-0,82;0,11;-0,09;-3,08;-0,03;-0,63;-1,24;-1,23;0,00
8.386;-0,41;-0,82;0,11;-1,65;1,43;0,54;-0,63;-1,24;-1,23;0,00
8.387;-0,41;-0,82;0,11;-1,65;1,43;0,54;-0,42;-0,43;-1,16;0,00
8.388;-0,46;-0,66;0,11;-1,65;1,43;0,54;-0,42;-0,43;-1,16;0,00
8.388;-0,43;-0,55;0,11;-1,65;1,43;0,54;-0,42;-0,43;-1,16;0,00
8.389;-0,38;-0,49;0,09;-1,65;1,43;0,54;-0,42;-0,43;-1,16;0,00
8.445;-0,38;-0,49;0,09;-1,72;4,64;0,34;-0,42;-0,43;-1,16;0,00
8.447;-0,38;-0,49;0,09;-1,72;4,64;0,34;-0,11;-0,53;-0,58;0,00
8.448;-0,33;-0,47;0,07;-1,72;4,64;0,34;-0,11;-0,53;-0,58;0,00
8.448;-0,31;-0,48;0,05;-1,72;4,64;0,34;-0,11;-0,53;-0,58;0,00
8.449;-0,33;-0,53;0,03;-1,72;4,64;0,34;-0,11;-0,53;-0,58;0,00
8.503;-0,33;-0,53;0,03;-1,72;4,64;0,34;-0,12;-0,52;-0,35;0,00
8.504;-0,33;-0,53;0,03;-1,44;4,21;-0,11;-0,12;-0,52;-0,35;0,00
8.504;-0,35;-0,61;0,05;-1,44;4,21;-0,11;-0,12;-0,52;-0,35;0,00
8.505;-0,40;-0,66;0,10;-1,44;4,21;-0,11;-0,12;-0,52;-0,35;0,00
8.505;-0,41;-0,72;0,14;-1,44;4,21;-0,11;-0,12;-0,52;-0,35;0,00
8.562;-0,41;-0,72;0,14;-2,38;2,44;0,78;-0,12;-0,52;-0,35;0,00
8.563;-0,41;-0,72;0,14;-2,38;2,44;0,78;-0,28;-0,60;-0,22;0,00
8.563;-0,44;-0,79;0,14;-2,38;2,44;0,78;-0,28;-0,60;-0,22;0,00
8.563;-0,45;-0,85;0,12;-2,38;2,44;0,78;-0,28;-0,60;-0,22;0,00
8.564;-0,45;-0,91;0,11;-2,38;2,44;0,78;-0,28;-0,60;-0,22;0,00
8.62;-0,42;-1,04;0,11;-2,38;2,44;0,78;-0,28;-0,60;-0,22;0,00
8.621;-0,45;-1,20;0,08;-2,38;2,44;0,78;-0,28;-0,60;-0,22;0,00
8.622;-0,53;-1,28;0,09;-2,38;2,44;0,78;-0,28;-0,60;-0,22;0,00
8.622;-0,53;-1,28;0,09;-2,38;2,44;0,78;-0,06;-0,74;0,05;0,00
8.623;-0,53;-1,28;0,09;-2,55;0,34;0,61;-0,06;-0,74;0,05;0,00
8.677;-0,53;-1,28;0,09;-3,28;-2,59;0,28;-0,06;-0,74;0,05;0,00
8.678;-0,53;-1,28;0,09;-3,28;-2,59;0,28;0,16;-0,33;0,08;0,00
8.679;-0,58;-1,22;0,12;-3,28;-2,59;0,28;0,16;-0,33;0,08;0,00
8.679;-0,58;-1,16;0,12;-3,28;-2,59;0,28;0,16;-0,33;0,08;0,00
8.679;-0,51;-1,26;0,05;-3,28;-2,59;0,28;0,16;-0,33;0,08;0,00
8.737;-0,51;-1,26;0,05;-3,28;-2,59;0,28;0,40;-0,33;0,34;0,00
8.738;-0,51;-1,26;0,05;-2,96;-2,89;-0,46;0,40;-0,33;0,34;0,00
8.738;-0,45;-1,38;-0,04;-2,96;-2,89;-0,46;0,40;-0,33;0,34;0,00
8.739;-0,48;-1,40;-0,01;-2,96;-2,89;-0,46;0,40;-0,33;0,34;0,00
8.739;-0,56;-1,34;0,10;-2,96;-2,89;-0,46;0,40;-0,33;0,34;0,00
8.796;-0,56;-1,34;0,10;-2,96;-2,89;-0,46;0,20;1,11;0,52;0,00
8.796;-0,56;-1,34;0,10;-2,67;-3,65;0,14;0,20;1,11;0,52;0,00
8.797;-0,54;-1,28;0,22;-2,67;-3,65;0,14;0,20;1,11;0,52;0,00
8.797;-0,44;-1,28;0,23;-2,67;-3,65;0,14;0,20;1,11;0,52;0,00
8.797;-0,28;-1,28;0,17;-2,67;-3,65;0,14;0,20;1,11;0,52;0,00
8.853;-0,28;-1,28;0,17;-2,67;-3,65;0,14;0,36;0,89;1,11;0,00
8.853;-0,28;-1,28;0,17;0,13;-2,95;0,71;0,36;0,89;1,11;0,00
8.854;-0,19;-1,21;0,11;0,13;-2,95;0,71;0,36;0,89;1,11;0,00
8.854;-0,17;-1,11;0,12;0,13;-2,95;0,71;0,36;0,89;1,11;0,00
8.854;-0,18;-1,02;0,17;0,13;-2,95;0,71;0,36;0,89;1,11;0,00
8.911;-0,18;-1,02;0,17;0,13;-2,95;0,71;0,33;1,93;0,97;0,00
8.912;-0,18;-1,02;0,17;1,81;-0,82;0,92;0,33;1,93;0,97;0,00
8.912;-0,22;-0,93;0,22;1,81;-0,82;0,92;0,33;1,93;0,97;0,00
8.912;-0,27;-0,84;0,20;1,81;-0,82;0,92;0,33;1,93;0,97;0,00
8.912;-0,30;-0,74;0,19;1,81;-0,82;0,92;0,33;1,93;0,97;0,00
8.976;-0,30;-0,74;0,19;1,81;-0,82;0,92;0,43;1,89;1,06;0,00
8.978;-0,30;-0,66;0,19;1,81;-0,82;0,92;0,43;1,89;1,06;0,00
8.978;-0,28;-0,60;0,17;1,81;-0,82;0,92;0,43;1,89;1,06;0,00
8.979;-0,24;-0,56;0,14;1,81;-0,82;0,92;0,43;1,89;1,06;0,00
8.98;-0,24;-0,56;0,14;1,46;1,57;1,38;0,43;1,89;1,06;0,00
9.029;-0,24;-0,56;0,14;1,46;1,57;1,38;0,57;0,89;1,48;0,00
9.031;-0,17;-0,55;0,12;1,46;1,57;1,38;0,57;0,89;1,48;0,00
9.031;-0,11;-0,56;0,10;1,46;1,57;1,38;0,57;0,89;1,48;0,00
9.032;-0,06;-0,61;0,08;1,46;1,57;1,38;0,57;0,89;1,48;0,00
9.032;-0,06;-0,61;0,08;2,75;2,85;0,83;0,57;0,89;1,48;0,00
9.086;-0,06;-0,61;0,08;2,75;2,85;0,83;0,53;0,47;1,45;0,00
9.087;-0,06;-0,61;0,08;4,97;1,96;0,01;0,53;0,47;1,45;0,00
9.088;-0,03;-0,65;0,05;4,97;1,96;0,01;0,53;0,47;1,45;0,00
9.088;-0,04;-0,70;0,05;4,97;1,96;0,01;0,53;0,47;1,45;0,00
9.088;-0,06;-0,75;0,08;4,97;1,96;0,01;0,53;0,47;1,45;0,00
9.146;-0,06;-0,75;0,08;5,30;0,27;0,13;0,53;0,47;1,45;0,00
9.147;-0,06;-0,75;0,08;5,30;0,27;0,13;0,15;0,56;0,65;0,00
9.147;-0,08;-0,82;0,09;5,30;0,27;0,13;0,15;0,56;0,65;0,00
9.148;-0,14;-0,92;0,11;5,30;0,27;0,13;0,15;0,56;0,65;0,00
9.148;-0,20;-1,05;0,12;5,30;0,27;0,13;0,15;0,56;0,65;0,00
9.204;-0,20;-1,05;0,12;5,30;0,27;0,13;-0,28;0,05;-0,29;0,00
9.205;-0,20;-1,05;0,12;3,89;-2,48;0,78;-0,28;0,05;-0,29;0,00
9.209;-0,21;-1,18;0,15;3,89;-2,48;0,78;-0,28;0,05;-0,29;0,00
9.21;-0,23;-1,27;0,16;3,89;-2,48;0,78;-0,28;0,05;-0,29;0,00
9.21;-0,30;-1,28;0,15;3,89;-2,48;0,78;-0,28;0,05;-0,29;0,00
9.262;-0,30;-1,28;0,15;2,37;-4,33;0,95;-0,28;0,05;-0,29;0,00
9.263;-0,30;-1,28;0,15;2,37;-4,33;0,95;-0,55;-0,83;-1,09;0,00
9.263;-0,31;-1,30;0,14;2,37;-4,33;0,95;-0,55;-0,83;-1,09;0,00
9.263;-0,29;-1,40;0,13;2,37;-4,33;0,95;-0,55;-0,83;-1,09;0,00
9.264;-0,29;-1,45;0,14;2,37;-4,33;0,95;-0,55;-0,83;-1,09;0,00
9.321;-0,29;-1,45;0,14;2,37;-4,33;0,95;-0,59;-1,42;-1,53;0,00
9.321;-0,30;-1,43;0,14;2,37;-4,33;0,95;-0,59;-1,42;-1,53;0,00
9.322;-0,34;-1,27;0,11;2,37;-4,33;0,95;-0,59;-1,42;-1,53;0,00
9.322;-0,39;-1,11;0,12;2,37;-4,33;0,95;-0,59;-1,42;-1,53;0,00
9.322;-0,39;-1,11;0,12;1,42;-5,17;0,72;-0,59;-1,42;-1,53;0,00
9.379;-0,39;-1,11;0,12;-0,26;-2,10;0,42;-0,59;-1,42;-1,53;0,00
9.38;-0,39;-1,11;0,12;-0,26;-2,10;0,42;-0,51;-1,22;-1,74;0,00
9.381;-0,37;-1,09;0,08;-0,26;-2,10;0,42;-0,51;-1,22;-1,74;0,00
9.383;-0,36;-1,17;0,01;-0,26;-2,10;0,42;-0,51;-1,22;-1,74;0,00
9.384;-0,40;-1,20;0,00;-0,26;-2,10;0,42;-0,51;-1,22;-1,74;0,00
9.437;-0,40;-1,20;0,00;-1,48;-1,93;-0,24;-0,51;-1,22;-1,74;0,00
9.438;-0,40;-1,20;0,00;-1,48;-1,93;-0,24;-0,35;-0,37;-1,48;0,00
9.439;-0,47;-1,13;0,06;-1,48;-1,93;-0,24;-0,35;-0,37;-1,48;0,00
9.44;-0,52;-1,00;0,12;-1,48;-1,93;-0,24;-0,35;-0,37;-1,48;0,00
9.441;-0,55;-0,85;0,15;-1,48;-1,93;-0,24;-0,35;-0,37;-1,48;0,00
9.509;-0,55;-0,85;0,15;-1,48;-1,93;-0,24;-0,31;-0,55;-1,02;0,00
9.51;-0,53;-0,71;0,11;-1,48;-1,93;-0,24;-0,31;-0,55;-1,02;0,00
9.511;-0,43;-0,60;0,06;-1,48;-1,93;-0,24;-0,31;-0,55;-1,02;0,00
9.511;-0,35;-0,52;0,05;-1,48;-1,93;-0,24;-0,31;-0,55;-1,02;0,00
9.512;-0,35;-0,52;0,05;-3,21;1,25;0,84;-0,31;-0,55;-1,02;0,00
9.553;-0,35;-0,52;0,05;-3,21;1,25;0,84;-0,17;-1,31;-0,33;0,00
9.554;-0,35;-0,52;0,05;-1,74;4,38;0,08;-0,17;-1,31;-0,33;0,00
9.555;-0,31;-0,48;0,04;-1,74;4,38;0,08;-0,17;-1,31;-0,33;0,00
9.556;-0,29;-0,48;0,04;-1,74;4,38;0,08;-0,17;-1,31;-0,33;0,00
9.557;-0,28;-0,51;0,03;-1,74;4,38;0,08;-0,17;-1,31;-0,33;0,00
9.626;-0,28;-0,51;0,03;-1,74;4,38;0,08;-0,10;-0,71;-0,09;0,00
9.628;-0,28;-0,51;0,03;-0,93;4,46;-0,14;-0,10;-0,71;-0,09;0,00
9.629;-0,25;-0,55;0,03;-0,93;4,46;-0,14;-0,10;-0,71;-0,09;0,00
9.632;-0,27;-0,64;0,04;-0,93;4,46;-0,14;-0,10;-0,71;-0,09;0,00
9.633;-0,30;-0,75;0,06;-0,93;4,46;-0,14;-0,10;-0,71;-0,09;0,00
9.67;-0,30;-0,75;0,06;-1,42;2,21;0,17;-0,10;-0,71;-0,09;0,00
9.671;-0,30;-0,75;0,06;-1,42;2,21;0,17;-0,24;-0,35;-0,24;0,00
9.672;-0,36;-0,85;0,07;-1,42;2,21;0,17;-0,24;-0,35;-0,24;0,00
9.672;-0,40;-0,89;0,10;-1,42;2,21;0,17;-0,24;-0,35;-0,24;0,00
9.672;-0,41;-0,89;0,12;-1,42;2,21;0,17;-0,24;-0,35;-0,24;0,00
9.729;-0,41;-0,89;0,12;-1,42;2,21;0,17;-0,23;-0,52;-0,21;0,00
9.731;-0,41;-0,89;0,12;-2,37;0,85;0,76;-0,23;-0,52;-0,21;0,00
9.731;-0,39;-0,88;0,11;-2,37;0,85;0,76;-0,23;-0,52;-0,21;0,00
9.732;-0,37;-0,91;0,07;-2,37;0,85;0,76;-0,23;-0,52;-0,21;0,00
9.732;-0,37;-1,00;0,04;-2,37;0,85;0,76;-0,23;-0,52;-0,21;0,00
9.788;-0,37;-1,00;0,04;-2,37;0,85;0,76;0,08;-0,23;-0,06;0,00
9.789;-0,44;-1,14;0,02;-2,37;0,85;0,76;0,08;-0,23;-0,06;0,00
9.79;-0,49;-1,25;0,06;-2,37;0,85;0,76;0,08;-0,23;-0,06;0,00
9.791;-0,53;-1,23;0,14;-2,37;0,85;0,76;0,08;-0,23;-0,06;0,00
9.792;-0,53;-1,23;0,14;-2,33;-0,41;0,06;0,08;-0,23;-0,06;0,00
9.845;-0,53;-1,23;0,14;-2,33;-0,41;0,06;0,11;0,02;0,03;0,00
9.846;-0,52;-1,17;0,16;-2,33;-0,41;0,06;0,11;0,02;0,03;0,00
9.846;-0,48;-1,23;0,10;-2,33;-0,41;0,06;0,11;0,02;0,03;0,00
9.847;-0,44;-1,32;0,03;-2,33;-0,41;0,06;0,11;0,02;0,03;0,00
9.848;-0,44;-1,32;0,03;-3,41;-2,36;0,76;0,11;0,02;0,03;0,00
9.902;-0,44;-1,32;0,03;-3,41;-2,36;0,76;0,29;-0,15;0,17;0,00
9.902;-0,44;-1,32;0,03;-2,56;-3,32;-0,21;0,29;-0,15;0,17;0,00
9.903;-0,41;-1,40;-0,01;-2,56;-3,32;-0,21;0,29;-0,15;0,17;0,00
9.903;-0,47;-1,36;0,06;-2,56;-3,32;-0,21;0,29;-0,15;0,17;0,00
9.903;-0,52;-1,25;0,17;-2,56;-3,32;-0,21;0,29;-0,15;0,17;0,00
9.952;-0,52;-1,25;0,17;-2,56;-3,32;-0,21;0,25;1,52;0,39;0,00
9.953;-0,49;-1,16;0,24;-2,56;-3,32;-0,21;0,25;1,52;0,39;0,00
9.953;-0,42;-1,12;0,22;-2,56;-3,32;-0,21;0,25;1,52;0,39;0,00
9.953;-0,30;-1,11;0,16;-2,56;-3,32;-0,21;0,25;1,52;0,39;0,00
9.954;-0,30;-1,11;0,16;-2,74;-2,71;0,94;0,25;1,52;0,39;0,00
10.01;-0,30;-1,11;0,16;-2,74;-2,71;0,94;0,56;1,42;1,05;0,00
10.011;-0,30;-1,11;0,16;-0,33;-1,31;0,96;0,56;1,42;1,05;0,00
10.012;-0,22;-1,07;0,14;-0,33;-1,31;0,96;0,56;1,42;1,05;0,00
10.013;-0,17;-1,00;0,15;-0,33;-1,31;0,96;0,56;1,42;1,05;0,00
10.013;-0,17;-0,91;0,16;-0,33;-1,31;0,96;0,56;1,42;1,05;0,00
10.069;-0,17;-0,91;0,16;-0,33;-1,31;0,96;0,51;2,12;1,01;0,00
10.069;-0,19;-0,83;0,19;-0,33;-1,31;0,96;0,51;2,12;1,01;0,00
10.07;-0,22;-0,76;0,19;-0,33;-1,31;0,96;0,51;2,12;1,01;0,00
10.07;-0,25;-0,71;0,18;-0,33;-1,31;0,96;0,51;2,12;1,01;0,00
10.07;-0,25;-0,71;0,18;1,60;0,29;0,97;0,51;2,12;1,01;0,00
10.127;-0,25;-0,71;0,18;1,51;2,01;1,37;0,51;2,12;1,01;0,00
10.128;-0,25;-0,71;0,18;1,51;2,01;1,37;0,44;2,17;1,04;0,00
10.129;-0,27;-0,67;0,18;1,51;2,01;1,37;0,44;2,17;1,04;0,00
10.13;-0,24;-0,65;0,18;1,51;2,01;1,37;0,44;2,17;1,04;0,00
10.13;-0,21;-0,65;0,16;1,51;2,01;1,37;0,44;2,17;1,04;0,00
10.185;-0,21;-0,65;0,16;1,51;2,01;1,37;0,35;1,32;1,17;0,00
10.187;-0,21;-0,65;0,16;2,45;2,30;1,21;0,35;1,32;1,17;0,00
10.188;-0,19;-0,65;0,13;2,45;2,30;1,21;0,35;1,32;1,17;0,00
10.189;-0,18;-0,67;0,13;2,45;2,30;1,21;0,35;1,32;1,17;0,00
10.19;-0,17;-0,71;0,13;2,45;2,30;1,21;0,35;1,32;1,17;0,00
10.243;-0,17;-0,71;0,13;2,45;2,30;1,21;0,16;0,79;1,02;0,00
10.244;-0,17;-0,71;0,13;3,22;1,37;0,99;0,16;0,79;1,02;0,00
10.245;-0,19;-0,75;0,11;3,22;1,37;0,99;0,16;0,79;1,02;0,00
10.245;-0,22;-0,79;0,12;3,22;1,37;0,99;0,16;0,79;1,02;0,00
10.245;-0,22;-0,80;0,13;3,22;1,37;0,99;0,16;0,79;1,02;0,00
10.304;-0,22;-0,80;0,13;3,22;1,37;0,99;-0,05;0,26;0,67;0,00
10.305;-0,22;-0,80;0,13;3,09;0,20;1,07;-0,05;0,26;0,67;0,00
10.306;-0,22;-0,84;0,12;3,09;0,20;1,07;-0,05;0,26;0,67;0,00
10.307;-0,19;-0,90;0,10;3,09;0,20;1,07;-0,05;0,26;0,67;0,00
10.308;-0,16;-0,99;0,09;3,09;0,20;1,07;-0,05;0,26;0,67;0,00
10.361;-0,16;-0,99;0,09;3,09;0,20;1,07;-0,12;0,06;0,28;0,00
10.363;-0,18;-1,11;0,10;3,09;0,20;1,07;-0,12;0,06;0,28;0,00
10.364;-0,22;-1,21;0,13;3,09;0,20;1,07;-0,12;0,06;0,28;0,00
10.364;-0,25;-1,22;0,16;3,09;0,20;1,07;-0,12;0,06;0,28;0,00
10.365;-0,25;-1,22;0,16;3,59;-1,72;0,88;-0,12;0,06;0,28;0,00
10.418;-0,25;-1,22;0,16;3,59;-1,72;0,88;-0,18;-0,20;-0,38;0,00
10.419;-0,25;-1,22;0,16;2,72;-3,44;1,36;-0,18;-0,20;-0,38;0,00
10.419;-0,26;-1,15;0,14;2,72;-3,44;1,36;-0,18;-0,20;-0,38;0,00
10.42;-0,24;-1,18;0,09;2,72;-3,44;1,36;-0,18;-0,20;-0,38;0,00
10.42;-0,25;-1,25;0,05;2,72;-3,44;1,36;-0,18;-0,20;-0,38;0,00
10.477;-0,25;-1,25;0,05;2,72;-3,44;1,36;-0,09;-0,70;-0,78;0,00
10.478;-0,27;-1,29;0,05;2,72;-3,44;1,36;-0,09;-0,70;-0,78;0,00
10.478;-0,27;-1,32;0,07;2,72;-3,44;1,36;-0,09;-0,70;-0,78;0,00
10.478;-0,29;-1,27;0,08;2,72;-3,44;1,36;-0,09;-0,70;-0,78;0,00
10.478;-0,29;-1,27;0,08;2,19;-3,61;0,42;-0,09;-0,70;-0,78;0,00
10.536;-0,29;-1,27;0,08;2,19;-3,61;0,42;-0,28;-0,98;-1,17;0,00
10.537;-0,29;-1,27;0,08;1,12;-3,35;0,44;-0,28;-0,98;-1,17;0,00
10.538;-0,34;-1,16;0,09;1,12;-3,35;0,44;-0,28;-0,98;-1,17;0,00
10.54;-0,34;-1,16;0,07;1,12;-3,35;0,44;-0,28;-0,98;-1,17;0,00
10.54;-0,31;-1,19;0,04;1,12;-3,35;0,44;-0,28;-0,98;-1,17;0,00
10.594;-0,31;-1,19;0,04;1,12;-3,35;0,44;-0,31;-1,17;-1,25;0,00
10.595;-0,32;-1,17;0,01;1,12;-3,35;0,44;-0,31;-1,17;-1,25;0,00
10.595;-0,36;-1,12;0,04;1,12;-3,35;0,44;-0,31;-1,17;-1,25;0,00
10.596;-0,40;-1,01;0,10;1,12;-3,35;0,44;-0,31;-1,17;-1,25;0,00
10.596;-0,40;-1,01;0,10;0,20;-2,25;-0,06;-0,31;-1,17;-1,25;0,00
10.652;-0,40;-1,01;0,10;-1,17;-0,29;0,52;-0,31;-1,17;-1,25;0,00
10.653;-0,40;-1,01;0,10;-1,17;-0,29;0,52;-0,37;-0,78;-1,16;0,00
10.653;-0,44;-0,85;0,13;-1,17;-0,29;0,52;-0,37;-0,78;-1,16;0,00
10.653;-0,43;-0,69;0,11;-1,17;-0,29;0,52;-0,37;-0,78;-1,16;0,00
10.654;-0,37;-0,57;0,08;-1,17;-0,29;0,52;-0,37;-0,78;-1,16;0,00
10.71;-0,37;-0,57;0,08;-1,17;-0,29;0,52;-0,18;-1,40;-0,69;0,00
10.711;-0,29;-0,51;0,06;-1,17;-0,29;0,52;-0,18;-1,40;-0,69;0,00
10.712;-0,25;-0,49;0,03;-1,17;-0,29;0,52;-0,18;-1,40;-0,69;0,00
10.712;-0,25;-0,49;0,03;-1,22;3,72;0,34;-0,18;-1,40;-0,69;0,00
10.759;-0,25;-0,49;0,03;-1,22;3,72;0,34;-0,11;-1,08;-0,47;0,00
10.76;-0,24;-0,52;0,01;-1,22;3,72;0,34;-0,11;-1,08;-0,47;0,00
10.76;-0,24;-0,58;0,01;-1,22;3,72;0,34;-0,11;-1,08;-0,47;0,00
10.761;-0,25;-0,65;0,02;-1,22;3,72;0,34;-0,11;-1,08;-0,47;0,00
10.761;-0,25;-0,65;0,02;-0,35;4,26;-0,39;-0,11;-1,08;-0,47;0,00
10.827;-0,32;-0,73;0,05;-0,35;4,26;-0,39;-0,11;-1,08;-0,47;0,00
10.828;-0,39;-0,81;0,07;-0,35;4,26;-0,39;-0,11;-1,08;-0,47;0,00
10.829;-0,47;-0,86;0,09;-0,35;4,26;-0,39;-0,11;-1,08;-0,47;0,00
10.829;-0,47;-0,86;0,09;-0,35;4,26;-0,39;-0,36;-0,74;-0,74;0,00
10.83;-0,47;-0,86;0,09;-1,48;2,37;0,01;-0,36;-0,74;-0,74;0,00
10.875;-0,47;-0,86;0,09;-1,48;2,37;0,01;-0,43;-0,89;-0,76;0,00
10.877;-0,47;-0,86;0,09;-3,63;1,14;0,76;-0,43;-0,89;-0,76;0,00
10.878;-0,51;-0,87;0,12;-3,63;1,14;0,76;-0,43;-0,89;-0,76;0,00
10.879;-0,52;-0,85;0,11;-3,63;1,14;0,76;-0,43;-0,89;-0,76;0,00
10.88;-0,53;-0,85;0,09;-3,63;1,14;0,76;-0,43;-0,89;-0,76;0,00
10.934;-0,53;-0,85;0,09;-4,19;0,64;0,55;-0,43;-0,89;-0,76;0,00
10.935;-0,53;-0,85;0,09;-4,19;0,64;0,55;-0,11;-0,61;-0,33;0,00
10.935;-0,55;-0,88;0,09;-4,19;0,64;0,55;-0,11;-0,61;-0,33;0,00
10.935;-0,56;-1,01;0,07;-4,19;0,64;0,55;-0,11;-0,61;-0,33;0,00
10.936;-0,61;-1,13;0,06;-4,19;0,64;0,55;-0,11;-0,61;-0,33;0,00
10.993;-0,61;-1,13;0,06;-4,19;0,64;0,55;0,06;0,03;0,04;0,00
10.994;-0,61;-1,13;0,06;-5,18;-1,37;0,82;0,06;0,03;0,04;0,00
10.995;-0,66;-1,16;0,11;-5,18;-1,37;0,82;0,06;0,03;0,04;0,00
10.996;-0,70;-1,06;0,18;-5,18;-1,37;0,82;0,06;0,03;0,04;0,00
10.997;-0,64;-0,98;0,19;-5,18;-1,37;0,82;0,06;0,03;0,04;0,00
11.051;-0,64;-0,98;0,19;-5,18;-1,37;0,82;0,34;-0,30;0,56;0,00
11.052;-0,55;-1,14;0,09;-5,18;-1,37;0,82;0,34;-0,30;0,56;0,00
11.052;-0,51;-1,27;-0,02;-5,18;-1,37;0,82;0,34;-0,30;0,56;0,00
11.053;-0,53;-1,31;0,01;-5,18;-1,37;0,82;0,34;-0,30;0,56;0,00
11.053;-0,53;-1,31;0,01;-3,92;-1,51;0,30;0,34;-0,30;0,56;0,00
11.109;-0,53;-1,31;0,01;-3,23;-3,36;0,80;0,34;-0,30;0,56;0,00
11.109;-0,53;-1,31;0,01;-3,23;-3,36;0,80;0,23;1,28;0,74;0,00
11.11;-0,57;-1,29;0,16;-3,23;-3,36;0,80;0,23;1,28;0,74;0,00
11.11;-0,54;-1,35;0,24;-3,23;-3,36;0,80;0,23;1,28;0,74;0,00
11.11;-0,48;-1,39;0,23;-3,23;-3,36;0,80;0,23;1,28;0,74;0,00
11.167;-0,48;-1,39;0,23;-1,13;-3,76;1,61;0,23;1,28;0,74;0,00
11.167;-0,48;-1,39;0,23;-1,13;-3,76;1,61;0,40;1,59;1,13;0,00
11.167;-0,40;-1,36;0,22;-1,13;-3,76;1,61;0,40;1,59;1,13;0,00
11.168;-0,33;-1,28;0,21;-1,13;-3,76;1,61;0,40;1,59;1,13;0,00
11.168;-0,29;-1,20;0,22;-1,13;-3,76;1,61;0,40;1,59;1,13;0,00
11.226;-0,29;-1,20;0,22;-1,13;-3,76;1,61;0,55;2,29;1,18;0,00
11.226;-0,28;-1,10;0,25;-1,13;-3,76;1,61;0,55;2,29;1,18;0,00
11.227;-0,28;-0,96;0,25;-1,13;-3,76;1,61;0,55;2,29;1,18;0,00
11.227;-0,30;-0,84;0,23;-1,13;-3,76;1,61;0,55;2,29;1,18;0,00
11.228;-0,30;-0,84;0,23;0,74;-1,41;1,91;0,55;2,29;1,18;0,00
11.284;-0,30;-0,84;0,23;0,74;-1,41;1,91;0,75;2,44;1,50;0,00
11.286;-0,30;-0,74;0,22;0,74;-1,41;1,91;0,75;2,44;1,50;0,00
11.286;-0,27;-0,69;0,23;0,74;-1,41;1,91;0,75;2,44;1,50;0,00
11.287;-0,22;-0,66;0,23;0,74;-1,41;1,91;0,75;2,44;1,50;0,00
11.288;-0,22;-0,66;0,23;1,52;1,43;1,91;0,75;2,44;1,50;0,00
11.343;-0,22;-0,66;0,23;1,52;1,43;1,91;0,79;1,55;1,69;0,00
11.345;-0,22;-0,66;0,23;3,64;2,15;1,53;0,79;1,55;1,69;0,00
11.346;-0,15;-0,63;0,19;3,64;2,15;1,53;0,79;1,55;1,69;0,00
11.347;-0,10;-0,60;0,15;3,64;2,15;1,53;0,79;1,55;1,69;0,00
11.348;-0,06;-0,59;0,13;3,64;2,15;1,53;0,79;1,55;1,69;0,00
11.402;-0,04;-0,61;0,11;3,64;2,15;1,53;0,79;1,55;1,69;0,00
11.404;-0,06;-0,65;0,11;3,64;2,15;1,53;0,79;1,55;1,69;0,00
11.405;-0,10;-0,72;0,13;3,64;2,15;1,53;0,79;1,55;1,69;0,00
11.405;-0,10;-0,72;0,13;3,64;2,15;1,53;0,59;1,26;1,35;0,00
11.406;-0,10;-0,72;0,13;5,17;1,78;0,93;0,59;1,26;1,35;0,00
11.459;-0,10;-0,72;0,13;5,17;1,78;0,93;0,14;0,86;0,68;0,00
11.46;-0,10;-0,72;0,13;5,08;-0,30;1,65;0,14;0,86;0,68;0,00
11.461;-0,09;-0,81;0,19;5,08;-0,30;1,65;0,14;0,86;0,68;0,00
11.462;-0,08;-0,89;0,18;5,08;-0,30;1,65;0,14;0,86;0,68;0,00
11.463;-0,10;-1,02;0,19;5,08;-0,30;1,65;0,14;0,86;0,68;0,00
11.519;-0,10;-1,02;0,19;5,08;-0,30;1,65;-0,11;-0,07;-0,19;0,00
11.52;-0,10;-1,02;0,19;4,28;-3,24;1,90;-0,11;-0,07;-0,19;0,00
11.521;-0,16;-1,14;0,20;4,28;-3,24;1,90;-0,11;-0,07;-0,19;0,00
11.522;-0,21;-1,20;0,19;4,28;-3,24;1,90;-0,11;-0,07;-0,19;0,00
11.523;-0,23;-1,19;0,16;4,28;-3,24;1,90;-0,11;-0,07;-0,19;0,00
11.576;-0,23;-1,19;0,16;4,28;-3,24;1,90;-0,20;-0,96;-0,88;0,00
11.577;-0,20;-1,32;0,13;4,28;-3,24;1,90;-0,20;-0,96;-0,88;0,00
11.577;-0,18;-1,48;0,09;4,28;-3,24;1,90;-0,20;-0,96;-0,88;0,00
11.578;-0,24;-1,57;0,08;4,28;-3,24;1,90;-0,20;-0,96;-0,88;0,00
11.578;-0,24;-1,57;0,08;3,31;-4,92;0,97;-0,20;-0,96;-0,88;0,00
11.633;-0,24;-1,57;0,08;0,96;-5,49;0,55;-0,20;-0,96;-0,88;0,00
11.635;-0,24;-1,57;0,08;0,96;-5,49;0,55;-0,46;-1,34;-1,68;0,00
11.635;-0,36;-1,48;0,10;0,96;-5,49;0,55;-0,46;-1,34;-1,68;0,00
11.635;-0,47;-1,30;0,11;0,96;-5,49;0,55;-0,46;-1,34;-1,68;0,00
11.636;-0,50;-1,17;0,06;0,96;-5,49;0,55;-0,46;-1,34;-1,68;0,00
11.693;-0,50;-1,17;0,06;0,96;-5,49;0,55;-0,36;-1,73;-1,38;0,00
11.693;-0,44;-1,16;0,01;0,96;-5,49;0,55;-0,36;-1,73;-1,38;0,00
11.694;-0,39;-1,16;-0,03;0,96;-5,49;0,55;-0,36;-1,73;-1,38;0,00
11.694;-0,39;-1,09;-0,03;0,96;-5,49;0,55;-0,36;-1,73;-1,38;0,00
11.696;-0,39;-1,09;-0,03;-0,61;-2,33;-0,50;-0,36;-1,73;-1,38;0,00
11.75;-0,39;-1,09;-0,03;-0,61;-2,33;-0,50;-0,25;-0,74;-0,92;0,00
11.751;-0,39;-1,09;-0,03;-0,75;-0,36;-0,45;-0,25;-0,74;-0,92;0,00
11.751;-0,40;-0,99;0,03;-0,75;-0,36;-0,45;-0,25;-0,74;-0,92;0,00
11.751;-0,42;-0,86;0,06;-0,75;-0,36;-0,45;-0,25;-0,74;-0,92;0,00
11.751;-0,42;-0,72;0,07;-0,75;-0,36;-0,45;-0,25;-0,74;-0,92;0,00
11.808;-0,42;-0,72;0,07;-0,75;-0,36;-0,45;-0,20;-1,25;-0,61;0,00
11.809;-0,39;-0,59;0,05;-0,75;-0,36;-0,45;-0,20;-1,25;-0,61;0,00
11.809;-0,32;-0,51;0,02;-0,75;-0,36;-0,45;-0,20;-1,25;-0,61;0,00
11.809;-0,25;-0,49;-0,00;-0,75;-0,36;-0,45;-0,20;-1,25;-0,61;0,00
11.809;-0,25;-0,49;-0,00;-0,85;3,37;-0,28;-0,20;-1,25;-0,61;0,00
11.857;-0,25;-0,49;-0,00;-0,85;3,37;-0,28;-0,36;-1,10;-0,56;0,00
11.858;-0,23;-0,51;-0,02;-0,85;3,37;-0,28;-0,36;-1,10;-0,56;0,00
11.858;-0,26;-0,59;0,01;-0,85;3,37;-0,28;-0,36;-1,10;-0,56;0,00
11.858;-0,29;-0,66;0,06;-0,85;3,37;-0,28;-0,36;-1,10;-0,56;0,00
11.858;-0,29;-0,66;0,06;0,08;4,15;-0,74;-0,36;-1,10;-0,56;0,00
11.917;-0,29;-0,66;0,06;-1,20;2,32;0,47;-0,36;-1,10;-0,56;0,00
11.918;-0,29;-0,66;0,06;-1,20;2,32;0,47;-0,54;-0,57;-0,75;0,00
11.918;-0,34;-0,73;0,10;-1,20;2,32;0,47;-0,54;-0,57;-0,75;0,00
11.918;-0,37;-0,79;0,13;-1,20;2,32;0,47;-0,54;-0,57;-0,75;0,00
11.964;-0,37;-0,79;0,13;-1,20;2,32;0,47;-0,45;-0,58;-0,74;0,00
11.965;-0,37;-0,79;0,13;-2,61;0,98;0,82;-0,45;-0,58;-0,74;0,00
11.965;-0,41;-0,85;0,12;-2,61;0,98;0,82;-0,45;-0,58;-0,74;0,00
11.965;-0,44;-0,88;0,11;-2,61;0,98;0,82;-0,45;-0,58;-0,74;0,00
11.966;-0,46;-0,87;0,12;-2,61;0,98;0,82;-0,45;-0,58;-0,74;0,00
12.023;-0,46;-0,87;0,12;-2,61;0,98;0,82;-0,13;-0,34;-0,39;0,00
12.025;-0,48;-0,85;0,12;-2,61;0,98;0,82;-0,13;-0,34;-0,39;0,00
12.025;-0,50;-0,89;0,12;-2,61;0,98;0,82;-0,13;-0,34;-0,39;0,00
12.026;-0,52;-1,02;0,10;-2,61;0,98;0,82;-0,13;-0,34;-0,39;0,00
12.026;-0,52;-1,02;0,10;-3,37;0,52;0,84;-0,13;-0,34;-0,39;0,00
12.08;-0,52;-1,02;0,10;-4,32;-2,01;0,93;-0,13;-0,34;-0,39;0,00
12.081;-0,52;-1,02;0,10;-4,32;-2,01;0,93;0,05;-0,19;-0,13;0,00
12.081;-0,55;-1,19;0,09;-4,32;-2,01;0,93;0,05;-0,19;-0,13;0,00
12.081;-0,60;-1,23;0,12;-4,32;-2,01;0,93;0,05;-0,19;-0,13;0,00
12.081;-0,64;-1,13;0,18;-4,32;-2,01;0,93;0,05;-0,19;-0,13;0,00
12.14;-0,64;-1,13;0,18;-4,32;-2,01;0,93;0,39;-0,55;0,30;0,00
12.141;-0,59;-1,04;0,21;-4,32;-2,01;0,93;0,39;-0,55;0,30;0,00
12.141;-0,50;-1,17;0,13;-4,32;-2,01;0,93;0,39;-0,55;0,30;0,00
12.142;-0,46;-1,34;0,01;-4,32;-2,01;0,93;0,39;-0,55;0,30;0,00
12.142;-0,46;-1,34;0,01;-3,36;-1,99;0,49;0,39;-0,55;0,30;0,00
12.197;-0,46;-1,34;0,01;-3,36;-1,99;0,49;0,31;1,45;0,33;0,00
12.198;-0,46;-1,34;0,01;-2,82;-3,44;0,06;0,31;1,45;0,33;0,00
12.198;-0,43;-1,42;-0,08;-2,82;-3,44;0,06;0,31;1,45;0,33;0,00
12.199;-0,51;-1,33;0,07;-2,82;-3,44;0,06;0,31;1,45;0,33;0,00
12.199;-0,54;-1,23;0,23;-2,82;-3,44;0,06;0,31;1,45;0,33;0,00
12.256;-0,54;-1,23;0,23;-2,82;-3,44;0,06;0,61;1,80;1,02;0,00
12.257;-0,54;-1,23;0,23;-1,35;-2,67;1,10;0,61;1,80;1,02;0,00
12.257;-0,51;-1,22;0,27;-1,35;-2,67;1,10;0,61;1,80;1,02;0,00
12.257;-0,42;-1,25;0,19;-1,35;-2,67;1,10;0,61;1,80;1,02;0,00
12.258;-0,30;-1,23;0,10;-1,35;-2,67;1,10;0,61;1,80;1,02;0,00
12.315;-0,30;-1,23;0,10;1,02;-0,79;0,61;0,61;1,80;1,02;0,00
12.317;-0,30;-1,23;0,10;1,02;-0,79;0,61;0,61;2,32;1,09;0,00
12.317;-0,23;-1,15;0,10;1,02;-0,79;0,61;0,61;2,32;1,09;0,00
12.318;-0,23;-1,02;0,13;1,02;-0,79;0,61;0,61;2,32;1,09;0,00
12.319;-0,26;-0,90;0,16;1,02;-0,79;0,61;0,61;2,32;1,09;0,00
12.373;-0,26;-0,90;0,16;1,19;1,87;1,20;0,61;2,32;1,09;0,00
12.374;-0,26;-0,90;0,16;1,19;1,87;1,20;0,52;2,31;1,26;0,00
12.374;-0,28;-0,80;0,17;1,19;1,87;1,20;0,52;2,31;1,26;0,00
12.374;-0,30;-0,72;0,17;1,19;1,87;1,20;0,52;2,31;1,26;0,00
12.375;-0,30;-0,65;0,18;1,19;1,87;1,20;0,52;2,31;1,26;0,00
12.431;-0,30;-0,65;0,18;2,70;2,75;0,90;0,52;2,31;1,26;0,00
12.432;-0,30;-0,65;0,18;2,70;2,75;0,90;0,48;1,26;1,52;0,00
12.433;-0,26;-0,60;0,17;2,70;2,75;0,90;0,48;1,26;1,52;0,00
12.434;-0,22;-0,57;0,13;2,70;2,75;0,90;0,48;1,26;1,52;0,00
12.435;-0,18;-0,58;0,11;2,70;2,75;0,90;0,48;1,26;1,52;0,00
12.49;-0,18;-0,58;0,11;2,70;2,75;0,90;0,25;0,82;1,36;0,00
12.492;-0,18;-0,58;0,11;4,21;1,24;0,49;0,25;0,82;1,36;0,00
12.493;-0,13;-0,64;0,10;4,21;1,24;0,49;0,25;0,82;1,36;0,00
12.494;-0,11;-0,70;0,07;4,21;1,24;0,49;0,25;0,82;1,36;0,00
12.495;-0,14;-0,75;0,07;4,21;1,24;0,49;0,25;0,82;1,36;0,00
12.548;-0,14;-0,75;0,07;4,38;-0,43;1,04;0,25;0,82;1,36;0,00
12.549;-0,14;-0,75;0,07;4,38;-0,43;1,04;-0,06;0,42;0,90;0,00
12.549;-0,15;-0,77;0,11;4,38;-0,43;1,04;-0,06;0,42;0,90;0,00
12.55;-0,15;-0,82;0,14;4,38;-0,43;1,04;-0,06;0,42;0,90;0,00
12.55;-0,13;-0,92;0,12;4,38;-0,43;1,04;-0,06;0,42;0,90;0,00
12.606;-0,13;-0,92;0,12;4,14;-3,38;1,21;-0,06;0,42;0,90;0,00
12.606;-0,13;-0,92;0,12;4,14;-3,38;1,21;-0,33;-0,19;0,23;0,00
12.607;-0,15;-1,04;0,10;4,14;-3,38;1,21;-0,33;-0,19;0,23;0,00
12.607;-0,18;-1,16;0,12;4,14;-3,38;1,21;-0,33;-0,19;0,23;0,00
12.608;-0,19;-1,20;0,18;4,14;-3,38;1,21;-0,33;-0,19;0,23;0,00
12.674;-0,19;-1,20;0,18;3,60;-3,67;1,03;-0,33;-0,19;0,23;0,00
12.676;-0,19;-1,20;0,18;3,60;-3,67;1,03;-0,37;-1,19;-0,44;0,00
12.676;-0,20;-1,18;0,19;3,60;-3,67;1,03;-0,37;-1,19;-0,44;0,00
12.677;-0,21;-1,14;0,14;3,60;-3,67;1,03;-0,37;-1,19;-0,44;0,00
12.678;-0,18;-1,24;0,10;3,60;-3,67;1,03;-0,37;-1,19;-0,44;0,00
12.723;-0,18;-1,24;0,10;2,37;-4,74;0,20;-0,37;-1,19;-0,44;0,00
12.724;-0,18;-1,24;0,10;2,37;-4,74;0,20;-0,55;-1,41;-1,18;0,00
12.724;-0,20;-1,35;0,03;2,37;-4,74;0,20;-0,55;-1,41;-1,18;0,00
12.725;-0,26;-1,37;0,07;2,37;-4,74;0,20;-0,55;-1,41;-1,18;0,00
12.725;-0,32;-1,30;0,12;2,37;-4,74;0,20;-0,55;-1,41;-1,18;0,00
12.78;-0,32;-1,30;0,12;2,37;-4,74;0,20;-0,49;-1,63;-1,40;0,00
12.781;-0,32;-1,30;0,12;0,78;-2,86;0,14;-0,49;-1,63;-1,40;0,00
12.784;-0,35;-1,20;0,15;0,78;-2,86;0,14;-0,49;-1,63;-1,40;0,00
12.784;-0,35;-1,18;0,10;0,78;-2,86;0,14;-0,49;-1,63;-1,40;0,00
12.785;-0,32;-1,20;0,02;0,78;-2,86;0,14;-0,49;-1,63;-1,40;0,00
12.839;-0,32;-1,20;0,02;-0,29;-1,32;-0,53;-0,49;-1,63;-1,40;0,00
12.84;-0,32;-1,20;0,02;-0,29;-1,32;-0,53;-0,40;-0,88;-1,38;0,00
12.84;-0,34;-1,15;-0,02;-0,29;-1,32;-0,53;-0,40;-0,88;-1,38;0,00
12.841;-0,37;-1,08;0,00;-0,29;-1,32;-0,53;-0,40;-0,88;-1,38;0,00
12.841;-0,41;-0,98;0,07;-0,29;-1,32;-0,53;-0,40;-0,88;-1,38;0,00
12.898;-0,41;-0,98;0,07;-1,42;2,46;0,24;-0,40;-0,88;-1,38;0,00
12.898;-0,41;-0,98;0,07;-1,42;2,46;0,24;-0,35;-1,07;-1,10;0,00
12.899;-0,45;-0,83;0,12;-1,42;2,46;0,24;-0,35;-1,07;-1,10;0,00
12.899;-0,44;-0,70;0,10;-1,42;2,46;0,24;-0,35;-1,07;-1,10;0,00
12.899;-0,39;-0,58;0,07;-1,42;2,46;0,24;-0,35;-1,07;-1,10;0,00
12.956;-0,39;-0,58;0,07;-1,42;2,46;0,24;-0,37;-1,36;-0,82;0,00
12.958;-0,39;-0,58;0,07;-0,92;4,46;-0,28;-0,37;-1,36;-0,82;0,00
12.958;-0,34;-0,50;0,04;-0,92;4,46;-0,28;-0,37;-1,36;-0,82;0,00
12.959;-0,31;-0,49;0,03;-0,92;4,46;-0,28;-0,37;-1,36;-0,82;0,00
12.96;-0,33;-0,52;0,05;-0,92;4,46;-0,28;-0,37;-1,36;-0,82;0,00
13.015;-0,33;-0,52;0,05;-2,04;3,12;0,67;-0,37;-1,36;-0,82;0,00
13.016;-0,33;-0,52;0,05;-2,04;3,12;0,67;-0,57;-1,07;-0,82;0,00
13.016;-0,37;-0,60;0,09;-2,04;3,12;0,67;-0,57;-1,07;-0,82;0,00
13.016;-0,39;-0,64;0,13;-2,04;3,12;0,67;-0,57;-1,07;-0,82;0,00
13.017;-0,42;-0,70;0,15;-2,04;3,12;0,67;-0,57;-1,07;-0,82;0,00
13.073;-0,42;-0,70;0,15;-2,04;3,12;0,67;-0,57;-1,08;-0,72;0,00
13.074;-0,48;-0,78;0,15;-2,04;3,12;0,67;-0,57;-1,08;-0,72;0,00
13.075;-0,55;-0,84;0,18;-2,04;3,12;0,67;-0,57;-1,08;-0,72;0,00
13.075;-0,58;-0,82;0,21;-2,04;3,12;0,67;-0,57;-1,08;-0,72;0,00
13.076;-0,58;-0,82;0,21;-3,80;1,52;1,46;-0,57;-1,08;-0,72;0,00
13.132;-0,58;-0,82;0,21;-3,80;1,52;1,46;-0,17;-1,08;-0,30;0,00
13.133;-0,58;-0,82;0,21;-3,99;0,91;1,22;-0,17;-1,08;-0,30;0,00
13.133;-0,58;-0,81;0,20;-3,99;0,91;1,22;-0,17;-1,08;-0,30;0,00
13.134;-0,53;-0,85;0,17;-3,99;0,91;1,22;-0,17;-1,08;-0,30;0,00
13.134;-0,52;-0,99;0,11;-3,99;0,91;1,22;-0,17;-1,08;-0,30;0,00
13.19;-0,52;-0,99;0,11;-3,99;0,91;1,22;0,08;-0,01;-0,01;0,00
13.191;-0,59;-1,17;0,08;-3,99;0,91;1,22;0,08;-0,01;-0,01;0,00
13.192;-0,70;-1,23;0,14;-3,99;0,91;1,22;0,08;-0,01;-0,01;0,00
13.192;-0,72;-1,25;0,22;-3,99;0,91;1,22;0,08;-0,01;-0,01;0,00
13.193;-0,72;-1,25;0,22;-5,09;-2,34;1,02;0,08;-0,01;-0,01;0,00
13.249;-0,72;-1,25;0,22;-3,80;-4,39;0,52;0,08;-0,01;-0,01;0,00
13.25;-0,65;-1,35;0,17;-3,80;-4,39;0,52;0,08;-0,01;-0,01;0,00
13.25;-0,55;-1,47;0,08;-3,80;-4,39;0,52;0,08;-0,01;-0,01;0,00
13.25;-0,50;-1,47;0,09;-3,80;-4,39;0,52;0,08;-0,01;-0,01;0,00
13.251;-0,50;-1,47;0,09;-3,80;-4,39;0,52;0,27;-0,10;0,47;0,00
13.305;-0,50;-1,47;0,09;-3,80;-4,39;0,52;0,44;1,19;0,86;0,00
13.306;-0,50;-1,47;0,09;-2,19;-2,95;1,31;0,44;1,19;0,86;0,00
13.306;-0,51;-1,31;0,16;-2,19;-2,95;1,31;0,44;1,19;0,86;0,00
13.306;-0,48;-1,25;0,24;-2,19;-2,95;1,31;0,44;1,19;0,86;0,00
13.306;-0,40;-1,26;0,22;-2,19;-2,95;1,31;0,44;1,19;0,86;0,00
13.364;-0,40;-1,26;0,22;-2,19;-2,95;1,31;0,69;1,82;1,05;0,00
13.365;-0,40;-1,26;0,22;0,13;-2,64;0,81;0,69;1,82;1,05;0,00
13.365;-0,33;-1,28;0,16;0,13;-2,64;0,81;0,69;1,82;1,05;0,00
13.365;-0,28;-1,25;0,15;0,13;-2,64;0,81;0,69;1,82;1,05;0,00
13.366;-0,27;-1,16;0,18;0,13;-2,64;0,81;0,69;1,82;1,05;0,00
13.424;-0,27;-1,16;0,18;0,13;-2,64;0,81;0,71;2,47;1,13;0,00
13.425;-0,27;-1,02;0,19;0,13;-2,64;0,81;0,71;2,47;1,13;0,00
13.426;-0,29;-0,88;0,18;0,13;-2,64;0,81;0,71;2,47;1,13;0,00
13.427;-0,31;-0,77;0,17;0,13;-2,64;0,81;0,71;2,47;1,13;0,00
13.427;-0,31;-0,77;0,17;0,81;0,39;1,05;0,71;2,47;1,13;0,00
13.481;-0,31;-0,77;0,17;1,78;2,39;0,79;0,71;2,47;1,13;0,00
13.482;-0,31;-0,77;0,17;1,78;2,39;0,79;0,75;1,84;1,51;0,00
13.482;-0,32;-0,70;0,17;1,78;2,39;0,79;0,75;1,84;1,51;0,00
13.482;-0,28;-0,64;0,15;1,78;2,39;0,79;0,75;1,84;1,51;0,00
13.483;-0,24;-0,59;0,13;1,78;2,39;0,79;0,75;1,84;1,51;0,00
13.53;-0,24;-0,59;0,13;1,78;2,39;0,79;0,61;1,09;1,65;0,00
13.531;-0,24;-0,59;0,13;3,71;2,93;0,14;0,61;1,09;1,65;0,00
13.532;-0,20;-0,54;0,11;3,71;2,93;0,14;0,61;1,09;1,65;0,00
13.532;-0,16;-0,52;0,08;3,71;2,93;0,14;0,61;1,09;1,65;0,00
13.533;-0,13;-0,54;0,07;3,71;2,93;0,14;0,61;1,09;1,65;0,00
13.589;-0,08;-0,60;0,06;3,71;2,93;0,14;0,61;1,09;1,65;0,00
13.589;-0,05;-0,66;0,04;3,71;2,93;0,14;0,61;1,09;1,65;0,00
13.59;-0,07;-0,73;0,05;3,71;2,93;0,14;0,61;1,09;1,65;0,00
13.59;-0,07;-0,73;0,05;3,71;2,93;0,14;0,21;0,78;1,18;0,00
13.59;-0,07;-0,73;0,05;5,14;1,24;-0,02;0,21;0,78;1,18;0,00
13.646;-0,07;-0,73;0,05;5,14;1,24;-0,02;-0,38;0,45;0,27;0,00
13.648;-0,07;-0,73;0,05;4,23;-1,23;1,12;-0,38;0,45;0,27;0,00
13.649;-0,14;-0,79;0,09;4,23;-1,23;1,12;-0,38;0,45;0,27;0,00
13.649;-0,17;-0,90;0,14;4,23;-1,23;1,12;-0,38;0,45;0,27;0,00
13.65;-0,18;-1,03;0,18;4,23;-1,23;1,12;-0,38;0,45;0,27;0,00
13.706;-0,18;-1,03;0,18;4,23;-1,23;1,12;-0,57;-0,51;-0,48;0,00
13.707;-0,21;-1,14;0,21;4,23;-1,23;1,12;-0,57;-0,51;-0,48;0,00
13.707;-0,23;-1,21;0,24;4,23;-1,23;1,12;-0,57;-0,51;-0,48;0,00
13.708;-0,27;-1,21;0,20;4,23;-1,23;1,12;-0,57;-0,51;-0,48;0,00
13.708;-0,27;-1,21;0,20;3,28;-3,76;1,98;-0,57;-0,51;-0,48;0,00
13.772;-0,27;-1,21;0,20;2,51;-5,10;1,10;-0,57;-0,51;-0,48;0,00
13.773;-0,27;-1,21;0,20;2,51;-5,10;1,10;-0,42;-0,89;-0,99;0,00
13.774;-0,25;-1,29;0,15;2,51;-5,10;1,10;-0,42;-0,89;-0,99;0,00
13.775;-0,24;-1,40;0,13;2,51;-5,10;1,10;-0,42;-0,89;-0,99;0,00
13.775;-0,29;-1,42;0,13;2,51;-5,10;1,10;-0,42;-0,89;-0,99;0,00
13.822;-0,29;-1,42;0,13;2,51;-5,10;1,10;-0,35;-0,91;-1,37;0,00
13.822;-0,36;-1,36;0,12;2,51;-5,10;1,10;-0,35;-0,91;-1,37;0,00
13.823;-0,43;-1,21;0,12;2,51;-5,10;1,10;-0,35;-0,91;-1,37;0,00
13.823;-0,45;-1,14;0,10;2,51;-5,10;1,10;-0,35;-0,91;-1,37;0,00
13.823;-0,45;-1,14;0,10;0,30;-3,36;0,75;-0,35;-0,91;-1,37;0,00
13.88;-0,45;-1,14;0,10;-0,34;-3,55;-0,22;-0,35;-0,91;-1,37;0,00
13.88;-0,45;-1,14;0,10;-0,34;-3,55;-0,22;-0,20;-0,83;-1,15;0,00
13.881;-0,40;-1,25;0,05;-0,34;-3,55;-0,22;-0,20;-0,83;-1,15;0,00
13.881;-0,41;-1,34;-0,00;-0,34;-3,55;-0,22;-0,20;-0,83;-1,15;0,00
13.881;-0,44;-1,28;0,02;-0,34;-3,55;-0,22;-0,20;-0,83;-1,15;0,00
13.938;-0,46;-1,15;0,07;-0,34;-3,55;-0,22;-0,20;-0,83;-1,15;0,00
13.939;-0,50;-0,97;0,09;-0,34;-3,55;-0,22;-0,20;-0,83;-1,15;0,00
13.99;-0,50;-0,97;0,09;-0,34;-3,55;-0,22;-0,12;-0,79;-0,90;0,00
13.991;-0,50;-0,97;0,09;-1,40;-0,06;0,14;-0,12;-0,79;-0,90;0,00
13.992;-0,46;-0,73;0,05;-1,40;-0,06;0,14;-0,12;-0,79;-0,90;0,00
13.993;-0,39;-0,54;0,01;-1,40;-0,06;0,14;-0,12;-0,79;-0,90;0,00
13.994;-0,34;-0,47;-0,01;-1,40;-0,06;0,14;-0,12;-0,79;-0,90;0,00
14.037;-0,34;-0,47;-0,01;-0,34;4,48;-0,91;-0,12;-0,79;-0,90;0,00
14.038;-0,34;-0,47;-0,01;-0,34;4,48;-0,91;0,10;-1,25;-0,33;0,00
14.039;-0,30;-0,44;-0,03;-0,34;4,48;-0,91;0,10;-1,25;-0,33;0,00
14.04;-0,28;-0,46;-0,02;-0,34;4,48;-0,91;0,10;-1,25;-0,33;0,00
14.087;-0,28;-0,46;-0,02;-0,34;4,48;-0,91;0,00;-0,78;-0,25;0,00
14.089;-0,30;-0,49;0,00;-0,34;4,48;-0,91;0,00;-0,78;-0,25;0,00
14.09;-0,32;-0,54;0,02;-0,34;4,48;-0,91;0,00;-0,78;-0,25;0,00
14.09;-0,34;-0,59;0,03;-0,34;4,48;-0,91;0,00;-0,78;-0,25;0,00
14.091;-0,34;-0,59;0,03;-0,12;4,34;-0,92;0,00;-0,78;-0,25;0,00
14.137;-0,34;-0,59;0,03;-0,12;4,34;-0,92;-0,28;-0,67;-0,53;0,00
14.138;-0,34;-0,59;0,03;-1,48;2,91;-0,52;-0,28;-0,67;-0,53;0,00
14.138;-0,41;-0,65;0,04;-1,48;2,91;-0,52;-0,28;-0,67;-0,53;0,00
14.138;-0,49;-0,71;0,04;-1,48;2,91;-0,52;-0,28;-0,67;-0,53;0,00
14.186;-0,49;-0,71;0,04;-1,48;2,91;-0,52;-0,43;-0,78;-0,51;0,00
14.188;-0,49;-0,71;0,04;-3,11;1,44;0,36;-0,43;-0,78;-0,51;0,00
14.188;-0,55;-0,77;0,08;-3,11;1,44;0,36;-0,43;-0,78;-0,51;0,00
14.189;-0,55;-0,80;0,13;-3,11;1,44;0,36;-0,43;-0,78;-0,51;0,00
14.189;-0,55;-0,84;0,13;-3,11;1,44;0,36;-0,43;-0,78;-0,51;0,00
14.237;-0,54;-0,98;0,11;-3,11;1,44;0,36;-0,43;-0,78;-0,51;0,00
14.237;-0,54;-1,17;0,09;-3,11;1,44;0,36;-0,43;-0,78;-0,51;0,00
14.298;-0,54;-1,17;0,09;-3,31;-1,73;0,46;-0,43;-0,78;-0,51;0,00
14.299;-0,54;-1,17;0,09;-3,31;-1,73;0,46;-0,25;-0,36;-0,35;0,00
14.3;-0,58;-1,26;0,15;-3,31;-1,73;0,46;-0,25;-0,36;-0,35;0,00
14.3;-0,61;-1,19;0,23;-3,31;-1,73;0,46;-0,25;-0,36;-0,35;0,00
14.301;-0,60;-1,20;0,21;-3,31;-1,73;0,46;-0,25;-0,36;-0,35;0,00
14.336;-0,60;-1,20;0,21;-3,59;-2,70;1,14;-0,25;-0,36;-0,35;0,00
14.338;-0,60;-1,20;0,21;-3,59;-2,70;1,14;-0,05;-0,28;-0,20;0,00
14.338;-0,51;-1,35;0,12;-3,59;-2,70;1,14;-0,05;-0,28;-0,20;0,00
14.339;-0,48;-1,42;0,04;-3,59;-2,70;1,14;-0,05;-0,28;-0,20;0,00
14.389;-0,48;-1,42;0,04;-3,05;-3,44;0,43;-0,05;-0,28;-0,20;0,00
14.39;-0,48;-1,42;0,04;-3,05;-3,44;0,43;0,04;0,78;-0,13;0,00
14.391;-0,52;-1,35;0,08;-3,05;-3,44;0,43;0,04;0,78;-0,13;0,00
14.391;-0,57;-1,21;0,20;-3,05;-3,44;0,43;0,04;0,78;-0,13;0,00
14.392;-0,55;-1,17;0,25;-3,05;-3,44;0,43;0,04;0,78;-0,13;0,00
14.444;-0,55;-1,17;0,25;-3,05;-3,44;0,43;0,44;1,25;0,69;0,00
14.445;-0,55;-1,17;0,25;-1,97;-2,18;1,22;0,44;1,25;0,69;0,00
14.446;-0,48;-1,20;0,21;-1,97;-2,18;1,22;0,44;1,25;0,69;0,00
14.446;-0,35;-1,20;0,14;-1,97;-2,18;1,22;0,44;1,25;0,69;0,00
14.447;-0,24;-1,13;0,11;-1,97;-2,18;1,22;0,44;1,25;0,69;0,00
14.503;-0,24;-1,13;0,11;-1,97;-2,18;1,22;0,48;1,56;0,77;0,00
14.504;-0,22;-1,05;0,12;-1,97;-2,18;1,22;0,48;1,56;0,77;0,00
14.504;-0,26;-0,94;0,16;-1,97;-2,18;1,22;0,48;1,56;0,77;0,00
14.504;-0,29;-0,84;0,19;-1,97;-2,18;1,22;0,48;1,56;0,77;0,00
14.505;-0,29;-0,84;0,19;0,68;-0,84;0,49;0,48;1,56;0,77;0,00
14.561;-0,29;-0,84;0,19;0,68;-0,84;0,49;0,49;1,95;0,88;0,00
14.563;-0,29;-0,84;0,19;0,59;1,74;1,22;0,49;1,95;0,88;0,00
14.564;-0,31;-0,75;0,20;0,59;1,74;1,22;0,49;1,95;0,88;0,00
14.565;-0,32;-0,67;0,19;0,59;1,74;1,22;0,49;1,95;0,88;0,00
14.565;-0,31;-0,61;0,17;0,59;1,74;1,22;0,49;1,95;0,88;0,00
14.62;-0,31;-0,61;0,17;1,62;3,10;0,60;0,49;1,95;0,88;0,00
14.621;-0,31;-0,61;0,17;1,62;3,10;0,60;0,65;1,18;1,33;0,00
14.622;-0,27;-0,57;0,14;1,62;3,10;0,60;0,65;1,18;1,33;0,00
14.623;-0,23;-0,55;0,12;1,62;3,10;0,60;0,65;1,18;1,33;0,00
14.623;-0,18;-0,55;0,11;1,62;3,10;0,60;0,65;1,18;1,33;0,00
14.678;-0,18;-0,55;0,11;3,71;2,57;-0,05;0,65;1,18;1,33;0,00
14.679;-0,18;-0,55;0,11;3,71;2,57;-0,05;0,61;0,64;1,42;0,00
14.68;-0,12;-0,58;0,08;3,71;2,57;-0,05;0,61;0,64;1,42;0,00
14.681;-0,08;-0,63;0,07;3,71;2,57;-0,05;0,61;0,64;1,42;0,00
14.682;-0,08;-0,71;0,04;3,71;2,57;-0,05;0,61;0,64;1,42;0,00
14.739;-0,08;-0,71;0,04;4,48;0,14;-0,24;0,61;0,64;1,42;0,00
14.741;-0,08;-0,71;0,04;4,48;0,14;-0,24;0,26;0,81;0,77;0,00
14.742;-0,07;-0,81;0,04;4,48;0,14;-0,24;0,26;0,81;0,77;0,00
14.742;-0,10;-0,90;0,08;4,48;0,14;-0,24;0,26;0,81;0,77;0,00
14.743;-0,16;-1,02;0,09;4,48;0,14;-0,24;0,26;0,81;0,77;0,00
14.794;-0,16;-1,02;0,09;4,48;0,14;-0,24;-0,29;0,47;-0,25;0,00
14.795;-0,16;-1,02;0,09;3,06;-3,52;0,42;-0,29;0,47;-0,25;0,00
14.795;-0,19;-1,19;0,10;3,06;-3,52;0,42;-0,29;0,47;-0,25;0,00
14.796;-0,29;-1,37;0,09;3,06;-3,52;0,42;-0,29;0,47;-0,25;0,00
14.796;-0,35;-1,40;0,16;3,06;-3,52;0,42;-0,29;0,47;-0,25;0,00
14.852;-0,35;-1,40;0,16;3,06;-3,52;0,42;-0,60;-0,72;-0,69;0,00
14.853;-0,35;-1,32;0,21;3,06;-3,52;0,42;-0,60;-0,72;-0,69;0,00
14.853;-0,36;-1,21;0,14;3,06;-3,52;0,42;-0,60;-0,72;-0,69;0,00
14.853;-0,35;-1,21;0,03;3,06;-3,52;0,42;-0,60;-0,72;-0,69;0,00
14.854;-0,35;-1,21;0,03;1,30;-4,33;1,23;-0,60;-0,72;-0,69;0,00
14.91;-0,35;-1,21;0,03;1,06;-3,50;-0,25;-0,60;-0,72;-0,69;0,00
14.911;-0,35;-1,21;0,03;1,06;-3,50;-0,25;-0,53;-1,24;-0,47;0,00
14.912;-0,33;-1,29;-0,01;1,06;-3,50;-0,25;-0,53;-1,24;-0,47;0,00
14.913;-0,36;-1,23;0,06;1,06;-3,50;-0,25;-0,53;-1,24;-0,47;0,00
14.914;-0,34;-1,21;0,13;1,06;-3,50;-0,25;-0,53;-1,24;-0,47;0,00
14.968;-0,34;-1,21;0,13;1,06;-3,50;-0,25;-0,64;-1,60;-0,46;0,00
14.969;-0,27;-1,27;0,15;1,06;-3,50;-0,25;-0,64;-1,60;-0,46;0,00
14.97;-0,24;-1,29;0,11;1,06;-3,50;-0,25;-0,64;-1,60;-0,46;0,00
14.97;-0,23;-1,22;0,08;1,06;-3,50;-0,25;-0,64;-1,60;-0,46;0,00
14.97;-0,23;-1,22;0,08;1,40;-3,47;0,68;-0,64;-1,60;-0,46;0,00
15.026;-0,23;-1,22;0,08;1,40;-3,47;0,68;-0,42;-1,54;-0,87;0,00
15.027;-0,23;-1,22;0,08;1,27;-1,51;-0,02;-0,42;-1,54;-0,87;0,00
15.027;-0,23;-1,10;0,08;1,27;-1,51;-0,02;-0,42;-1,54;-0,87;0,00
15.028;-0,26;-0,94;0,06;1,27;-1,51;-0,02;-0,42;-1,54;-0,87;0,00
15.028;-0,29;-0,77;0,04;1,27;-1,51;-0,02;-0,42;-1,54;-0,87;0,00
15.085;-0,29;-0,77;0,04;1,27;-1,51;-0,02;-0,23;-0,64;-0,93;0,00
15.086;-0,33;-0,62;0,06;1,27;-1,51;-0,02;-0,23;-0,64;-0,93;0,00
15.087;-0,34;-0,50;0,08;1,27;-1,51;-0,02;-0,23;-0,64;-0,93;0,00
15.087;-0,31;-0,43;0,08;1,27;-1,51;-0,02;-0,23;-0,64;-0,93;0,00
15.087;-0,31;-0,43;0,08;-0,03;3,10;-0,15;-0,23;-0,64;-0,93;0,00
15.144;-0,31;-0,43;0,08;-0,03;5,12;-0,12;-0,23;-0,64;-0,93;0,00
15.145;-0,31;-0,43;0,08;-0,03;5,12;-0,12;-0,10;-0,45;-0,63;0,00
15.145;-0,28;-0,41;0,06;-0,03;5,12;-0,12;-0,10;-0,45;-0,63;0,00
15.146;-0,25;-0,43;0,06;-0,03;5,12;-0,12;-0,10;-0,45;-0,63;0,00
15.146;-0,24;-0,50;0,05;-0,03;5,12;-0,12;-0,10;-0,45;-0,63;0,00
15.203;-0,24;-0,50;0,05;-0,03;5,12;-0,12;-0,23;-0,37;-0,72;0,00
15.204;-0,25;-0,59;0,06;-0,03;5,12;-0,12;-0,23;-0,37;-0,72;0,00
15.205;-0,30;-0,68;0,10;-0,03;5,12;-0,12;-0,23;-0,37;-0,72;0,00
15.205;-0,37;-0,77;0,12;-0,03;5,12;-0,12;-0,23;-0,37;-0,72;0,00
15.207;-0,37;-0,77;0,12;-0,24;3,58;0,02;-0,23;-0,37;-0,72;0,00
15.26;-0,37;-0,77;0,12;-0,24;3,58;0,02;-0,40;-0,36;-0,92;0,00
15.262;-0,37;-0,77;0,12;-2,13;1,47;0,81;-0,40;-0,36;-0,92;0,00
15.262;-0,41;-0,81;0,14;-2,13;1,47;0,81;-0,40;-0,36;-0,92;0,00
15.263;-0,44;-0,86;0,15;-2,13;1,47;0,81;-0,40;-0,36;-0,92;0,00
15.263;-0,51;-0,90;0,14;-2,13;1,47;0,81;-0,40;-0,36;-0,92;0,00
15.319;-0,51;-0,90;0,14;-3,88;-0,25;0,72;-0,40;-0,36;-0,92;0,00
15.319;-0,51;-0,90;0,14;-3,88;-0,25;0,72;-0,29;-0,46;-0,75;0,00
15.32;-0,57;-0,99;0,11;-3,88;-0,25;0,72;-0,29;-0,46;-0,75;0,00
15.32;-0,57;-1,10;0,10;-3,88;-0,25;0,72;-0,29;-0,46;-0,75;0,00
15.32;-0,59;-1,21;0,08;-3,88;-0,25;0,72;-0,29;-0,46;-0,75;0,00
15.382;-0,59;-1,21;0,08;-3,88;-0,25;0,72;-0,11;-0,41;-0,37;0,00
15.383;-0,63;-1,25;0,08;-3,88;-0,25;0,72;-0,11;-0,41;-0,37;0,00
15.384;-0,65;-1,19;0,11;-3,88;-0,25;0,72;-0,11;-0,41;-0,37;0,00
15.385;-0,66;-1,19;0,10;-3,88;-0,25;0,72;-0,11;-0,41;-0,37;0,00
15.386;-0,66;-1,19;0,10;-4,73;-2,33;0,48;-0,11;-0,41;-0,37;0,00
15.437;-0,66;-1,19;0,10;-4,73;-2,33;0,48;0,15;-0,54;0,18;0,00
15.438;-0,63;-1,34;0,04;-4,73;-2,33;0,48;0,15;-0,54;0,18;0,00
15.439;-0,59;-1,38;-0,06;-4,73;-2,33;0,48;0,15;-0,54;0,18;0,00
15.44;-0,54;-1,28;-0,02;-4,73;-2,33;0,48;0,15;-0,54;0,18;0,00
15.441;-0,54;-1,28;-0,02;-4,62;-3,16;-0,23;0,15;-0,54;0,18;0,00
15.493;-0,54;-1,28;-0,02;-2,98;-2,70;0,18;0,15;-0,54;0,18;0,00
15.493;-0,54;-1,28;-0,02;-2,98;-2,70;0,18;0,18;0,97;0,75;0,00
15.494;-0,52;-1,23;0,09;-2,98;-2,70;0,18;0,18;0,97;0,75;0,00
15.495;-0,47;-1,25;0,14;-2,98;-2,70;0,18;0,18;0,97;0,75;0,00
15.495;-0,39;-1,35;0,12;-2,98;-2,70;0,18;0,18;0,97;0,75;0,00
15.551;-0,39;-1,35;0,12;-2,98;-2,70;0,18;0,40;1,78;1,17;0,00
15.552;-0,39;-1,35;0,12;-0,49;-4,02;0,42;0,40;1,78;1,17;0,00
15.552;-0,31;-1,41;0,08;-0,49;-4,02;0,42;0,40;1,78;1,17;0,00
15.553;-0,28;-1,37;0,07;-0,49;-4,02;0,42;0,40;1,78;1,17;0,00
15.553;-0,30;-1,22;0,13;-0,49;-4,02;0,42;0,40;1,78;1,17;0,00
15.611;-0,30;-1,22;0,13;0,14;-1,06;1,72;0,40;1,78;1,17;0,00
15.613;-0,30;-1,22;0,13;0,14;-1,06;1,72;0,26;2,81;1,29;0,00
15.614;-0,35;-1,05;0,20;0,14;-1,06;1,72;0,26;2,81;1,29;0,00
15.614;-0,37;-0,89;0,24;0,14;-1,06;1,72;0,26;2,81;1,29;0,00
15.615;-0,35;-0,79;0,28;0,14;-1,06;1,72;0,26;2,81;1,29;0,00
15.669;-0,35;-0,79;0,28;0,14;-1,06;1,72;0,43;1,63;1,81;0,00
15.67;-0,35;-0,79;0,28;1,87;1,63;2,69;0,43;1,63;1,81;0,00
15.67;-0,27;-0,73;0,30;1,87;1,63;2,69;0,43;1,63;1,81;0,00
15.67;-0,16;-0,68;0,26;1,87;1,63;2,69;0,43;1,63;1,81;0,00
15.671;-0,08;-0,60;0,22;1,87;1,63;2,69;0,43;1,63;1,81;0,00
15.727;-0,08;-0,60;0,22;1,87;1,63;2,69;0,59;0,66;1,96;0,00
15.728;-0,05;-0,56;0,25;1,87;1,63;2,69;0,59;0,66;1,96;0,00
15.729;-0,03;-0,52;0,25;1,87;1,63;2,69;0,59;0,66;1,96;0,00
15.73;0,02;-0,52;0,23;1,87;1,63;2,69;0,59;0,66;1,96;0,00
15.731;0,02;-0,52;0,23;4,79;2,72;2,15;0,59;0,66;1,96;0,00
15.785;0,02;-0,52;0,23;4,79;2,72;2,15;0,53;0,19;1,58;0,00
15.786;0,02;-0,52;0,23;6,43;2,15;1,64;0,53;0,19;1,58;0,00
15.787;0,07;-0,55;0,20;6,43;2,15;1,64;0,53;0,19;1,58;0,00
15.787;0,06;-0,61;0,19;6,43;2,15;1,64;0,53;0,19;1,58;0,00
15.788;0,07;-0,69;0,18;6,43;2,15;1,64;0,53;0,19;1,58;0,00
15.844;0,07;-0,69;0,18;6,67;0,02;1,07;0,53;0,19;1,58;0,00
15.845;0,07;-0,69;0,18;6,67;0,02;1,07;0,34;-0,05;0,58;0,00
15.846;0,08;-0,75;0,18;6,67;0,02;1,07;0,34;-0,05;0,58;0,00
15.846;0,04;-0,83;0,15;6,67;0,02;1,07;0,34;-0,05;0,58;0,00
15.847;-0,03;-0,96;0,13;6,67;0,02;1,07;0,34;-0,05;0,58;0,00
15.909;-0,03;-0,96;0,13;6,67;0,02;1,07;0,15;-0,26;-0,59;0,00
15.91;-0,03;-0,96;0,13;4,82;-2,90;0,48;0,15;-0,26;-0,59;0,00
15.911;-0,10;-1,08;0,11;4,82;-2,90;0,48;0,15;-0,26;-0,59;0,00
15.912;-0,16;-1,20;0,13;4,82;-2,90;0,48;0,15;-0,26;-0,59;0,00
15.912;-0,24;-1,22;0,11;4,82;-2,90;0,48;0,15;-0,26;-0,59;0,00
15.961;-0,24;-1,22;0,11;4,82;-2,90;0,48;-0,01;-1,07;-1,36;0,00
15.962;-0,28;-1,21;0,04;4,82;-2,90;0,48;-0,01;-1,07;-1,36;0,00
15.963;-0,24;-1,34;-0,00;4,82;-2,90;0,48;-0,01;-1,07;-1,36;0,00
15.963;-0,22;-1,51;-0,04;4,82;-2,90;0,48;-0,01;-1,07;-1,36;0,00
15.964;-0,22;-1,51;-0,04;2,51;-4,15;-0,59;-0,01;-1,07;-1,36;0,00
16.033;-0,22;-1,51;-0,04;0,60;-5,96;-1,37;-0,01;-1,07;-1,36;0,00
16.035;-0,22;-1,51;-0,04;0,60;-5,96;-1,37;-0,47;-1,21;-2,07;0,00
16.036;-0,32;-1,57;-0,04;0,60;-5,96;-1,37;-0,47;-1,21;-2,07;0,00
16.037;-0,47;-1,45;0,00;0,60;-5,96;-1,37;-0,47;-1,21;-2,07;0,00
16.04;-0,59;-1,30;0,05;0,60;-5,96;-1,37;-0,47;-1,21;-2,07;0,00
16.077;-0,59;-1,30;0,05;0,60;-5,96;-1,37;-0,64;-1,36;-1,91;0,00
16.078;-0,59;-1,30;0,05;-2,56;-3,93;-1,03;-0,64;-1,36;-1,91;0,00
16.079;-0,58;-1,32;0,02;-2,56;-3,93;-1,03;-0,64;-1,36;-1,91;0,00
16.079;-0,49;-1,45;-0,06;-2,56;-3,93;-1,03;-0,64;-1,36;-1,91;0,00
16.081;-0,48;-1,42;-0,04;-2,56;-3,93;-1,03;-0,64;-1,36;-1,91;0,00
16.135;-0,48;-1,42;-0,04;-2,85;-2,58;-0,27;-0,64;-1,36;-1,91;0,00
16.136;-0,48;-1,42;-0,04;-2,85;-2,58;-0,27;-0,72;-0,67;-1,28;0,00
16.136;-0,51;-1,27;0,06;-2,85;-2,58;-0,27;-0,72;-0,67;-1,28;0,00
16.136;-0,54;-1,04;0,13;-2,85;-2,58;-0,27;-0,72;-0,67;-1,28;0,00
16.137;-0,54;-0,79;0,14;-2,85;-2,58;-0,27;-0,72;-0,67;-1,28;0,00
16.194;-0,54;-0,79;0,14;-2,85;-2,58;-0,27;-0,50;-1,23;-0,52;0,00
16.195;-0,54;-0,79;0,14;-2,45;3,46;0,57;-0,50;-1,23;-0,52;0,00
16.196;-0,44;-0,61;0,13;-2,45;3,46;0,57;-0,50;-1,23;-0,52;0,00
16.196;-0,33;-0,49;0,09;-2,45;3,46;0,57;-0,50;-1,23;-0,52;0,00
16.196;-0,25;-0,41;0,07;-2,45;3,46;0,57;-0,50;-1,23;-0,52;0,00
16.252;-0,25;-0,41;0,07;-2,45;3,46;0,57;-0,30;-0,91;-0,17;0,00
16.253;-0,25;-0,41;0,07;-0,40;5,81;0,06;-0,30;-0,91;-0,17;0,00
16.255;-0,20;-0,37;0,06;-0,40;5,81;0,06;-0,30;-0,91;-0,17;0,00
16.255;-0,20;-0,36;0,05;-0,40;5,81;0,06;-0,30;-0,91;-0,17;0,00
16.256;-0,22;-0,39;0,07;-0,40;5,81;0,06;-0,30;-0,91;-0,17;0,00
16.311;-0,22;-0,39;0,07;-0,40;5,81;0,06;-0,38;-0,34;-0,37;0,00
16.311;-0,23;-0,46;0,09;-0,40;5,81;0,06;-0,38;-0,34;-0,37;0,00
16.312;-0,26;-0,58;0,08;-0,40;5,81;0,06;-0,38;-0,34;-0,37;0,00
16.312;-0,33;-0,67;0,08;-0,40;5,81;0,06;-0,38;-0,34;-0,37;0,00
16.312;-0,33;-0,67;0,08;-0,80;4,85;0,44;-0,38;-0,34;-0,37;0,00
16.368;-0,33;-0,67;0,08;-3,00;2,14;1,47;-0,38;-0,34;-0,37;0,00
16.369;-0,33;-0,67;0,08;-3,00;2,14;1,47;-0,64;-0,20;-0,59;0,00
16.37;-0,45;-0,77;0,14;-3,00;2,14;1,47;-0,64;-0,20;-0,59;0,00
16.37;-0,52;-0,82;0,24;-3,00;2,14;1,47;-0,64;-0,20;-0,59;0,00
16.371;-0,50;-0,85;0,27;-3,00;2,14;1,47;-0,64;-0,20;-0,59;0,00
16.427;-0,50;-0,85;0,27;-3,00;2,14;1,47;-0,37;-0,83;-0,21;0,00
16.428;-0,46;-0,89;0,24;-3,00;2,14;1,47;-0,37;-0,83;-0,21;0,00
16.429;-0,41;-1,00;0,17;-3,00;2,14;1,47;-0,37;-0,83;-0,21;0,00
16.429;-0,42;-1,17;0,13;-3,00;2,14;1,47;-0,37;-0,83;-0,21;0,00
16.43;-0,42;-1,17;0,13;-3,30;0,57;2,32;-0,37;-0,83;-0,21;0,00
16.485;-0,42;-1,17;0,13;-3,30;0,57;2,32;0,05;0,01;-0,11;0,00
16.485;-0,42;-1,17;0,13;-3,56;-2,57;1,66;0,05;0,01;-0,11;0,00
16.486;-0,49;-1,30;0,15;-3,56;-2,57;1,66;0,05;0,01;-0,11;0,00
16.486;-0,55;-1,24;0,23;-3,56;-2,57;1,66;0,05;0,01;-0,11;0,00
16.487;-0,57;-1,18;0,25;-3,56;-2,57;1,66;0,05;0,01;-0,11;0,00
16.544;-0,57;-1,18;0,25;-3,71;-3,33;1,24;0,05;0,01;-0,11;0,00
16.545;-0,57;-1,18;0,25;-3,71;-3,33;1,24;0,54;0,21;0,21;0,00
16.545;-0,52;-1,32;0,17;-3,71;-3,33;1,24;0,54;0,21;0,21;0,00
16.545;-0,47;-1,47;0,05;-3,71;-3,33;1,24;0,54;0,21;0,21;0,00
16.546;-0,48;-1,51;-0,00;-3,71;-3,33;1,24;0,54;0,21;0,21;0,00
16.602;-0,48;-1,51;-0,00;-3,71;-3,33;1,24;0,59;1,69;0,44;0,00
16.603;-0,50;-1,44;0,08;-3,71;-3,33;1,24;0,59;1,69;0,44;0,00
16.604;-0,51;-1,37;0,18;-3,71;-3,33;1,24;0,59;1,69;0,44;0,00
16.604;-0,50;-1,36;0,20;-3,71;-3,33;1,24;0,59;1,69;0,44;0,00
16.604;-0,50;-1,36;0,20;-3,15;-4,49;0,36;0,59;1,69;0,44;0,00
16.661;-0,50;-1,36;0,20;-3,15;-4,49;0,36;0,72;2,24;1,18;0,00
16.662;-0,50;-1,36;0,20;-1,80;-3,77;1,18;0,72;2,24;1,18;0,00
16.663;-0,44;-1,37;0,19;-1,80;-3,77;1,18;0,72;2,24;1,18;0,00
16.663;-0,37;-1,33;0,17;-1,80;-3,77;1,18;0,72;2,24;1,18;0,00
16.664;-0,33;-1,23;0,15;-1,80;-3,77;1,18;0,72;2,24;1,18;0,00
16.72;-0,33;-1,23;0,15;-1,80;-3,77;1,18;0,78;2,05;1,53;0,00
16.721;-0,33;-1,23;0,15;0,58;-1,27;0,53;0,78;2,05;1,53;0,00
16.722;-0,29;-1,07;0,12;0,58;-1,27;0,53;0,78;2,05;1,53;0,00
16.723;-0,24;-0,92;0,11;0,58;-1,27;0,53;0,78;2,05;1,53;0,00
16.724;-0,22;-0,80;0,11;0,58;-1,27;0,53;0,78;2,05;1,53;0,00
16.778;-0,22;-0,80;0,11;0,58;-1,27;0,53;0,69;2,15;1,88;0,00
16.779;-0,24;-0,71;0,15;0,58;-1,27;0,53;0,69;2,15;1,88;0,00
16.78;-0,27;-0,65;0,19;0,58;-1,27;0,53;0,69;2,15;1,88;0,00
16.781;-0,25;-0,60;0,19;0,58;-1,27;0,53;0,69;2,15;1,88;0,00
16.782;-0,25;-0,60;0,19;2,03;1,71;0,85;0,69;2,15;1,88;0,00
16.836;-0,25;-0,60;0,19;2,03;1,71;0,85;0,76;0,74;2,12;0,00
16.837;-0,25;-0,60;0,19;3,84;2,49;0,65;0,76;0,74;2,12;0,00
16.838;-0,17;-0,57;0,16;3,84;2,49;0,65;0,76;0,74;2,12;0,00
16.839;-0,07;-0,55;0,10;3,84;2,49;0,65;0,76;0,74;2,12;0,00
16.84;0,00;-0,55;0,05;3,84;2,49;0,65;0,76;0,74;2,12;0,00
16.894;0,00;-0,55;0,05;3,84;2,49;0,65;0,53;0,41;1,62;0,00
16.895;0,04;-0,57;0,03;3,84;2,49;0,65;0,53;0,41;1,62;0,00
16.896;0,04;-0,59;0,01;3,84;2,49;0,65;0,53;0,41;1,62;0,00
16.897;0,01;-0,65;0,02;3,84;2,49;0,65;0,53;0,41;1,62;0,00
16.898;0,01;-0,65;0,02;6,35;1,90;-0,60;0,53;0,41;1,62;0,00
16.952;0,01;-0,65;0,02;5,95;0,14;0,14;0,53;0,41;1,62;0,00
16.954;0,01;-0,65;0,02;5,95;0,14;0,14;-0,15;0,61;0,53;0,00
16.955;-0,03;-0,73;0,08;5,95;0,14;0,14;-0,15;0,61;0,53;0,00
16.955;-0,07;-0,81;0,13;5,95;0,14;0,14;-0,15;0,61;0,53;0,00
16.956;-0,08;-0,94;0,16;5,95;0,14;0,14;-0,15;0,61;0,53;0,00
17.017;-0,08;-0,94;0,16;5,95;0,14;0,14;-0,59;-0,30;-0,54;0,00
17.018;-0,08;-0,94;0,16;4,89;-2,52;1,38;-0,59;-0,30;-0,54;0,00
17.019;-0,10;-1,06;0,19;4,89;-2,52;1,38;-0,59;-0,30;-0,54;0,00
17.02;-0,13;-1,07;0,21;4,89;-2,52;1,38;-0,59;-0,30;-0,54;0,00
17.021;-0,22;-1,04;0,13;4,89;-2,52;1,38;-0,59;-0,30;-0,54;0,00
17.069;-0,22;-1,04;0,13;4,89;-2,52;1,38;-0,60;-1,00;-1,18;0,00
17.071;-0,22;-1,04;0,13;3,40;-3,81;0,24;-0,60;-1,00;-1,18;0,00
17.072;-0,21;-1,14;0,06;3,40;-3,81;0,24;-0,60;-1,00;-1,18;0,00
17.072;-0,15;-1,44;0,04;3,40;-3,81;0,24;-0,60;-1,00;-1,18;0,00
17.073;-0,16;-1,78;0,06;3,40;-3,81;0,24;-0,60;-1,00;-1,18;0,00
17.134;-0,16;-1,78;0,06;3,40;-3,81;0,24;-0,95;-0,86;-1,94;0,00
17.135;-0,33;-1,75;0,15;3,40;-3,81;0,24;-0,95;-0,86;-1,94;0,00
17.136;-0,49;-1,63;0,22;3,40;-3,81;0,24;-0,95;-0,86;-1,94;0,00
17.137;-0,52;-1,60;0,20;3,40;-3,81;0,24;-0,95;-0,86;-1,94;0,00
17.137;-0,52;-1,60;0,20;1,13;-8,10;1,05;-0,95;-0,86;-1,94;0,00
17.186;-0,52;-1,60;0,20;1,13;-8,10;1,05;-0,54;-1,64;-1,66;0,00
17.186;-0,51;-1,54;0,09;1,13;-8,10;1,05;-0,54;-1,64;-1,66;0,00
17.187;-0,49;-1,43;0,01;1,13;-8,10;1,05;-0,54;-1,64;-1,66;0,00
17.187;-0,42;-1,25;0,01;1,13;-8,10;1,05;-0,54;-1,64;-1,66;0,00
17.187;-0,42;-1,25;0,01;-1,55;-5,71;0,55;-0,54;-1,64;-1,66;0,00
17.243;-0,42;-1,25;0,01;-1,55;-5,71;0,55;-0,25;-1,19;-1,07;0,00
17.244;-0,42;-1,25;0,01;-1,07;-0,55;-0,30;-0,25;-1,19;-1,07;0,00
17.245;-0,38;-1,02;0,02;-1,07;-0,55;-0,30;-0,25;-1,19;-1,07;0,00
17.246;-0,40;-0,78;0,04;-1,07;-0,55;-0,30;-0,25;-1,19;-1,07;0,00
17.246;-0,40;-0,59;0,03;-1,07;-0,55;-0,30;-0,25;-1,19;-1,07;0,00
17.302;-0,40;-0,59;0,03;-1,07;-0,55;-0,30;-0,13;-1,05;-0,67;0,00
17.302;-0,40;-0,59;0,03;-1,06;4,72;-0,36;-0,13;-1,05;-0,67;0,00
17.303;-0,37;-0,46;0,02;-1,06;4,72;-0,36;-0,13;-1,05;-0,67;0,00
17.303;-0,31;-0,40;0,02;-1,06;4,72;-0,36;-0,13;-1,05;-0,67;0,00
17.303;-0,25;-0,38;0,00;-1,06;4,72;-0,36;-0,13;-1,05;-0,67;0,00
17.361;-0,25;-0,38;0,00;-1,06;4,72;-0,36;-0,30;-1,00;-0,70;0,00
17.362;-0,25;-0,40;-0,00;-1,06;4,72;-0,36;-0,30;-1,00;-0,70;0,00
17.362;-0,29;-0,44;0,01;-1,06;4,72;-0,36;-0,30;-1,00;-0,70;0,00
17.363;-0,37;-0,53;0,05;-1,06;4,72;-0,36;-0,30;-1,00;-0,70;0,00
17.363;-0,37;-0,53;0,05;-0,54;5,48;-0,52;-0,30;-1,00;-0,70;0,00
17.419;-0,37;-0,53;0,05;-0,54;5,48;-0,52;-0,59;-0,65;-0,87;0,00
17.42;-0,37;-0,53;0,05;-2,53;3,83;0,79;-0,59;-0,65;-0,87;0,00
17.422;-0,43;-0,59;0,12;-2,53;3,83;0,79;-0,59;-0,65;-0,87;0,00
17.422;-0,47;-0,61;0,16;-2,53;3,83;0,79;-0,59;-0,65;-0,87;0,00
17.423;-0,51;-0,62;0,20;-2,53;3,83;0,79;-0,59;-0,65;-0,87;0,00
17.478;-0,51;-0,62;0,20;-3,65;2,74;1,86;-0,59;-0,65;-0,87;0,00
17.48;-0,51;-0,62;0,20;-3,65;2,74;1,86;-0,44;-0,64;-0,62;0,00
17.48;-0,51;-0,66;0,22;-3,65;2,74;1,86;-0,44;-0,64;-0,62;0,00
17.481;-0,50;-0,79;0,19;-3,65;2,74;1,86;-0,44;-0,64;-0,62;0,00
17.482;-0,52;-0,97;0,15;-3,65;2,74;1,86;-0,44;-0,64;-0,62;0,00
17.535;-0,52;-0,97;0,15;-4,51;-1,35;1,50;-0,44;-0,64;-0,62;0,00
17.536;-0,52;-0,97;0,15;-4,51;-1,35;1,50;-0,15;-0,12;-0,37;0,00
17.536;-0,58;-1,14;0,13;-4,51;-1,35;1,50;-0,15;-0,12;-0,37;0,00
17.536;-0,64;-1,23;0,20;-4,51;-1,35;1,50;-0,15;-0,12;-0,37;0,00
17.538;-0,68;-1,18;0,28;-4,51;-1,35;1,50;-0,15;-0,12;-0,37;0,00
17.594;-0,68;-1,18;0,28;-4,79;-4,08;1,77;-0,15;-0,12;-0,37;0,00
17.595;-0,68;-1,18;0,28;-4,79;-4,08;1,77;0,23;-0,18;0,16;0,00
17.595;-0,64;-1,35;0,26;-4,79;-4,08;1,77;0,23;-0,18;0,16;0,00
17.596;-0,55;-1,66;0,09;-4,79;-4,08;1,77;0,23;-0,18;0,16;0,00
17.596;-0,53;-1,73;0,03;-4,79;-4,08;1,77;0,23;-0,18;0,16;0,00
17.668;-0,53;-1,73;0,03;-3,59;-5,72;0,77;0,23;-0,18;0,16;0,00
17.67;-0,53;-1,73;0,03;-3,59;-5,72;0,77;0,50;0,99;0,61;0,00
17.671;-0,56;-1,52;0,15;-3,59;-5,72;0,77;0,50;0,99;0,61;0,00
17.671;-0,54;-1,46;0,20;-3,59;-5,72;0,77;0,50;0,99;0,61;0,00
17.672;-0,49;-1,48;0,15;-3,59;-5,72;0,77;0,50;0,99;0,61;0,00
17.71;-0,49;-1,48;0,15;-1,30;-4,49;0,35;0,50;0,99;0,61;0,00
17.712;-0,49;-1,48;0,15;-1,30;-4,49;0,35;0,80;1,46;1,32;0,00
17.712;-0,39;-1,47;0,11;-1,30;-4,49;0,35;0,80;1,46;1,32;0,00
17.712;-0,30;-1,34;0,08;-1,30;-4,49;0,35;0,80;1,46;1,32;0,00
17.713;-0,27;-1,17;0,07;-1,30;-4,49;0,35;0,80;1,46;1,32;0,00
17.775;-0,27;-1,17;0,07;0,87;-0,69;0,05;0,80;1,46;1,32;0,00
17.775;-0,27;-1,17;0,07;0,87;-0,69;0,05;0,68;2,05;1,36;0,00
17.776;-0,25;-1,01;0,08;0,87;-0,69;0,05;0,68;2,05;1,36;0,00
17.776;-0,25;-0,87;0,10;0,87;-0,69;0,05;0,68;2,05;1,36;0,00
17.776;-0,27;-0,76;0,12;0,87;-0,69;0,05;0,68;2,05;1,36;0,00
17.827;-0,27;-0,76;0,12;0,87;-0,69;0,05;0,62;2,26;1,64;0,00
17.827;-0,28;-0,66;0,13;0,87;-0,69;0,05;0,62;2,26;1,64;0,00
17.827;-0,28;-0,58;0,14;0,87;-0,69;0,05;0,62;2,26;1,64;0,00
17.828;-0,26;-0,53;0,14;0,87;-0,69;0,05;0,62;2,26;1,64;0,00
17.828;-0,26;-0,53;0,14;1,58;2,32;0,69;0,62;2,26;1,64;0,00
17.885;-0,26;-0,53;0,14;1,58;2,32;0,69;0,72;1,23;2,06;0,00
17.886;-0,26;-0,53;0,14;3,36;3,19;0,61;0,72;1,23;2,06;0,00
17.886;-0,21;-0,49;0,13;3,36;3,19;0,61;0,72;1,23;2,06;0,00
17.886;-0,13;-0,51;0,10;3,36;3,19;0,61;0,72;1,23;2,06;0,00
17.887;-0,05;-0,55;0,05;3,36;3,19;0,61;0,72;1,23;2,06;0,00
17.943;-0,05;-0,55;0,05;5,83;1,53;-0,28;0,72;1,23;2,06;0,00
17.944;-0,05;-0,55;0,05;5,83;1,53;-0,28;0,50;0,80;1,74;0,00
17.944;-0,01;-0,61;0,02;5,83;1,53;-0,28;0,50;0,80;1,74;0,00
17.944;-0,01;-0,68;0,03;5,83;1,53;-0,28;0,50;0,80;1,74;0,00
17.945;-0,03;-0,74;0,04;5,83;1,53;-0,28;0,50;0,80;1,74;0,00
18.001;-0,03;-0,74;0,04;5,83;1,53;-0,28;-0,13;0,75;0,70;0,00
18.002;-0,03;-0,74;0,04;5,63;-0,97;0,60;-0,13;0,75;0,70;0,00
18.003;-0,07;-0,82;0,09;5,63;-0,97;0,60;-0,13;0,75;0,70;0,00
18.003;-0,10;-0,97;0,13;5,63;-0,97;0,60;-0,13;0,75;0,70;0,00
18.004;-0,13;-1,12;0,16;5,63;-0,97;0,60;-0,13;0,75;0,70;0,00
18.061;-0,13;-1,12;0,16;5,63;-0,97;0,60;-0,61;-0,40;-0,44;0,00
18.063;-0,13;-1,12;0,16;4,42;-3,86;1,76;-0,61;-0,40;-0,44;0,00
18.064;-0,17;-1,20;0,21;4,42;-3,86;1,76;-0,61;-0,40;-0,44;0,00
18.065;-0,19;-1,17;0,22;4,42;-3,86;1,76;-0,61;-0,40;-0,44;0,00
18.065;-0,22;-1,09;0,14;4,42;-3,86;1,76;-0,61;-0,40;-0,44;0,00
18.119;-0,22;-1,09;0,14;3,23;-3,52;0,29;-0,61;-0,40;-0,44;0,00
18.12;-0,22;-1,09;0,14;3,23;-3,52;0,29;-0,55;-1,17;-1,06;0,00
18.121;-0,25;-1,12;0,04;3,23;-3,52;0,29;-0,55;-1,17;-1,06;0,00
18.122;-0,22;-1,30;0,00;3,23;-3,52;0,29;-0,55;-1,17;-1,06;0,00
18.123;-0,25;-1,42;0,03;3,23;-3,52;0,29;-0,55;-1,17;-1,06;0,00
18.178;-0,25;-1,42;0,03;3,23;-3,52;0,29;-0,80;-1,13;-1,47;0,00
18.179;-0,35;-1,40;0,09;3,23;-3,52;0,29;-0,80;-1,13;-1,47;0,00
18.18;-0,41;-1,36;0,09;3,23;-3,52;0,29;-0,80;-1,13;-1,47;0,00
18.181;-0,40;-1,45;0,05;3,23;-3,52;0,29;-0,80;-1,13;-1,47;0,00
18.182;-0,40;-1,45;0,05;1,41;-5,14;0,42;-0,80;-1,13;-1,47;0,00
18.235;-0,40;-1,45;0,05;1,41;-5,14;0,42;-0,80;-1,77;-1,53;0,00
18.236;-0,40;-1,45;0,05;-0,18;-4,85;-0,09;-0,80;-1,77;-1,53;0,00
18.237;-0,41;-1,45;0,01;-0,18;-4,85;-0,09;-0,80;-1,77;-1,53;0,00
18.238;-0,44;-1,34;0,00;-0,18;-4,85;-0,09;-0,80;-1,77;-1,53;0,00
18.238;-0,44;-1,18;0,01;-0,18;-4,85;-0,09;-0,80;-1,77;-1,53;0,00
18.294;-0,44;-1,18;0,01;-0,18;-4,85;-0,09;-0,78;-1,75;-1,36;0,00
18.296;-0,44;-1,18;0,01;-1,06;-0,33;0,10;-0,78;-1,75;-1,36;0,00
18.296;-0,43;-0,98;0,04;-1,06;-0,33;0,10;-0,78;-1,75;-1,36;0,00
18.297;-0,42;-0,79;0,06;-1,06;-0,33;0,10;-0,78;-1,75;-1,36;0,00
18.298;-0,40;-0,61;0,06;-1,06;-0,33;0,10;-0,78;-1,75;-1,36;0,00
18.353;-0,40;-0,61;0,06;-0,87;4,16;0,56;-0,78;-1,75;-1,36;0,00
18.355;-0,40;-0,61;0,06;-0,87;4,16;0,56;-0,57;-1,46;-0,94;0,00
18.356;-0,36;-0,50;0,08;-0,87;4,16;0,56;-0,57;-1,46;-0,94;0,00
18.356;-0,32;-0,48;0,10;-0,87;4,16;0,56;-0,57;-1,46;-0,94;0,00
18.357;-0,32;-0,52;0,10;-0,87;4,16;0,56;-0,57;-1,46;-0,94;0,00
18.411;-0,32;-0,52;0,10;-1,27;3,91;1,09;-0,57;-1,46;-0,94;0,00
18.412;-0,32;-0,52;0,10;-1,27;3,91;1,09;-0,48;-0,97;-0,94;0,00
18.413;-0,34;-0,57;0,12;-1,27;3,91;1,09;-0,48;-0,97;-0,94;0,00
18.413;-0,39;-0,61;0,15;-1,27;3,91;1,09;-0,48;-0,97;-0,94;0,00
18.414;-0,47;-0,65;0,17;-1,27;3,91;1,09;-0,48;-0,97;-0,94;0,00
18.468;-0,47;-0,65;0,17;-3,76;3,22;1,97;-0,48;-0,97;-0,94;0,00
18.469;-0,47;-0,65;0,17;-3,76;3,22;1,97;-0,45;-0,66;-1,05;0,00
18.47;-0,55;-0,65;0,20;-3,76;3,22;1,97;-0,45;-0,66;-1,05;0,00
18.47;-0,63;-0,63;0,21;-3,76;3,22;1,97;-0,45;-0,66;-1,05;0,00
18.47;-0,67;-0,63;0,21;-3,76;3,22;1,97;-0,45;-0,66;-1,05;0,00
18.527;-0,67;-0,63;0,21;-5,33;2,12;1,95;-0,45;-0,66;-1,05;0,00
18.529;-0,67;-0,63;0,21;-5,33;2,12;1,95;-0,15;-0,37;-0,55;0,00
18.529;-0,70;-0,72;0,19;-5,33;2,12;1,95;-0,15;-0,37;-0,55;0,00
18.53;-0,70;-0,91;0,17;-5,33;2,12;1,95;-0,15;-0,37;-0,55;0,00
18.531;-0,71;-1,12;0,16;-5,33;2,12;1,95;-0,15;-0,37;-0,55;0,00
18.587;-0,71;-1,12;0,16;-5,33;2,12;1,95;0,08;-0,04;-0,04;0,00
18.588;-0,77;-1,21;0,19;-5,33;2,12;1,95;0,08;-0,04;-0,04;0,00
18.589;-0,82;-1,08;0,26;-5,33;2,12;1,95;0,08;-0,04;-0,04;0,00
18.59;-0,74;-1,03;0,24;-5,33;2,12;1,95;0,08;-0,04;-0,04;0,00
18.591;-0,74;-1,03;0,24;-6,05;-1,57;1,96;0,08;-0,04;-0,04;0,00
18.653;-0,74;-1,03;0,24;-6,05;-1,57;1,96;0,61;-0,27;0,66;0,00
18.654;-0,74;-1,03;0,24;-3,76;-2,84;0,29;0,61;-0,27;0,66;0,00
18.655;-0,56;-1,26;0,06;-3,76;-2,84;0,29;0,61;-0,27;0,66;0,00
18.655;-0,45;-1,50;-0,09;-3,76;-2,84;0,29;0,61;-0,27;0,66;0,00
18.655;-0,53;-1,51;-0,02;-3,76;-2,84;0,29;0,61;-0,27;0,66;0,00
18.702;-0,53;-1,51;-0,02;-3,76;-2,84;0,29;0,53;2,15;0,85;0,00
18.702;-0,53;-1,51;-0,02;-3,34;-5,45;0,97;0,53;2,15;0,85;0,00
18.703;-0,63;-1,51;0,18;-3,34;-5,45;0,97;0,53;2,15;0,85;0,00
18.703;-0,63;-1,55;0,26;-3,34;-5,45;0,97;0,53;2,15;0,85;0,00
18.704;-0,54;-1,54;0,24;-3,34;-5,45;0,97;0,53;2,15;0,85;0,00
18.762;-0,54;-1,54;0,24;-0,39;-5,05;1,25;0,53;2,15;0,85;0,00
18.763;-0,54;-1,54;0,24;-0,39;-5,05;1,25;0,86;1,79;1,57;0,00
18.763;-0,38;-1,48;0,18;-0,39;-5,05;1,25;0,86;1,79;1,57;0,00
18.764;-0,25;-1,37;0,14;-0,39;-5,05;1,25;0,86;1,79;1,57;0,00
18.764;-0,20;-1,26;0,15;-0,39;-5,05;1,25;0,86;1,79;1,57;0,00
18.819;-0,20;-1,26;0,15;2,26;-2,01;1,15;0,86;1,79;1,57;0,00
18.82;-0,20;-1,26;0,15;2,26;-2,01;1,15;0,91;2,45;1,64;0,00
18.82;-0,21;-1,12;0,18;2,26;-2,01;1,15;0,91;2,45;1,64;0,00
18.821;-0,23;-0,96;0,19;2,26;-2,01;1,15;0,91;2,45;1,64;0,00
18.821;-0,26;-0,81;0,19;2,26;-2,01;1,15;0,91;2,45;1,64;0,00
18.878;-0,26;-0,81;0,19;2,26;-2,01;1,15;0,92;2,10;1,92;0,00
18.879;-0,28;-0,69;0,20;2,26;-2,01;1,15;0,92;2,10;1,92;0,00
18.88;-0,27;-0,61;0,19;2,26;-2,01;1,15;0,92;2,10;1,92;0,00
18.88;-0,21;-0,56;0,17;2,26;-2,01;1,15;0,92;2,10;1,92;0,00
18.881;-0,21;-0,56;0,17;2,68;1,45;1,46;0,92;2,10;1,92;0,00
18.936;-0,21;-0,56;0,17;2,68;1,45;1,46;0,94;0,75;2,23;0,00
18.937;-0,21;-0,56;0,17;5,03;1,94;0,57;0,94;0,75;2,23;0,00
18.938;-0,13;-0,55;0,12;5,03;1,94;0,57;0,94;0,75;2,23;0,00
18.939;-0,05;-0,58;0,07;5,03;1,94;0,57;0,94;0,75;2,23;0,00
18.94;0,00;-0,61;0,03;5,03;1,94;0,57;0,94;0,75;2,23;0,00
18.994;0,00;-0,61;0,03;7,05;0,38;-0,74;0,94;0,75;2,23;0,00
18.995;0,00;-0,61;0,03;7,05;0,38;-0,74;0,65;0,59;1,74;0,00
18.995;0,03;-0,65;-0,03;7,05;0,38;-0,74;0,65;0,59;1,74;0,00
18.996;0,01;-0,70;-0,03;7,05;0,38;-0,74;0,65;0,59;1,74;0,00
18.996;-0,03;-0,73;0,03;7,05;0,38;-0,74;0,65;0,59;1,74;0,00
19.052;-0,03;-0,73;0,03;6,45;-1,51;0,00;0,65;0,59;1,74;0,00
19.054;-0,03;-0,73;0,03;6,45;-1,51;0,00;-0,03;0,40;0,67;0,00
19.055;-0,07;-0,80;0,06;6,45;-1,51;0,00;-0,03;0,40;0,67;0,00
19.056;-0,10;-0,94;0,05;6,45;-1,51;0,00;-0,03;0,40;0,67;0,00
19.056;-0,14;-1,11;0,03;6,45;-1,51;0,00;-0,03;0,40;0,67;0,00
19.111;-0,14;-1,11;0,03;5,02;-4,19;0,05;-0,03;0,40;0,67;0,00
19.112;-0,14;-1,11;0,03;5,02;-4,19;0,05;-0,56;-0,72;-0,52;0,00
19.112;-0,18;-1,16;0,05;5,02;-4,19;0,05;-0,56;-0,72;-0,52;0,00
19.112;-0,22;-1,11;0,10;5,02;-4,19;0,05;-0,56;-0,72;-0,52;0,00
19.113;-0,18;-1,23;0,11;5,02;-4,19;0,05;-0,56;-0,72;-0,52;0,00
19.17;-0,18;-1,23;0,11;4,38;-6,19;0,28;-0,56;-0,72;-0,52;0,00
19.171;-0,18;-1,23;0,11;4,38;-6,19;0,28;-0,81;-1,45;-1,41;0,00
19.172;-0,16;-1,44;0,10;4,38;-6,19;0,28;-0,81;-1,45;-1,41;0,00
19.173;-0,18;-1,53;0,11;4,38;-6,19;0,28;-0,81;-1,45;-1,41;0,00
19.174;-0,29;-1,47;0,13;4,38;-6,19;0,28;-0,81;-1,45;-1,41;0,00
19.228;-0,29;-1,47;0,13;4,38;-6,19;0,28;-0,98;-1,53;-2,40;0,00
19.23;-0,37;-1,37;0,13;4,38;-6,19;0,28;-0,98;-1,53;-2,40;0,00
19.23;-0,38;-1,39;0,08;4,38;-6,19;0,28;-0,98;-1,53;-2,40;0,00
19.231;-0,38;-1,46;0,05;4,38;-6,19;0,28;-0,98;-1,53;-2,40;0,00
19.232;-0,38;-1,46;0,05;1,48;-5,42;0,30;-0,98;-1,53;-2,40;0,00
19.285;-0,38;-1,46;0,05;1,48;-5,42;0,30;-0,92;-0,85;-2,33;0,00
19.285;-0,38;-1,46;0,05;-0,52;-4,74;0,26;-0,92;-0,85;-2,33;0,00
19.286;-0,42;-1,45;0,07;-0,52;-4,74;0,26;-0,92;-0,85;-2,33;0,00
19.286;-0,48;-1,33;0,13;-0,52;-4,74;0,26;-0,92;-0,85;-2,33;0,00
19.286;-0,51;-1,17;0,16;-0,52;-4,74;0,26;-0,92;-0,85;-2,33;0,00
19.343;-0,51;-1,17;0,16;-1,98;0,05;1,22;-0,92;-0,85;-2,33;0,00
19.344;-0,51;-1,17;0,16;-1,98;0,05;1,22;-0,76;-1,36;-1,82;0,00
19.345;-0,48;-0,96;0,18;-1,98;0,05;1,22;-0,76;-1,36;-1,82;0,00
19.345;-0,43;-0,75;0,16;-1,98;0,05;1,22;-0,76;-1,36;-1,82;0,00
19.346;-0,37;-0,60;0,11;-1,98;0,05;1,22;-0,76;-1,36;-1,82;0,00
19.402;-0,37;-0,60;0,11;-1,98;0,05;1,22;-0,65;-1,96;-1,28;0,00
19.403;-0,34;-0,50;0,09;-1,98;0,05;1,22;-0,65;-1,96;-1,28;0,00
19.404;-0,36;-0,47;0,10;-1,98;0,05;1,22;-0,65;-1,96;-1,28;0,00
19.405;-0,38;-0,48;0,12;-1,98;0,05;1,22;-0,65;-1,96;-1,28;0,00
19.406;-0,38;-0,48;0,12;-1,56;4,42;0,66;-0,65;-1,96;-1,28;0,00
19.452;-0,38;-0,48;0,12;-1,56;4,42;0,66;-0,61;-1,77;-0,91;0,00
19.452;-0,39;-0,52;0,11;-1,56;4,42;0,66;-0,61;-1,77;-0,91;0,00
19.453;-0,37;-0,60;0,11;-1,56;4,42;0,66;-0,61;-1,77;-0,91;0,00
19.453;-0,38;-0,69;0,11;-1,56;4,42;0,66;-0,61;-1,77;-0,91;0,00
19.453;-0,38;-0,69;0,11;-2,30;4,39;0,94;-0,61;-1,77;-0,91;0,00
19.509;-0,38;-0,69;0,11;-3,25;2,21;1,39;-0,61;-1,77;-0,91;0,00
19.51;-0,38;-0,69;0,11;-3,25;2,21;1,39;-0,62;-1,57;-0,81;0,00
19.51;-0,43;-0,77;0,14;-3,25;2,21;1,39;-0,62;-1,57;-0,81;0,00
19.51;-0,50;-0,81;0,16;-3,25;2,21;1,39;-0,62;-1,57;-0,81;0,00
19.511;-0,54;-0,81;0,16;-3,25;2,21;1,39;-0,62;-1,57;-0,81;0,00
19.568;-0,54;-0,81;0,16;-3,25;2,21;1,39;-0,40;-1,48;-0,61;0,00
19.57;-0,55;-0,81;0,16;-3,25;2,21;1,39;-0,40;-1,48;-0,61;0,00
19.571;-0,55;-0,84;0,14;-3,25;2,21;1,39;-0,40;-1,48;-0,61;0,00
19.571;-0,55;-0,92;0,12;-3,25;2,21;1,39;-0,40;-1,48;-0,61;0,00
19.572;-0,55;-0,92;0,12;-4,61;1,56;1,68;-0,40;-1,48;-0,61;0,00
19.625;-0,55;-0,92;0,12;-4,61;1,56;1,68;0,05;-0,66;-0,25;0,00
19.625;-0,55;-0,92;0,12;-5,30;-0,25;1,32;0,05;-0,66;-0,25;0,00
19.626;-0,61;-1,01;0,12;-5,30;-0,25;1,32;0,05;-0,66;-0,25;0,00
19.627;-0,69;-1,09;0,14;-5,30;-0,25;1,32;0,05;-0,66;-0,25;0,00
19.627;-0,71;-1,08;0,17;-5,30;-0,25;1,32;0,05;-0,66;-0,25;0,00
19.684;-0,71;-1,08;0,17;-5,30;-0,25;1,32;0,52;-0,35;0,32;0,00
19.684;-0,66;-1,13;0,12;-5,30;-0,25;1,32;0,52;-0,35;0,32;0,00
19.685;-0,63;-1,35;-0,01;-5,30;-0,25;1,32;0,52;-0,35;0,32;0,00
19.685;-0,63;-1,46;-0,08;-5,30;-0,25;1,32;0,52;-0,35;0,32;0,00
19.685;-0,63;-1,46;-0,08;-5,51;-1,99;0,71;0,52;-0,35;0,32;0,00
19.752;-0,63;-1,46;-0,08;-5,51;-1,99;0,71;0,49;0,84;0,80;0,00
19.753;-0,63;-1,46;-0,08;-5,46;-4,13;-0,20;0,49;0,84;0,80;0,00
19.754;-0,75;-1,41;0,01;-5,46;-4,13;-0,20;0,49;0,84;0,80;0,00
19.755;-0,77;-1,35;0,14;-5,46;-4,13;-0,20;0,49;0,84;0,80;0,00
19.756;-0,72;-1,35;0,16;-5,46;-4,13;-0,20;0,49;0,84;0,80;0,00
19.801;-0,72;-1,35;0,16;-2,71;-4,08;-0,05;0,49;0,84;0,80;0,00
19.801;-0,72;-1,35;0,16;-2,71;-4,08;-0,05;0,83;0,56;2,03;0,00
19.802;-0,56;-1,40;0,08;-2,71;-4,08;-0,05;0,83;0,56;2,03;0,00
19.802;-0,38;-1,38;-0,00;-2,71;-4,08;-0,05;0,83;0,56;2,03;0,00
19.802;-0,29;-1,27;-0,06;-2,71;-4,08;-0,05;0,83;0,56;2,03;0,00
19.862;-0,29;-1,27;-0,06;1,21;-2,20;-1,55;0,83;0,56;2,03;0,00
19.864;-0,29;-1,27;-0,06;1,21;-2,20;-1,55;0,83;0,76;2,09;0,00
19.865;-0,27;-1,14;-0,05;1,21;-2,20;-1,55;0,83;0,76;2,09;0,00
19.866;-0,26;-1,02;-0,02;1,21;-2,20;-1,55;0,83;0,76;2,09;0,00
19.87;-0,27;-0,92;-0,00;1,21;-2,20;-1,55;0,83;0,76;2,09;0,00
19.918;-0,27;-0,92;-0,00;2,30;0,20;-0,81;0,83;0,76;2,09;0,00
19.919;-0,27;-0,92;-0,00;2,30;0,20;-0,81;0,56;1,28;1,98;0,00
19.919;-0,27;-0,84;0,02;2,30;0,20;-0,81;0,56;1,28;1,98;0,00
19.92;-0,27;-0,77;0,05;2,30;0,20;-0,81;0,56;1,28;1,98;0,00
19.92;-0,24;-0,71;0,07;2,30;0,20;-0,81;0,56;1,28;1,98;0,00
19.976;-0,24;-0,71;0,07;2,30;0,20;-0,81;0,56;0,73;1,94;0,00
19.977;-0,24;-0,71;0,07;3,93;1,17;-0,66;0,56;0,73;1,94;0,00
19.978;-0,20;-0,67;0,05;3,93;1,17;-0,66;0,56;0,73;1,94;0,00
19.978;-0,15;-0,64;0,01;3,93;1,17;-0,66;0,56;0,73;1,94;0,00
19.979;-0,10;-0,64;-0,01;3,93;1,17;-0,66;0,56;0,73;1,94;0,00
20.035;-0,10;-0,64;-0,01;3,93;1,17;-0,66;0,43;0,70;1,62;0,00
20.036;-0,10;-0,64;-0,01;5,78;0,75;-1,20;0,43;0,70;1,62;0,00
20.036;-0,07;-0,65;-0,03;5,78;0,75;-1,20;0,43;0,70;1,62;0,00
20.037;-0,05;-0,67;-0,03;5,78;0,75;-1,20;0,43;0,70;1,62;0,00
20.037;-0,06;-0,73;-0,02;5,78;0,75;-1,20;0,43;0,70;1,62;0,00
20.092;-0,06;-0,73;-0,02;5,78;0,75;-1,20;-0,05;0,62;0,77;0,00
20.093;-0,06;-0,73;-0,02;5,93;-1,05;-0,77;-0,05;0,62;0,77;0,00
20.094;-0,08;-0,81;-0,01;5,93;-1,05;-0,77;-0,05;0,62;0,77;0,00
20.094;-0,11;-0,89;0,01;5,93;-1,05;-0,77;-0,05;0,62;0,77;0,00
20.095;-0,12;-0,95;0,04;5,93;-1,05;-0,77;-0,05;0,62;0,77;0,00
20.151;-0,12;-0,95;0,04;5,22;-3,12;-0,15;-0,05;0,62;0,77;0,00
20.153;-0,12;-0,95;0,04;5,22;-3,12;-0,15;-0,49;-0,14;-0,32;0,00
20.154;-0,13;-1,05;0,04;5,22;-3,12;-0,15;-0,49;-0,14;-0,32;0,00
20.154;-0,15;-1,12;0,04;5,22;-3,12;-0,15;-0,49;-0,14;-0,32;0,00
20.155;-0,19;-1,11;0,05;5,22;-3,12;-0,15;-0,49;-0,14;-0,32;0,00
20.21;-0,19;-1,11;0,05;5,22;-3,12;-0,15;-0,74;-0,66;-1,13;0,00
20.21;-0,19;-1,11;0,05;4,02;-3,93;0,14;-0,74;-0,66;-1,13;0,00
20.211;-0,22;-1,11;0,07;4,02;-3,93;0,14;-0,74;-0,66;-1,13;0,00
20.212;-0,19;-1,31;0,06;4,02;-3,93;0,14;-0,74;-0,66;-1,13;0,00
20.212;-0,19;-1,53;0,05;4,02;-3,93;0,14;-0,74;-0,66;-1,13;0,00
20.267;-0,19;-1,53;0,05;2,04;-5,85;0,58;-0,74;-0,66;-1,13;0,00
20.268;-0,19;-1,53;0,05;2,04;-5,85;0,58;-1,06;-1,07;-1,89;0,00
20.268;-0,30;-1,48;0,09;2,04;-5,85;0,58;-1,06;-1,07;-1,89;0,00
20.269;-0,42;-1,32;0,14;2,04;-5,85;0,58;-1,06;-1,07;-1,89;0,00
20.269;-0,42;-1,35;0,10;2,04;-5,85;0,58;-1,06;-1,07;-1,89;0,00
20.326;-0,42;-1,35;0,10;2,04;-5,85;0,58;-0,98;-1,77;-1,84;0,00
20.328;-0,35;-1,47;0,02;2,04;-5,85;0,58;-0,98;-1,77;-1,84;0,00
20.329;-0,34;-1,52;-0,01;2,04;-5,85;0,58;-0,98;-1,77;-1,84;0,00
20.329;-0,35;-1,46;0,02;2,04;-5,85;0,58;-0,98;-1,77;-1,84;0,00
20.33;-0,35;-1,46;0,02;0,43;-5,28;0,01;-0,98;-1,77;-1,84;0,00
20.385;-0,35;-1,46;0,02;0,43;-5,28;0,01;-0,97;-1,37;-1,80;0,00
20.386;-0,39;-1,30;0,07;0,43;-5,28;0,01;-0,97;-1,37;-1,80;0,00
20.387;-0,42;-1,04;0,09;0,43;-5,28;0,01;-0,97;-1,37;-1,80;0,00
20.388;-0,43;-0,80;0,09;0,43;-5,28;0,01;-0,97;-1,37;-1,80;0,00
20.389;-0,43;-0,80;0,09;-0,69;-3,08;0,46;-0,97;-1,37;-1,80;0,00
20.442;-0,43;-0,80;0,09;-1,56;3,11;0,62;-0,97;-1,37;-1,80;0,00
20.443;-0,43;-0,80;0,09;-1,56;3,11;0,62;-0,72;-1,79;-1,45;0,00
20.443;-0,40;-0,63;0,07;-1,56;3,11;0,62;-0,72;-1,79;-1,45;0,00
20.444;-0,35;-0,53;0,04;-1,56;3,11;0,62;-0,72;-1,79;-1,45;0,00
20.444;-0,32;-0,50;0,01;-1,56;3,11;0,62;-0,72;-1,79;-1,45;0,00
20.501;-0,32;-0,50;0,01;-1,56;3,11;0,62;-0,67;-1,54;-1,19;0,00
20.502;-0,33;-0,51;0,01;-1,56;3,11;0,62;-0,67;-1,54;-1,19;0,00
20.502;-0,37;-0,57;0,03;-1,56;3,11;0,62;-0,67;-1,54;-1,19;0,00
20.503;-0,41;-0,64;0,07;-1,56;3,11;0,62;-0,67;-1,54;-1,19;0,00
20.503;-0,41;-0,64;0,07;-1,64;4,44;0,36;-0,67;-1,54;-1,19;0,00
20.559;-0,41;-0,64;0,07;-3,28;2,58;1,31;-0,67;-1,54;-1,19;0,00
20.56;-0,41;-0,64;0,07;-3,28;2,58;1,31;-0,75;-1,08;-1,15;0,00
20.56;-0,44;-0,71;0,08;-3,28;2,58;1,31;-0,75;-1,08;-1,15;0,00
20.56;-0,49;-0,80;0,10;-3,28;2,58;1,31;-0,75;-1,08;-1,15;0,00
20.561;-0,54;-0,88;0,12;-3,28;2,58;1,31;-0,75;-1,08;-1,15;0,00
20.619;-0,54;-0,88;0,12;-5,28;0,51;2,25;-0,75;-1,08;-1,15;0,00
20.619;-0,54;-0,88;0,12;-5,28;0,51;2,25;-0,76;-1,03;-1,05;0,00
20.62;-0,61;-0,93;0,14;-5,28;0,51;2,25;-0,76;-1,03;-1,05;0,00
20.62;-0,66;-0,98;0,18;-5,28;0,51;2,25;-0,76;-1,03;-1,05;0,00
20.621;-0,67;-0,99;0,21;-5,28;0,51;2,25;-0,76;-1,03;-1,05;0,00
20.676;-0,67;-0,99;0,21;-5,28;0,51;2,25;-0,23;-0,87;-0,54;0,00
20.677;-0,67;-0,99;0,21;-6,13;-0,33;2,61;-0,23;-0,87;-0,54;0,00
20.678;-0,68;-1,00;0,18;-6,13;-0,33;2,61;-0,23;-0,87;-0,54;0,00
20.679;-0,68;-1,06;0,13;-6,13;-0,33;2,61;-0,23;-0,87;-0,54;0,00
20.68;-0,67;-1,07;0,11;-6,13;-0,33;2,61;-0,23;-0,87;-0,54;0,00
20.737;-0,67;-1,07;0,11;-5,96;-1,43;1,39;-0,23;-0,87;-0,54;0,00
20.738;-0,67;-1,07;0,11;-5,96;-1,43;1,39;0,56;0,28;0,09;0,00
20.739;-0,68;-1,11;0,09;-5,96;-1,43;1,39;0,56;0,28;0,09;0,00
20.74;-0,67;-1,23;0,05;-5,96;-1,43;1,39;0,56;0,28;0,09;0,00
20.741;-0,71;-1,32;-0,00;-5,96;-1,43;1,39;0,56;0,28;0,09;0,00
20.794;-0,71;-1,32;-0,00;-5,96;-1,43;1,39;0,85;1,57;0,93;0,00
20.795;-0,75;-1,31;0,08;-5,96;-1,43;1,39;0,85;1,57;0,93;0,00
20.796;-0,69;-1,26;0,15;-5,96;-1,43;1,39;0,85;1,57;0,93;0,00
20.797;-0,53;-1,28;0,17;-5,96;-1,43;1,39;0,85;1,57;0,93;0,00
20.797;-0,53;-1,28;0,17;-5,78;-2,98;0,89;0,85;1,57;0,93;0,00
20.855;-0,53;-1,28;0,17;-0,94;-3,42;0,80;0,85;1,57;0,93;0,00
20.856;-0,53;-1,28;0,17;-0,94;-3,42;0,80;1,05;1,49;2,09;0,00
20.856;-0,33;-1,35;0,12;-0,94;-3,42;0,80;1,05;1,49;2,09;0,00
20.857;-0,16;-1,33;0,05;-0,94;-3,42;0,80;1,05;1,49;2,09;0,00
20.857;-0,11;-1,29;0,05;-0,94;-3,42;0,80;1,05;1,49;2,09;0,00
20.909;-0,11;-1,29;0,05;1,77;-2,90;1,00;1,05;1,49;2,09;0,00
20.91;-0,11;-1,29;0,05;1,77;-2,90;1,00;0,66;2,54;1,78;0,00
20.91;-0,15;-1,25;0,11;1,77;-2,90;1,00;0,66;2,54;1,78;0,00
20.91;-0,23;-1,20;0,22;1,77;-2,90;1,00;0,66;2,54;1,78;0,00
20.91;-0,30;-1,10;0,31;1,77;-2,90;1,00;0,66;2,54;1,78;0,00
20.966;-0,30;-1,10;0,31;1,22;-0,71;3,06;0,66;2,54;1,78;0,00
20.967;-0,30;-1,10;0,31;1,22;-0,71;3,06;0,46;2,18;1,73;0,00
20.968;-0,32;-0,98;0,33;1,22;-0,71;3,06;0,46;2,18;1,73;0,00
20.968;-0,32;-0,87;0,32;1,22;-0,71;3,06;0,46;2,18;1,73;0,00
21.016;-0,32;-0,87;0,32;3,36;1,21;2,00;0,46;2,18;1,73;0,00
21.018;-0,32;-0,87;0,32;3,36;1,21;2,00;0,70;0,75;2,15;0,00
21.019;-0,28;-0,77;0,28;3,36;1,21;2,00;0,70;0,75;2,15;0,00
21.02;-0,20;-0,71;0,22;3,36;1,21;2,00;0,70;0,75;2,15;0,00
21.02;-0,13;-0,67;0,19;3,36;1,21;2,00;0,70;0,75;2,15;0,00
21.075;-0,13;-0,67;0,19;3,36;1,21;2,00;0,79;0,73;2,06;0,00
21.076;-0,06;-0,66;0,17;3,36;1,21;2,00;0,79;0,73;2,06;0,00
21.077;-0,00;-0,65;0,14;3,36;1,21;2,00;0,79;0,73;2,06;0,00
21.078;0,00;-0,66;0,11;3,36;1,21;2,00;0,79;0,73;2,06;0,00
21.079;0,00;-0,66;0,11;6,00;1,11;1,01;0,79;0,73;2,06;0,00
21.132;0,00;-0,66;0,11;6,00;1,11;1,01;0,63;0,90;1,20;0,00
21.132;0,00;-0,66;0,11;6,27;0,22;0,85;0,63;0,90;1,20;0,00
21.133;-0,02;-0,67;0,12;6,27;0,22;0,85;0,63;0,90;1,20;0,00
21.133;-0,04;-0,70;0,13;6,27;0,22;0,85;0,63;0,90;1,20;0,00
21.134;-0,05;-0,72;0,11;6,27;0,22;0,85;0,63;0,90;1,20;0,00
21.191;-0,05;-0,72;0,11;6,27;0,22;0,85;0,30;0,39;0,18;0,00
21.191;-0,05;-0,72;0,11;5,31;-0,80;0,24;0,30;0,39;0,18;0,00
21.192;-0,10;-0,75;0,08;5,31;-0,80;0,24;0,30;0,39;0,18;0,00
21.192;-0,15;-0,79;0,05;5,31;-0,80;0,24;0,30;0,39;0,18;0,00
21.193;-0,15;-0,85;0,02;5,31;-0,80;0,24;0,30;0,39;0,18;0,00
21.25;-0,15;-0,85;0,02;5,31;-0,80;0,24;-0,10;0,02;-0,81;0,00
21.251;-0,14;-0,92;0,02;5,31;-0,80;0,24;-0,10;0,02;-0,81;0,00
21.252;-0,18;-0,98;0,02;5,31;-0,80;0,24;-0,10;0,02;-0,81;0,00
21.253;-0,27;-1,02;0,04;5,31;-0,80;0,24;-0,10;0,02;-0,81;0,00
21.254;-0,27;-1,02;0,04;4,30;-2,20;0,03;-0,10;0,02;-0,81;0,00
21.308;-0,27;-1,02;0,04;2,14;-3,74;-0,21;-0,10;0,02;-0,81;0,00
21.31;-0,36;-1,06;0,02;2,14;-3,74;-0,21;-0,10;0,02;-0,81;0,00
21.311;-0,35;-1,16;0,01;2,14;-3,74;-0,21;-0,10;0,02;-0,81;0,00
21.311;-0,32;-1,36;-0,02;2,14;-3,74;-0,21;-0,10;0,02;-0,81;0,00
21.312;-0,32;-1,36;-0,02;2,14;-3,74;-0,21;-0,24;-0,44;-1,53;0,00
21.365;-0,32;-1,36;-0,02;2,14;-3,74;-0,21;-0,51;-0,53;-2,18;0,00
21.366;-0,32;-1,36;-0,02;-0,01;-4,78;-0,16;-0,51;-0,53;-2,18;0,00
21.366;-0,35;-1,44;-0,04;-0,01;-4,78;-0,16;-0,51;-0,53;-2,18;0,00
21.367;-0,47;-1,49;-0,00;-0,01;-4,78;-0,16;-0,51;-0,53;-2,18;0,00
21.367;-0,54;-1,18;0,05;-0,01;-4,78;-0,16;-0,51;-0,53;-2,18;0,00
21.415;-0,52;-1,20;0,01;-0,01;-4,78;-0,16;-0,51;-0,53;-2,18;0,00
21.415;-0,46;-1,31;-0,05;-0,01;-4,78;-0,16;-0,51;-0,53;-2,18;0,00
21.416;-0,46;-1,31;-0,08;-0,01;-4,78;-0,16;-0,51;-0,53;-2,18;0,00
21.416;-0,46;-1,31;-0,08;-0,01;-4,78;-0,16;-0,43;-0,42;-1,86;0,00
21.416;-0,46;-1,31;-0,08;-1,17;-3,34;-0,44;-0,43;-0,42;-1,86;0,00
21.472;-0,48;-1,24;-0,01;-1,17;-3,34;-0,44;-0,43;-0,42;-1,86;0,00
21.473;-0,51;-1,10;0,06;-1,17;-3,34;-0,44;-0,43;-0,42;-1,86;0,00
21.521;-0,51;-1,10;0,06;-1,17;-3,34;-0,44;-0,55;-0,03;-1,66;0,00
21.522;-0,53;-0,93;0,11;-1,17;-3,34;-0,44;-0,55;-0,03;-1,66;0,00
21.523;-0,51;-0,79;0,10;-1,17;-3,34;-0,44;-0,55;-0,03;-1,66;0,00
21.523;-0,44;-0,69;0,07;-1,17;-3,34;-0,44;-0,55;-0,03;-1,66;0,00
21.523;-0,44;-0,69;0,07;-2,31;-1,26;0,77;-0,55;-0,03;-1,66;0,00
21.579;-0,44;-0,69;0,07;-2,33;2,67;1,02;-0,55;-0,03;-1,66;0,00
21.581;-0,44;-0,69;0,07;-2,33;2,67;1,02;-0,41;-0,96;-1,14;0,00
21.582;-0,40;-0,63;0,04;-2,33;2,67;1,02;-0,41;-0,96;-1,14;0,00
21.582;-0,37;-0,61;0,04;-2,33;2,67;1,02;-0,41;-0,96;-1,14;0,00
21.583;-0,38;-0,61;0,04;-2,33;2,67;1,02;-0,41;-0,96;-1,14;0,00
21.629;-0,38;-0,61;0,04;-2,33;2,67;1,02;-0,38;-0,66;-0,85;0,00
21.631;-0,38;-0,61;0,04;-2,07;3,50;0,88;-0,38;-0,66;-0,85;0,00
21.632;-0,39;-0,64;0,04;-2,07;3,50;0,88;-0,38;-0,66;-0,85;0,00
21.633;-0,42;-0,65;0,05;-2,07;3,50;0,88;-0,38;-0,66;-0,85;0,00
21.634;-0,45;-0,68;0,07;-2,07;3,50;0,88;-0,38;-0,66;-0,85;0,00
21.686;-0,45;-0,68;0,07;-3,18;2,85;1,36;-0,38;-0,66;-0,85;0,00
21.687;-0,45;-0,68;0,07;-3,18;2,85;1,36;-0,34;-0,10;-0,71;0,00
21.687;-0,50;-0,73;0,10;-3,18;2,85;1,36;-0,34;-0,10;-0,71;0,00
21.687;-0,53;-0,75;0,12;-3,18;2,85;1,36;-0,34;-0,10;-0,71;0,00
21.739;-0,53;-0,75;0,12;-3,18;2,85;1,36;-0,12;0,11;-0,36;0,00
21.741;-0,53;-0,75;0,12;-4,17;2,15;1,90;-0,12;0,11;-0,36;0,00
21.743;-0,55;-0,75;0,13;-4,17;2,15;1,90;-0,12;0,11;-0,36;0,00
21.744;-0,54;-0,76;0,14;-4,17;2,15;1,90;-0,12;0,11;-0,36;0,00
21.744;-0,54;-0,81;0,10;-4,17;2,15;1,90;-0,12;0,11;-0,36;0,00
21.794;-0,54;-0,81;0,10;-4,17;2,15;1,90;0,26;0,56;0,10;0,00
21.795;-0,54;-0,81;0,10;-4,21;0,69;1,23;0,26;0,56;0,10;0,00
21.795;-0,55;-0,91;0,06;-4,21;0,69;1,23;0,26;0,56;0,10;0,00
21.796;-0,58;-0,99;0,05;-4,21;0,69;1,23;0,26;0,56;0,10;0,00
21.796;-0,62;-1,03;0,08;-4,21;0,69;1,23;0,26;0,56;0,10;0,00
21.851;-0,62;-1,03;0,08;-4,21;0,69;1,23;0,51;0,94;0,60;0,00
21.851;-0,62;-1,03;0,08;-4,29;-0,49;1,45;0,51;0,94;0,60;0,00
21.852;-0,63;-1,01;0,13;-4,29;-0,49;1,45;0,51;0,94;0,60;0,00
21.852;-0,57;-1,02;0,14;-4,29;-0,49;1,45;0,51;0,94;0,60;0,00
21.853;-0,49;-1,17;0,09;-4,29;-0,49;1,45;0,51;0,94;0,60;0,00
21.9;-0,49;-1,17;0,09;-2,12;-4,05;0,81;0,51;0,94;0,60;0,00
21.901;-0,49;-1,17;0,09;-2,12;-4,05;0,81;0,68;1,08;0,92;0,00
21.901;-0,39;-1,43;0,06;-2,12;-4,05;0,81;0,68;1,08;0,92;0,00
21.902;-0,44;-1,55;0,09;-2,12;-4,05;0,81;0,68;1,08;0,92;0,00
21.902;-0,51;-1,37;0,20;-2,12;-4,05;0,81;0,68;1,08;0,92;0,00
21.958;-0,51;-1,37;0,20;-2,12;-4,05;0,81;0,61;1,79;1,19;0,00
21.959;-0,51;-1,37;0,20;-1,58;-2,91;2,04;0,61;1,79;1,19;0,00
21.96;-0,48;-1,19;0,22;-1,58;-2,91;2,04;0,61;1,79;1,19;0,00
21.96;-0,37;-1,20;0,23;-1,58;-2,91;2,04;0,61;1,79;1,19;0,00
21.96;-0,25;-1,27;0,18;-1,58;-2,91;2,04;0,61;1,79;1,19;0,00
22.017;-0,25;-1,27;0,18;1,77;-3,08;1,69;0,61;1,79;1,19;0,00
22.018;-0,25;-1,27;0,18;1,77;-3,08;1,69;0,57;1,51;1,42;0,00
22.018;-0,16;-1,28;0,17;1,77;-3,08;1,69;0,57;1,51;1,42;0,00
22.019;-0,16;-1,20;0,20;1,77;-3,08;1,69;0,57;1,51;1,42;0,00
22.019;-0,21;-1,05;0,22;1,77;-3,08;1,69;0,57;1,51;1,42;0,00
22.076;-0,21;-1,05;0,22;1,77;-3,08;1,69;0,36;1,50;0,96;0,00
22.076;-0,25;-0,88;0,24;1,77;-3,08;1,69;0,36;1,50;0,96;0,00
22.077;-0,24;-0,75;0,23;1,77;-3,08;1,69;0,36;1,50;0,96;0,00
22.077;-0,22;-0,67;0,20;1,77;-3,08;1,69;0,36;1,50;0,96;0,00
22.077;-0,22;-0,67;0,20;1,81;0,16;2,24;0,36;1,50;0,96;0,00
22.134;-0,22;-0,67;0,20;2,83;2,55;1,72;0,36;1,50;0,96;0,00
22.135;-0,22;-0,67;0,20;2,83;2,55;1,72;0,49;1,09;1,00;0,00
22.136;-0,18;-0,61;0,18;2,83;2,55;1,72;0,49;1,09;1,00;0,00
22.137;-0,13;-0,58;0,16;2,83;2,55;1,72;0,49;1,09;1,00;0,00
22.138;-0,10;-0,56;0,14;2,83;2,55;1,72;0,49;1,09;1,00;0,00
22.193;-0,10;-0,56;0,14;2,83;2,55;1,72;0,50;1,20;0,77;0,00
22.193;-0,10;-0,56;0,12;2,83;2,55;1,72;0,50;1,20;0,77;0,00
22.194;-0,10;-0,60;0,13;2,83;2,55;1,72;0,50;1,20;0,77;0,00
22.194;-0,11;-0,67;0,14;2,83;2,55;1,72;0,50;1,20;0,77;0,00
22.195;-0,11;-0,67;0,14;3,90;2,77;1,31;0,50;1,20;0,77;0,00
22.25;-0,11;-0,67;0,14;3,16;1,19;1,69;0,50;1,20;0,77;0,00
22.251;-0,11;-0,67;0,14;3,16;1,19;1,69;0,30;1,09;0,23;0,00
22.252;-0,19;-0,73;0,16;3,16;1,19;1,69;0,30;1,09;0,23;0,00
22.253;-0,24;-0,78;0,16;3,16;1,19;1,69;0,30;1,09;0,23;0,00
22.254;-0,26;-0,84;0,16;3,16;1,19;1,69;0,30;1,09;0,23;0,00
22.309;-0,26;-0,84;0,16;3,16;1,19;1,69;0,10;0,29;-0,10;0,00
22.31;-0,25;-0,94;0,15;3,16;1,19;1,69;0,10;0,29;-0,10;0,00
22.311;-0,25;-1,04;0,14;3,16;1,19;1,69;0,10;0,29;-0,10;0,00
22.311;-0,23;-1,10;0,17;3,16;1,19;1,69;0,10;0,29;-0,10;0,00
22.311;-0,23;-1,10;0,17;2,32;-0,88;1,68;0,10;0,29;-0,10;0,00
22.368;-0,23;-1,10;0,17;2,32;-0,88;1,68;0,00;-0,29;-0,40;0,00
22.369;-0,23;-1,10;0,17;2,19;-2,83;1,83;0,00;-0,29;-0,40;0,00
22.369;-0,24;-1,17;0,20;2,19;-2,83;1,83;0,00;-0,29;-0,40;0,00
22.37;-0,27;-1,19;0,17;2,19;-2,83;1,83;0,00;-0,29;-0,40;0,00
22.37;-0,32;-1,14;0,08;2,19;-2,83;1,83;0,00;-0,29;-0,40;0,00
22.426;-0,32;-1,14;0,08;2,19;-2,83;1,83;0,05;-0,64;-0,66;0,00
22.427;-0,34;-1,20;0,02;2,19;-2,83;1,83;0,05;-0,64;-0,66;0,00
22.428;-0,33;-1,34;0,01;2,19;-2,83;1,83;0,05;-0,64;-0,66;0,00
22.429;-0,34;-1,43;0,04;2,19;-2,83;1,83;0,05;-0,64;-0,66;0,00
22.43;-0,34;-1,43;0,04;0,98;-3,31;0,25;0,05;-0,64;-0,66;0,00
22.484;-0,34;-1,43;0,04;0,98;-3,31;0,25;-0,28;-0,88;-0,82;0,00
22.485;-0,37;-1,49;0,10;0,98;-3,31;0,25;-0,28;-0,88;-0,82;0,00
22.485;-0,42;-1,40;0,14;0,98;-3,31;0,25;-0,28;-0,88;-0,82;0,00
22.485;-0,46;-1,27;0,11;0,98;-3,31;0,25;-0,28;-0,88;-0,82;0,00
22.485;-0,46;-1,27;0,11;0,14;-5,09;0,74;-0,28;-0,88;-0,82;0,00
22.541;-0,46;-1,27;0,11;0,14;-5,09;0,74;-0,08;-1,52;-0,66;0,00
22.542;-0,42;-1,19;0,04;0,14;-5,09;0,74;-0,08;-1,52;-0,66;0,00
22.543;-0,35;-1,12;-0,03;0,14;-5,09;0,74;-0,08;-1,52;-0,66;0,00
22.543;-0,35;-1,12;-0,03;-0,54;-2,53;-0,08;-0,08;-1,52;-0,66;0,00
22.593;-0,35;-1,12;-0,03;-0,54;-2,53;-0,08;0,02;-0,83;-0,48;0,00
22.594;-0,35;-1,12;-0,03;0,24;0,06;-0,82;0,02;-0,83;-0,48;0,00
22.594;-0,30;-1,06;-0,04;0,24;0,06;-0,82;0,02;-0,83;-0,48;0,00
22.595;-0,29;-0,95;-0,01;0,24;0,06;-0,82;0,02;-0,83;-0,48;0,00
22.595;-0,30;-0,82;-0,01;0,24;0,06;-0,82;0,02;-0,83;-0,48;0,00
22.65;-0,30;-0,82;-0,01;-0,17;3,09;-0,39;0,02;-0,83;-0,48;0,00
22.652;-0,30;-0,82;-0,01;-0,17;3,09;-0,39;-0,07;-0,62;-0,42;0,00
22.652;-0,32;-0,70;0,01;-0,17;3,09;-0,39;-0,07;-0,62;-0,42;0,00
22.653;-0,32;-0,62;0,04;-0,17;3,09;-0,39;-0,07;-0,62;-0,42;0,00
22.654;-0,30;-0,58;0,04;-0,17;3,09;-0,39;-0,07;-0,62;-0,42;0,00
22.707;-0,30;-0,58;0,04;-0,17;3,09;-0,39;-0,22;-0,82;-0,50;0,00
22.708;-0,30;-0,58;0,04;0,20;3,38;-0,47;-0,22;-0,82;-0,50;0,00
22.709;-0,25;-0,58;0,03;0,20;3,38;-0,47;-0,22;-0,82;-0,50;0,00
22.709;-0,23;-0,60;0,01;0,20;3,38;-0,47;-0,22;-0,82;-0,50;0,00
22.709;-0,25;-0,64;0,03;0,20;3,38;-0,47;-0,22;-0,82;-0,50;0,00
22.766;-0,25;-0,64;0,03;0,20;3,38;-0,47;-0,46;-0,66;-0,76;0,00
22.767;-0,25;-0,64;0,03;-1,59;2,31;0,33;-0,46;-0,66;-0,76;0,00
22.768;-0,32;-0,69;0,05;-1,59;2,31;0,33;-0,46;-0,66;-0,76;0,00
22.768;-0,39;-0,73;0,09;-1,59;2,31;0,33;-0,46;-0,66;-0,76;0,00
22.769;-0,45;-0,75;0,12;-1,59;2,31;0,33;-0,46;-0,66;-0,76;0,00
22.825;-0,45;-0,75;0,12;-1,59;2,31;0,33;-0,38;-0,72;-0,52;0,00
22.827;-0,45;-0,75;0,12;-2,56;2,42;1,03;-0,38;-0,72;-0,52;0,00
