time,gFx,gFy,gFz,ax,ay,az,wx,wy,wz,P
0.009,-0.20,0.36,0.98,0.54,-1.49,1.04,-0.02,0.05,0.05,0.00
0.01,-0.20,0.36,0.98,0.54,-1.49,1.04,-0.03,0.10,0.03,0.00
0.01,-0.20,0.36,0.98,1.19,-1.04,1.57,-0.03,0.10,0.03,0.00
0.011,-0.23,0.37,1.00,1.19,-1.04,1.57,-0.03,0.10,0.03,0.00
0.012,-0.23,0.37,1.00,1.19,-1.04,1.57,-0.05,0.05,-0.00,0.00
0.012,-0.23,0.37,1.00,0.88,-0.92,1.76,-0.05,0.05,-0.00,0.00
0.013,-0.23,0.36,1.03,0.88,-0.92,1.76,-0.05,0.05,-0.00,0.00
0.014,-0.23,0.36,1.03,0.88,-0.92,1.76,-0.08,0.03,-0.03,0.00
0.014,-0.23,0.36,1.03,0.89,-1.03,1.99,-0.08,0.03,-0.03,0.00
0.029,-0.25,0.37,1.01,0.89,-1.03,1.99,-0.08,0.03,-0.03,0.00
0.029,-0.25,0.37,1.01,0.89,-1.03,1.99,-0.10,-0.03,-0.04,0.00
0.03,-0.25,0.37,1.01,0.72,-0.97,1.85,-0.10,-0.03,-0.04,0.00
0.031,-0.26,0.37,0.96,0.72,-0.97,1.85,-0.10,-0.03,-0.04,0.00
0.032,-0.26,0.37,0.96,0.72,-0.97,1.85,-0.12,-0.13,-0.07,0.00
0.032,-0.26,0.37,0.96,0.65,-0.89,1.29,-0.12,-0.13,-0.07,0.00
0.039,-0.26,0.38,0.91,0.65,-0.89,1.29,-0.12,-0.13,-0.07,0.00
0.04,-0.26,0.38,0.91,0.65,-0.89,1.29,-0.14,-0.14,-0.10,0.00
0.041,-0.26,0.38,0.91,0.63,-0.84,0.80,-0.14,-0.14,-0.10,0.00
0.049,-0.26,0.40,0.88,0.63,-0.84,0.80,-0.14,-0.14,-0.10,0.00
0.05,-0.26,0.40,0.88,0.63,-0.84,0.80,-0.14,-0.06,-0.12,0.00
0.051,-0.26,0.40,0.88,0.60,-0.62,0.52,-0.14,-0.06,-0.12,0.00
0.069,-0.26,0.42,0.87,0.60,-0.62,0.52,-0.14,-0.06,-0.12,0.00
0.07,-0.26,0.42,0.87,0.60,-0.62,0.52,-0.12,0.04,-0.14,0.00
0.071,-0.26,0.42,0.87,0.66,-0.40,0.40,-0.12,0.04,-0.14,0.00
0.072,-0.27,0.43,0.85,0.66,-0.40,0.40,-0.12,0.04,-0.14,0.00
0.072,-0.27,0.43,0.85,0.66,-0.40,0.40,-0.07,0.10,-0.17,0.00
0.073,-0.27,0.43,0.85,0.58,-0.30,0.24,-0.07,0.10,-0.17,0.00
0.092,-0.27,0.45,0.85,0.58,-0.30,0.24,-0.07,0.10,-0.17,0.00
0.093,-0.27,0.45,0.85,0.58,-0.30,0.24,-0.01,0.11,-0.19,0.00
0.094,-0.27,0.45,0.85,0.57,-0.09,0.18,-0.01,0.11,-0.19,0.00
0.095,-0.28,0.47,0.82,0.57,-0.09,0.18,-0.01,0.11,-0.19,0.00
0.095,-0.28,0.47,0.82,0.57,-0.09,0.18,0.07,0.10,-0.20,0.00
0.096,-0.28,0.47,0.82,0.52,0.09,-0.09,0.07,0.10,-0.20,0.00
0.102,-0.26,0.48,0.79,0.52,0.09,-0.09,0.07,0.10,-0.20,0.00
0.103,-0.26,0.48,0.79,0.52,0.09,-0.09,0.14,0.08,-0.21,0.00
0.104,-0.26,0.48,0.79,0.67,0.19,-0.39,0.14,0.08,-0.21,0.00
0.11,-0.23,0.48,0.76,0.67,0.19,-0.39,0.14,0.08,-0.21,0.00
0.111,-0.23,0.48,0.76,0.67,0.19,-0.39,0.20,0.06,-0.21,0.00
0.111,-0.23,0.48,0.76,0.96,0.23,-0.62,0.20,0.06,-0.21,0.00
0.122,-0.23,0.48,0.75,0.96,0.23,-0.62,0.20,0.06,-0.21,0.00
0.123,-0.23,0.48,0.75,0.96,0.23,-0.62,0.24,0.05,-0.20,0.00
0.123,-0.23,0.48,0.75,1.04,0.22,-0.74,0.24,0.05,-0.20,0.00
0.13,-0.21,0.47,0.73,1.04,0.22,-0.74,0.24,0.05,-0.20,0.00
0.13,-0.21,0.47,0.73,1.04,0.22,-0.74,0.26,0.06,-0.18,0.00
0.131,-0.21,0.47,0.73,1.18,0.12,-0.89,0.26,0.06,-0.18,0.00
0.141,-0.22,0.47,0.72,1.18,0.12,-0.89,0.26,0.06,-0.18,0.00
0.142,-0.22,0.47,0.72,1.18,0.12,-0.89,0.27,0.10,-0.15,0.00
0.143,-0.22,0.47,0.72,1.17,0.04,-0.99,0.27,0.10,-0.15,0.00
0.151,-0.24,0.46,0.70,1.17,0.04,-0.99,0.27,0.10,-0.15,0.00
0.152,-0.24,0.46,0.70,1.17,0.04,-0.99,0.26,0.13,-0.12,0.00
0.153,-0.24,0.46,0.70,0.96,-0.02,-1.14,0.26,0.13,-0.12,0.00
0.172,-0.24,0.45,0.70,0.96,-0.02,-1.14,0.26,0.13,-0.12,0.00
0.173,-0.24,0.45,0.70,0.96,-0.02,-1.14,0.25,0.15,-0.08,0.00
0.174,-0.24,0.45,0.70,0.98,-0.18,-1.17,0.25,0.15,-0.08,0.00
0.175,-0.26,0.44,0.69,0.98,-0.18,-1.17,0.25,0.15,-0.08,0.00
0.175,-0.26,0.44,0.69,0.98,-0.18,-1.17,0.22,0.16,-0.06,0.00
0.176,-0.26,0.44,0.69,0.76,-0.27,-1.20,0.22,0.16,-0.06,0.00
0.194,-0.28,0.42,0.69,0.76,-0.27,-1.20,0.22,0.16,-0.06,0.00
0.195,-0.28,0.42,0.69,0.76,-0.27,-1.20,0.20,0.16,-0.04,0.00
0.196,-0.28,0.42,0.69,0.59,-0.46,-1.27,0.20,0.16,-0.04,0.00
0.197,-0.29,0.42,0.69,0.59,-0.46,-1.27,0.20,0.16,-0.04,0.00
0.198,-0.29,0.42,0.69,0.59,-0.46,-1.27,0.17,0.17,-0.02,0.00
0.199,-0.29,0.42,0.69,0.54,-0.50,-1.24,0.17,0.17,-0.02,0.00
0.2,-0.28,0.41,0.70,0.54,-0.50,-1.24,0.17,0.17,-0.02,0.00
0.201,-0.28,0.41,0.70,0.54,-0.50,-1.24,0.14,0.17,0.00,0.00
0.202,-0.28,0.41,0.70,0.58,-0.56,-1.09,0.14,0.17,0.00,0.00
0.223,-0.28,0.42,0.71,0.58,-0.56,-1.09,0.14,0.17,0.00,0.00
0.224,-0.28,0.42,0.71,0.58,-0.56,-1.09,0.11,0.15,0.01,0.00
0.225,-0.28,0.42,0.71,0.60,-0.49,-1.02,0.11,0.15,0.01,0.00
0.226,-0.27,0.44,0.71,0.60,-0.49,-1.02,0.11,0.15,0.01,0.00
0.226,-0.27,0.44,0.71,0.60,-0.49,-1.02,0.08,0.13,0.01,0.00
0.227,-0.27,0.44,0.71,0.70,-0.32,-0.94,0.08,0.13,0.01,0.00
0.229,-0.25,0.46,0.72,0.70,-0.32,-0.94,0.08,0.13,0.01,0.00
0.229,-0.25,0.46,0.72,0.70,-0.32,-0.94,0.07,0.10,0.01,0.00
0.23,-0.25,0.46,0.72,0.92,-0.14,-0.85,0.07,0.10,0.01,0.00
0.241,-0.24,0.48,0.73,0.92,-0.14,-0.85,0.07,0.10,0.01,0.00
0.242,-0.24,0.48,0.73,0.92,-0.14,-0.85,0.06,0.07,-0.00,0.00
0.243,-0.24,0.48,0.73,1.09,0.06,-0.78,0.06,0.07,-0.00,0.00
0.252,-0.22,0.50,0.74,1.09,0.06,-0.78,0.06,0.07,-0.00,0.00
0.252,-0.22,0.50,0.74,1.09,0.06,-0.78,0.06,0.05,-0.01,0.00
0.253,-0.22,0.50,0.74,1.22,0.21,-0.67,0.06,0.05,-0.01,0.00
0.274,-0.22,0.51,0.75,1.22,0.21,-0.67,0.06,0.05,-0.01,0.00
0.275,-0.22,0.51,0.75,1.22,0.21,-0.67,0.07,0.05,-0.02,0.00
0.276,-0.22,0.51,0.75,1.25,0.35,-0.62,0.07,0.05,-0.02,0.00
0.277,-0.22,0.53,0.74,1.25,0.35,-0.62,0.07,0.05,-0.02,0.00
0.278,-0.22,0.53,0.74,1.25,0.35,-0.62,0.08,0.05,-0.02,0.00
0.279,-0.22,0.53,0.74,1.22,0.54,-0.63,0.08,0.05,-0.02,0.00
0.28,-0.22,0.55,0.75,1.22,0.54,-0.63,0.08,0.05,-0.02,0.00
0.28,-0.22,0.55,0.75,1.22,0.54,-0.63,0.11,0.04,-0.02,0.00
0.281,-0.22,0.55,0.75,1.27,0.68,-0.53,0.11,0.04,-0.02,0.00
0.304,-0.23,0.57,0.76,1.27,0.68,-0.53,0.11,0.04,-0.02,0.00
0.306,-0.23,0.57,0.76,1.27,0.68,-0.53,0.12,0.03,-0.02,0.00
0.307,-0.23,0.57,0.76,1.22,0.87,-0.43,0.12,0.03,-0.02,0.00
0.307,-0.23,0.58,0.78,1.22,0.87,-0.43,0.12,0.03,-0.02,0.00
0.308,-0.23,0.58,0.78,1.22,0.87,-0.43,0.13,0.03,-0.01,0.00
0.309,-0.23,0.58,0.78,1.22,0.96,-0.28,0.13,0.03,-0.01,0.00
0.313,-0.24,0.58,0.79,1.22,0.96,-0.28,0.13,0.03,-0.01,0.00
0.314,-0.24,0.58,0.79,1.22,0.96,-0.28,0.14,0.03,-0.01,0.00
0.314,-0.24,0.58,0.79,1.09,1.02,-0.17,0.14,0.03,-0.01,0.00
0.339,-0.25,0.59,0.80,1.09,1.02,-0.17,0.14,0.03,-0.01,0.00
0.34,-0.25,0.59,0.80,1.09,1.02,-0.17,0.14,0.03,-0.01,0.00
0.341,-0.25,0.59,0.80,1.02,1.06,-0.06,0.14,0.03,-0.01,0.00
0.342,-0.26,0.60,0.81,1.02,1.06,-0.06,0.14,0.03,-0.01,0.00
0.342,-0.26,0.60,0.81,1.02,1.06,-0.06,0.13,0.04,-0.01,0.00
0.343,-0.26,0.60,0.81,0.89,1.14,0.04,0.13,0.04,-0.01,0.00
0.344,-0.28,0.60,0.83,0.89,1.14,0.04,0.13,0.04,-0.01,0.00
0.344,-0.28,0.60,0.83,0.89,1.14,0.04,0.11,0.05,-0.02,0.00
0.345,-0.28,0.60,0.83,0.73,1.17,0.23,0.11,0.05,-0.02,0.00
0.354,-0.29,0.60,0.85,0.73,1.17,0.23,0.11,0.05,-0.02,0.00
0.355,-0.29,0.60,0.85,0.73,1.17,0.23,0.08,0.05,-0.02,0.00
0.356,-0.29,0.60,0.85,0.56,1.14,0.49,0.08,0.05,-0.02,0.00
0.366,-0.30,0.60,0.88,0.56,1.14,0.49,0.08,0.05,-0.02,0.00
0.367,-0.30,0.60,0.88,0.56,1.14,0.49,0.05,0.04,-0.02,0.00
0.367,-0.30,0.60,0.88,0.48,1.11,0.76,0.05,0.04,-0.02,0.00
0.373,-0.30,0.59,0.90,0.48,1.11,0.76,0.05,0.04,-0.02,0.00
0.374,-0.30,0.59,0.90,0.48,1.11,0.76,0.03,0.02,-0.03,0.00
0.374,-0.30,0.59,0.90,0.50,1.07,0.98,0.03,0.02,-0.03,0.00
0.39,-0.30,0.58,0.92,0.50,1.07,0.98,0.03,0.02,-0.03,0.00
0.391,-0.30,0.58,0.92,0.50,1.07,0.98,0.03,-0.00,-0.05,0.00
0.392,-0.30,0.58,0.92,0.54,0.98,1.19,0.03,-0.00,-0.05,0.00
0.407,-0.31,0.58,0.94,0.54,0.98,1.19,0.03,-0.00,-0.05,0.00
0.408,-0.31,0.58,0.94,0.54,0.98,1.19,0.03,-0.01,-0.07,0.00
0.409,-0.31,0.58,0.94,0.40,0.97,1.32,0.03,-0.01,-0.07,0.00
0.41,-0.32,0.58,0.95,0.40,0.97,1.32,0.03,-0.01,-0.07,0.00
0.41,-0.32,0.58,0.95,0.40,0.97,1.32,0.05,-0.01,-0.09,0.00
0.411,-0.32,0.58,0.95,0.34,0.97,1.40,0.05,-0.01,-0.09,0.00
0.411,-0.32,0.60,0.96,0.34,0.97,1.40,0.05,-0.01,-0.09,0.00
0.412,-0.32,0.60,0.96,0.34,0.97,1.40,0.08,-0.01,-0.09,0.00
0.413,-0.32,0.60,0.96,0.28,1.14,1.55,0.08,-0.01,-0.09,0.00
0.428,-0.33,0.61,0.96,0.28,1.14,1.55,0.08,-0.01,-0.09,0.00
0.429,-0.33,0.61,0.96,0.28,1.14,1.55,0.11,-0.03,-0.09,0.00
0.43,-0.33,0.61,0.96,0.25,1.24,1.54,0.11,-0.03,-0.09,0.00
0.431,-0.35,0.62,0.94,0.25,1.24,1.54,0.11,-0.03,-0.09,0.00
0.431,-0.35,0.62,0.94,0.25,1.24,1.54,0.14,-0.04,-0.07,0.00
0.432,-0.35,0.62,0.94,0.00,1.32,1.38,0.14,-0.04,-0.07,0.00
0.443,-0.34,0.60,0.93,0.00,1.32,1.38,0.14,-0.04,-0.07,0.00
0.444,-0.34,0.60,0.93,0.00,1.32,1.38,0.15,-0.02,-0.05,0.00
0.444,-0.34,0.60,0.93,0.07,1.09,1.22,0.15,-0.02,-0.05,0.00
0.453,-0.35,0.56,0.92,0.07,1.09,1.22,0.15,-0.02,-0.05,0.00
0.454,-0.35,0.56,0.92,0.07,1.09,1.22,0.13,0.06,-0.02,0.00
0.455,-0.35,0.56,0.92,0.00,0.73,1.20,0.13,0.06,-0.02,0.00
0.49,-0.41,0.54,0.93,0.00,0.73,1.20,0.13,0.06,-0.02,0.00
0.491,-0.41,0.54,0.93,0.00,0.73,1.20,0.08,0.18,-0.02,0.00
0.492,-0.41,0.54,0.93,-0.53,0.50,1.29,0.08,0.18,-0.02,0.00
0.493,-0.48,0.55,0.92,-0.53,0.50,1.29,0.08,0.18,-0.02,0.00
0.494,-0.48,0.55,0.92,-0.53,0.50,1.29,0.05,0.29,-0.03,0.00
0.495,-0.48,0.55,0.92,-1.18,0.64,1.16,0.05,0.29,-0.03,0.00
0.496,-0.48,0.59,0.90,-1.18,0.64,1.16,0.05,0.29,-0.03,0.00
0.497,-0.48,0.59,0.90,-1.18,0.64,1.16,0.04,0.34,-0.02,0.00
0.498,-0.48,0.59,0.90,-1.23,0.94,1.06,0.04,0.34,-0.02,0.00
0.499,-0.48,0.60,0.91,-1.23,0.94,1.06,0.04,0.34,-0.02,0.00
0.502,-0.48,0.60,0.91,-1.23,0.94,1.06,0.03,0.31,-0.01,0.00
0.503,-0.48,0.60,0.91,-1.16,1.05,1.10,0.03,0.31,-0.01,0.00
0.504,-0.50,0.58,0.93,-1.16,1.05,1.10,0.03,0.31,-0.01,0.00
0.505,-0.50,0.58,0.93,-1.16,1.05,1.10,-0.01,0.27,-0.01,0.00
0.506,-0.50,0.58,0.93,-1.36,0.90,1.36,-0.01,0.27,-0.01,0.00
0.518,-0.52,0.56,0.95,-1.36,0.90,1.36,-0.01,0.27,-0.01,0.00
0.52,-0.52,0.56,0.95,-1.36,0.90,1.36,-0.04,0.24,0.01,0.00
0.521,-0.52,0.56,0.95,-1.52,0.73,1.53,-0.04,0.24,0.01,0.00
0.522,-0.49,0.52,0.96,-1.52,0.73,1.53,-0.04,0.24,0.01,0.00
0.523,-0.49,0.52,0.96,-1.52,0.73,1.53,-0.05,0.22,0.03,0.00
0.523,-0.49,0.52,0.96,-1.20,0.30,1.62,-0.05,0.22,0.03,0.00
0.534,-0.46,0.48,0.95,-1.20,0.30,1.62,-0.05,0.22,0.03,0.00
0.535,-0.46,0.48,0.95,-1.20,0.30,1.62,-0.05,0.18,0.06,0.00
0.536,-0.46,0.48,0.95,-0.93,-0.08,1.54,-0.05,0.18,0.06,0.00
0.545,-0.43,0.45,0.96,-0.93,-0.08,1.54,-0.05,0.18,0.06,0.00
0.546,-0.43,0.45,0.96,-0.93,-0.08,1.54,-0.05,0.15,0.08,0.00
0.546,-0.43,0.45,0.96,-0.57,-0.36,1.62,-0.05,0.15,0.08,0.00
0.553,-0.39,0.42,0.96,-0.57,-0.36,1.62,-0.05,0.15,0.08,0.00
0.554,-0.39,0.42,0.96,-0.57,-0.36,1.62,-0.05,0.15,0.11,0.00
0.555,-0.39,0.42,0.96,-0.25,-0.64,1.62,-0.05,0.15,0.11,0.00
0.57,-0.39,0.39,0.97,-0.25,-0.64,1.62,-0.05,0.15,0.11,0.00
0.571,-0.39,0.39,0.97,-0.25,-0.64,1.62,-0.05,0.20,0.14,0.00
0.571,-0.39,0.39,0.97,-0.21,-0.96,1.76,-0.05,0.20,0.14,0.00
0.572,-0.40,0.37,0.97,-0.21,-0.96,1.76,-0.05,0.20,0.14,0.00
0.577,-0.40,0.37,0.97,-0.21,-0.96,1.76,-0.03,0.25,0.15,0.00
0.577,-0.40,0.37,0.97,-0.32,-1.16,1.73,-0.03,0.25,0.15,0.00
0.583,-0.41,0.36,0.93,-0.32,-1.16,1.73,-0.03,0.25,0.15,0.00
0.583,-0.41,0.36,0.93,-0.32,-1.16,1.73,-0.00,0.27,0.16,0.00
0.584,-0.41,0.36,0.93,-0.34,-1.30,1.38,-0.00,0.27,0.16,0.00
0.596,-0.40,0.35,0.91,-0.34,-1.30,1.38,-0.00,0.27,0.16,0.00
0.596,-0.40,0.35,0.91,-0.34,-1.30,1.38,0.02,0.27,0.16,0.00
0.597,-0.40,0.35,0.91,-0.31,-1.41,1.21,0.02,0.27,0.16,0.00
0.605,-0.42,0.34,0.89,-0.31,-1.41,1.21,0.02,0.27,0.16,0.00
0.606,-0.42,0.34,0.89,-0.31,-1.41,1.21,0.02,0.27,0.16,0.00
0.607,-0.42,0.34,0.89,-0.43,-1.51,1.00,0.02,0.27,0.16,0.00
0.615,-0.43,0.34,0.87,-0.43,-1.51,1.00,0.02,0.27,0.16,0.00
0.616,-0.43,0.34,0.87,-0.43,-1.51,1.00,0.02,0.26,0.15,0.00
0.618,-0.43,0.34,0.87,-0.57,-1.47,0.84,0.02,0.26,0.15,0.00
0.627,-0.44,0.35,0.84,-0.57,-1.47,0.84,0.02,0.26,0.15,0.00
0.629,-0.44,0.35,0.84,-0.57,-1.47,0.84,0.02,0.25,0.14,0.00
0.63,-0.44,0.35,0.84,-0.65,-1.39,0.53,0.02,0.25,0.14,0.00
0.631,-0.45,0.37,0.81,-0.65,-1.39,0.53,0.02,0.25,0.14,0.00
0.633,-0.45,0.37,0.81,-0.65,-1.39,0.53,-0.00,0.22,0.13,0.00
0.634,-0.45,0.37,0.81,-0.69,-1.23,0.25,-0.00,0.22,0.13,0.00
0.647,-0.44,0.39,0.79,-0.69,-1.23,0.25,-0.00,0.22,0.13,0.00
0.649,-0.44,0.39,0.79,-0.69,-1.23,0.25,-0.04,0.18,0.12,0.00
0.65,-0.44,0.39,0.79,-0.58,-1.01,0.08,-0.04,0.18,0.12,0.00
0.66,-0.42,0.41,0.79,-0.58,-1.01,0.08,-0.04,0.18,0.12,0.00
0.661,-0.42,0.41,0.79,-0.58,-1.01,0.08,-0.09,0.13,0.11,0.00
0.662,-0.42,0.41,0.79,-0.43,-0.80,0.00,-0.09,0.13,0.11,0.00
0.664,-0.39,0.43,0.79,-0.43,-0.80,0.00,-0.09,0.13,0.11,0.00
0.665,-0.39,0.43,0.79,-0.43,-0.80,0.00,-0.14,0.09,0.12,0.00
0.666,-0.39,0.43,0.79,-0.17,-0.59,0.04,-0.14,0.09,0.12,0.00
0.692,-0.37,0.45,0.77,-0.17,-0.59,0.04,-0.14,0.09,0.12,0.00
0.693,-0.37,0.45,0.77,-0.17,-0.59,0.04,-0.18,0.05,0.13,0.00
0.694,-0.37,0.45,0.77,0.08,-0.36,-0.13,-0.18,0.05,0.13,0.00
0.695,-0.35,0.46,0.75,0.08,-0.36,-0.13,-0.18,0.05,0.13,0.00
0.696,-0.35,0.46,0.75,0.08,-0.36,-0.13,-0.20,-0.01,0.14,0.00
0.696,-0.35,0.46,0.75,0.30,-0.31,-0.35,-0.20,-0.01,0.14,0.00
0.697,-0.32,0.46,0.74,0.30,-0.31,-0.35,-0.20,-0.01,0.14,0.00
0.698,-0.32,0.46,0.74,0.30,-0.31,-0.35,-0.20,-0.05,0.16,0.00
0.699,-0.32,0.46,0.74,0.50,-0.23,-0.50,-0.20,-0.05,0.16,0.00
0.709,-0.30,0.46,0.72,0.50,-0.23,-0.50,-0.20,-0.05,0.16,0.00
0.71,-0.30,0.46,0.72,0.50,-0.23,-0.50,-0.20,-0.06,0.18,0.00
0.711,-0.30,0.46,0.72,0.68,-0.25,-0.67,-0.20,-0.06,0.18,0.00
0.716,-0.29,0.45,0.71,0.68,-0.25,-0.67,-0.20,-0.06,0.18,0.00
0.717,-0.29,0.45,0.71,0.68,-0.25,-0.67,-0.18,-0.04,0.20,0.00
0.718,-0.29,0.45,0.71,0.80,-0.39,-0.76,-0.18,-0.04,0.20,0.00
0.726,-0.28,0.45,0.72,0.80,-0.39,-0.76,-0.18,-0.04,0.20,0.00
0.727,-0.28,0.45,0.72,0.80,-0.39,-0.76,-0.15,0.00,0.22,0.00
0.728,-0.28,0.45,0.72,0.85,-0.39,-0.71,-0.15,0.00,0.22,0.00
0.735,-0.28,0.45,0.70,0.85,-0.39,-0.71,-0.15,0.00,0.22,0.00
0.736,-0.28,0.45,0.70,0.85,-0.39,-0.71,-0.11,0.02,0.22,0.00
0.736,-0.28,0.45,0.70,0.85,-0.39,-0.87,-0.11,0.02,0.22,0.00
0.752,-0.29,0.45,0.69,0.85,-0.39,-0.87,-0.11,0.02,0.22,0.00
0.754,-0.29,0.45,0.69,0.85,-0.39,-0.87,-0.08,0.04,0.23,0.00
0.755,-0.29,0.45,0.69,0.79,-0.32,-0.99,-0.08,0.04,0.23,0.00
0.756,-0.29,0.46,0.69,0.79,-0.32,-0.99,-0.08,0.04,0.23,0.00
0.756,-0.29,0.46,0.69,0.79,-0.32,-0.99,-0.05,0.05,0.23,0.00
0.757,-0.29,0.46,0.69,0.71,-0.28,-0.99,-0.05,0.05,0.23,0.00
0.766,-0.29,0.45,0.69,0.71,-0.28,-0.99,-0.05,0.05,0.23,0.00
0.766,-0.29,0.45,0.69,0.71,-0.28,-0.99,-0.03,0.05,0.23,0.00
0.767,-0.29,0.45,0.69,0.71,-0.36,-1.00,-0.03,0.05,0.23,0.00
0.777,-0.29,0.45,0.68,0.71,-0.36,-1.00,-0.03,0.05,0.23,0.00
0.778,-0.29,0.45,0.68,0.71,-0.36,-1.00,-0.02,0.04,0.23,0.00
0.779,-0.29,0.45,0.68,0.75,-0.33,-1.14,-0.02,0.04,0.23,0.00
0.786,-0.29,0.46,0.66,0.75,-0.33,-1.14,-0.02,0.04,0.23,0.00
0.787,-0.29,0.46,0.66,0.75,-0.33,-1.14,-0.01,0.04,0.22,0.00
0.788,-0.29,0.46,0.66,0.78,-0.32,-1.35,-0.01,0.04,0.22,0.00
0.809,-0.30,0.46,0.64,0.78,-0.32,-1.35,-0.01,0.04,0.22,0.00
0.81,-0.30,0.46,0.64,0.78,-0.32,-1.35,-0.01,0.04,0.21,0.00
0.811,-0.30,0.46,0.64,0.67,-0.32,-1.46,-0.01,0.04,0.21,0.00
0.812,-0.29,0.46,0.65,0.67,-0.32,-1.46,-0.01,0.04,0.21,0.00
0.813,-0.29,0.46,0.65,0.67,-0.32,-1.46,-0.01,0.05,0.19,0.00
0.814,-0.29,0.46,0.65,0.68,-0.33,-1.40,-0.01,0.05,0.19,0.00
0.815,-0.30,0.45,0.67,0.68,-0.33,-1.40,-0.01,0.05,0.19,0.00
0.816,-0.30,0.45,0.67,0.68,-0.33,-1.40,-0.03,0.04,0.18,0.00
0.817,-0.30,0.45,0.67,0.63,-0.36,-1.25,-0.03,0.04,0.18,0.00
0.828,-0.31,0.45,0.67,0.63,-0.36,-1.25,-0.03,0.04,0.18,0.00
0.829,-0.31,0.45,0.67,0.63,-0.36,-1.25,-0.04,0.04,0.17,0.00
0.831,-0.31,0.45,0.67,0.50,-0.35,-1.19,-0.04,0.04,0.17,0.00
0.837,-0.32,0.45,0.68,0.50,-0.35,-1.19,-0.04,0.04,0.17,0.00
0.838,-0.32,0.45,0.68,0.50,-0.35,-1.19,-0.05,0.01,0.15,0.00
0.839,-0.32,0.45,0.68,0.45,-0.38,-1.15,-0.05,0.01,0.15,0.00
0.846,-0.33,0.45,0.69,0.45,-0.38,-1.15,-0.05,0.01,0.15,0.00
0.848,-0.33,0.45,0.69,0.45,-0.38,-1.15,-0.06,0.00,0.14,0.00
0.848,-0.33,0.45,0.69,0.32,-0.37,-1.03,-0.06,0.00,0.14,0.00
0.857,-0.32,0.47,0.68,0.32,-0.37,-1.03,-0.06,0.00,0.14,0.00
0.858,-0.32,0.47,0.68,0.32,-0.37,-1.03,-0.06,0.00,0.14,0.00
0.859,-0.32,0.47,0.68,0.36,-0.23,-1.08,-0.06,0.00,0.14,0.00
0.866,-0.32,0.48,0.71,0.36,-0.23,-1.08,-0.06,0.00,0.14,0.00
0.867,-0.32,0.48,0.71,0.36,-0.23,-1.08,-0.06,0.02,0.14,0.00
0.868,-0.32,0.48,0.71,0.35,-0.08,-0.88,-0.06,0.02,0.14,0.00
0.876,-0.33,0.49,0.72,0.35,-0.08,-0.88,-0.06,0.02,0.14,0.00
0.877,-0.33,0.49,0.72,0.35,-0.08,-0.88,-0.07,0.03,0.13,0.00
0.877,-0.33,0.49,0.72,0.30,-0.04,-0.73,-0.07,0.03,0.13,0.00
0.887,-0.34,0.50,0.72,0.30,-0.04,-0.73,-0.07,0.03,0.13,0.00
0.888,-0.34,0.50,0.72,0.30,-0.04,-0.73,-0.07,0.05,0.12,0.00
0.889,-0.34,0.50,0.72,0.23,0.07,-0.77,-0.07,0.05,0.12,0.00
0.902,-0.34,0.51,0.72,0.23,0.07,-0.77,-0.07,0.05,0.12,0.00
0.904,-0.34,0.51,0.72,0.23,0.07,-0.77,-0.06,0.06,0.10,0.00
0.905,-0.34,0.51,0.72,0.17,0.21,-0.71,-0.06,0.06,0.10,0.00
0.908,-0.36,0.52,0.72,0.17,0.21,-0.71,-0.06,0.06,0.10,0.00
0.909,-0.36,0.52,0.72,0.17,0.21,-0.71,-0.04,0.08,0.08,0.00
0.909,-0.36,0.52,0.72,-0.01,0.30,-0.73,-0.04,0.08,0.08,0.00
0.917,-0.36,0.54,0.72,-0.01,0.30,-0.73,-0.04,0.08,0.08,0.00
0.918,-0.36,0.54,0.72,-0.01,0.30,-0.73,-0.02,0.09,0.07,0.00
0.918,-0.36,0.54,0.72,-0.05,0.50,-0.76,-0.02,0.09,0.07,0.00
0.928,-0.36,0.56,0.73,-0.05,0.50,-0.76,-0.02,0.09,0.07,0.00
0.929,-0.36,0.56,0.73,-0.05,0.50,-0.76,0.00,0.08,0.07,0.00
0.93,-0.36,0.56,0.73,-0.05,0.73,-0.68,0.00,0.08,0.07,0.00
0.937,-0.36,0.58,0.75,-0.05,0.73,-0.68,0.00,0.08,0.07,0.00
0.938,-0.36,0.58,0.75,-0.05,0.73,-0.68,0.02,0.07,0.07,0.00
0.938,-0.36,0.58,0.75,-0.06,0.87,-0.42,0.02,0.07,0.07,0.00
0.947,-0.37,0.58,0.78,-0.06,0.87,-0.42,0.02,0.07,0.07,0.00
0.949,-0.37,0.58,0.78,-0.06,0.87,-0.42,0.04,0.06,0.08,0.00
0.949,-0.37,0.58,0.78,-0.14,0.92,-0.19,0.04,0.06,0.08,0.00
0.957,-0.37,0.59,0.80,-0.14,0.92,-0.19,0.04,0.06,0.08,0.00
0.958,-0.37,0.59,0.80,-0.14,0.92,-0.19,0.04,0.06,0.09,0.00
0.959,-0.37,0.59,0.80,-0.10,0.97,0.04,0.04,0.06,0.09,0.00
0.968,-0.37,0.59,0.81,-0.10,0.97,0.04,0.04,0.06,0.09,0.00
0.968,-0.37,0.59,0.81,-0.10,0.97,0.04,0.03,0.04,0.09,0.00
0.969,-0.37,0.59,0.81,-0.15,0.95,0.20,0.03,0.04,0.09,0.00
0.979,-0.39,0.58,0.84,-0.15,0.95,0.20,0.03,0.04,0.09,0.00
0.981,-0.39,0.58,0.84,-0.15,0.95,0.20,0.02,0.02,0.09,0.00
0.981,-0.39,0.58,0.84,-0.29,0.84,0.42,0.02,0.02,0.09,0.00
0.993,-0.40,0.58,0.84,-0.29,0.84,0.42,0.02,0.02,0.09,0.00
0.995,-0.40,0.58,0.84,-0.29,0.84,0.42,0.00,-0.01,0.09,0.00
0.995,-0.40,0.58,0.84,-0.43,0.89,0.50,0.00,-0.01,0.09,0.00
0.996,-0.41,0.58,0.86,-0.43,0.89,0.50,0.00,-0.01,0.09,0.00
0.997,-0.41,0.58,0.86,-0.43,0.89,0.50,-0.01,-0.06,0.09,0.00
0.998,-0.41,0.58,0.86,-0.53,0.89,0.66,-0.01,-0.06,0.09,0.00
1.02,-0.41,0.60,0.87,-0.53,0.89,0.66,-0.01,-0.06,0.09,0.00
1.021,-0.41,0.60,0.87,-0.53,0.89,0.66,-0.01,-0.11,0.10,0.00
1.022,-0.41,0.60,0.87,-0.55,1.00,0.69,-0.01,-0.11,0.10,0.00
1.023,-0.44,0.61,0.86,-0.55,1.00,0.69,-0.01,-0.11,0.10,0.00
1.024,-0.44,0.61,0.86,-0.55,1.00,0.69,0.00,-0.14,0.10,0.00
1.025,-0.44,0.61,0.86,-0.80,1.17,0.59,0.00,-0.14,0.10,0.00
1.028,-0.43,0.60,0.83,-0.80,1.17,0.59,0.00,-0.14,0.10,0.00
1.029,-0.43,0.60,0.83,-0.80,1.17,0.59,-0.03,-0.16,0.11,0.00
1.029,-0.43,0.60,0.83,-0.79,1.05,0.37,-0.03,-0.16,0.11,0.00
1.042,-0.45,0.57,0.84,-0.79,1.05,0.37,-0.03,-0.16,0.11,0.00
1.043,-0.45,0.57,0.84,-0.79,1.05,0.37,-0.12,-0.14,0.12,0.00
1.044,-0.45,0.57,0.84,-0.98,0.76,0.46,-0.12,-0.14,0.12,0.00
1.05,-0.48,0.53,0.88,-0.98,0.76,0.46,-0.12,-0.14,0.12,0.00
1.051,-0.48,0.53,0.88,-0.98,0.76,0.46,-0.27,-0.07,0.11,0.00
1.051,-0.48,0.53,0.88,-1.28,0.40,0.84,-0.27,-0.07,0.11,0.00
1.061,-0.50,0.50,0.94,-1.28,0.40,0.84,-0.27,-0.07,0.11,0.00
1.062,-0.50,0.50,0.94,-1.28,0.40,0.84,-0.45,-0.01,0.09,0.00
1.063,-0.50,0.50,0.94,-1.48,0.14,1.37,-0.45,-0.01,0.09,0.00
1.069,-0.50,0.49,0.97,-1.48,0.14,1.37,-0.45,-0.01,0.09,0.00
1.07,-0.50,0.49,0.97,-1.48,0.14,1.37,-0.61,-0.00,0.08,0.00
1.071,-0.50,0.49,0.97,-1.46,0.09,1.67,-0.61,-0.00,0.08,0.00
1.079,-0.49,0.49,1.01,-1.46,0.09,1.67,-0.61,-0.00,0.08,0.00
1.081,-0.49,0.49,1.01,-1.46,0.09,1.67,-0.74,-0.03,0.08,0.00
1.082,-0.49,0.49,1.01,-1.36,0.07,1.98,-0.74,-0.03,0.08,0.00
1.092,-0.46,0.48,1.03,-1.36,0.07,1.98,-0.74,-0.03,0.08,0.00
1.093,-0.46,0.48,1.03,-1.36,0.07,1.98,-0.82,-0.10,0.10,0.00
1.094,-0.46,0.48,1.03,-1.11,0.06,2.12,-0.82,-0.10,0.10,0.00
1.101,-0.41,0.49,1.05,-1.11,0.06,2.12,-0.82,-0.10,0.10,0.00
1.102,-0.41,0.49,1.05,-1.11,0.06,2.12,-0.84,-0.19,0.12,0.00
1.103,-0.41,0.49,1.05,-0.65,0.21,2.25,-0.84,-0.19,0.12,0.00
1.11,-0.35,0.50,1.08,-0.65,0.21,2.25,-0.84,-0.19,0.12,0.00
1.111,-0.35,0.50,1.08,-0.65,0.21,2.25,-0.81,-0.25,0.13,0.00
1.112,-0.35,0.50,1.08,-0.07,0.44,2.51,-0.81,-0.25,0.13,0.00
1.12,-0.30,0.52,1.10,-0.07,0.44,2.51,-0.81,-0.25,0.13,0.00
1.12,-0.30,0.52,1.10,-0.07,0.44,2.51,-0.73,-0.27,0.12,0.00
1.121,-0.30,0.52,1.10,0.34,0.66,2.71,-0.73,-0.27,0.12,0.00
1.14,-0.26,0.53,1.08,0.34,0.66,2.71,-0.73,-0.27,0.12,0.00
1.141,-0.26,0.53,1.08,0.34,0.66,2.71,-0.61,-0.27,0.07,0.00
1.142,-0.26,0.53,1.08,0.71,0.84,2.43,-0.61,-0.27,0.07,0.00
1.143,-0.22,0.55,1.04,0.71,0.84,2.43,-0.61,-0.27,0.07,0.00
1.143,-0.22,0.55,1.04,0.71,0.84,2.43,-0.49,-0.24,0.01,0.00
1.144,-0.22,0.55,1.04,1.12,1.01,2.06,-0.49,-0.24,0.01,0.00
1.15,-0.22,0.56,1.00,1.12,1.01,2.06,-0.49,-0.24,0.01,0.00
1.151,-0.22,0.56,1.00,1.12,1.01,2.06,-0.39,-0.14,-0.04,0.00
1.151,-0.22,0.56,1.00,1.13,1.15,1.59,-0.39,-0.14,-0.04,0.00
1.16,-0.25,0.59,1.01,1.13,1.15,1.59,-0.39,-0.14,-0.04,0.00
1.161,-0.25,0.59,1.01,1.13,1.15,1.59,-0.30,0.02,-0.06,0.00
1.162,-0.25,0.59,1.01,0.86,1.46,1.67,-0.30,0.02,-0.06,0.00
1.17,-0.26,0.57,0.88,0.86,1.46,1.67,-0.30,0.02,-0.06,0.00
1.171,-0.26,0.57,0.88,0.86,1.46,1.67,-0.23,0.26,-0.05,0.00
1.172,-0.26,0.57,0.88,0.74,1.28,0.47,-0.23,0.26,-0.05,0.00
1.18,-0.29,0.51,1.07,0.74,1.28,0.47,-0.23,0.26,-0.05,0.00
1.181,-0.29,0.51,1.07,0.74,1.28,0.47,-0.19,0.42,0.01,0.00
1.182,-0.29,0.51,1.07,0.53,0.71,2.33,-0.19,0.42,0.01,0.00
1.192,-0.27,0.49,1.08,0.53,0.71,2.33,-0.19,0.42,0.01,0.00
1.193,-0.27,0.49,1.08,0.53,0.71,2.33,-0.19,0.24,-0.00,0.00
1.194,-0.27,0.49,1.08,0.66,0.60,2.38,-0.19,0.24,-0.00,0.00
1.2,-0.29,0.42,1.08,0.66,0.60,2.38,-0.19,0.24,-0.00,0.00
1.201,-0.29,0.42,1.08,0.66,0.60,2.38,-0.18,0.09,-0.00,0.00
1.201,-0.29,0.42,1.08,0.55,-0.09,2.36,-0.18,0.09,-0.00,0.00
1.212,-0.28,0.37,1.02,0.55,-0.09,2.36,-0.18,0.09,-0.00,0.00
1.213,-0.28,0.37,1.02,0.55,-0.09,2.36,-0.17,0.03,0.02,0.00
1.214,-0.28,0.37,1.02,0.59,-0.57,1.81,-0.17,0.03,0.02,0.00
1.221,-0.27,0.34,0.97,0.59,-0.57,1.81,-0.17,0.03,0.02,0.00
1.221,-0.27,0.34,0.97,0.59,-0.57,1.81,-0.16,-0.01,0.03,0.00
1.222,-0.27,0.34,0.97,0.73,-0.89,1.27,-0.16,-0.01,0.03,0.00
1.242,-0.24,0.32,0.92,0.73,-0.89,1.27,-0.16,-0.01,0.03,0.00
1.243,-0.24,0.32,0.92,0.73,-0.89,1.27,-0.14,-0.01,0.02,0.00
1.244,-0.24,0.32,0.92,0.96,-1.08,0.80,-0.14,-0.01,0.02,0.00
1.245,-0.24,0.30,0.90,0.96,-1.08,0.80,-0.14,-0.01,0.02,0.00
1.246,-0.24,0.30,0.90,0.96,-1.08,0.80,-0.14,0.03,-0.01,0.00
1.247,-0.24,0.30,0.90,0.99,-1.20,0.65,-0.14,0.03,-0.01,0.00
1.251,-0.23,0.30,0.90,0.99,-1.20,0.65,-0.14,0.03,-0.01,0.00
1.252,-0.23,0.30,0.90,0.99,-1.20,0.65,-0.13,0.08,-0.05,0.00
1.253,-0.23,0.30,0.90,1.10,-1.19,0.58,-0.13,0.08,-0.05,0.00
1.26,-0.23,0.30,0.89,1.10,-1.19,0.58,-0.13,0.08,-0.05,0.00
1.261,-0.23,0.30,0.89,1.10,-1.19,0.58,-0.13,0.13,-0.09,0.00
1.262,-0.23,0.30,0.89,1.14,-1.18,0.49,-0.13,0.13,-0.09,0.00
1.27,-0.24,0.31,0.88,1.14,-1.18,0.49,-0.13,0.13,-0.09,0.00
1.271,-0.24,0.31,0.88,1.14,-1.18,0.49,-0.14,0.15,-0.13,0.00
1.272,-0.24,0.31,0.88,1.07,-1.15,0.43,-0.14,0.15,-0.13,0.00
1.282,-0.25,0.30,0.87,1.07,-1.15,0.43,-0.14,0.15,-0.13,0.00
1.283,-0.25,0.30,0.87,1.07,-1.15,0.43,-0.16,0.13,-0.16,0.00
1.283,-0.25,0.30,0.87,0.95,-1.16,0.35,-0.16,0.13,-0.16,0.00
1.292,-0.25,0.31,0.86,0.95,-1.16,0.35,-0.16,0.13,-0.16,0.00
1.293,-0.25,0.31,0.86,0.95,-1.16,0.35,-0.17,0.09,-0.18,0.00
1.294,-0.25,0.31,0.86,0.99,-1.08,0.18,-0.17,0.09,-0.18,0.00
1.299,-0.23,0.31,0.82,0.99,-1.08,0.18,-0.17,0.09,-0.18,0.00
1.3,-0.23,0.31,0.82,0.99,-1.08,0.18,-0.18,0.04,-0.19,0.00
1.301,-0.23,0.31,0.82,1.18,-1.01,-0.22,-0.18,0.04,-0.19,0.00
1.311,-0.21,0.32,0.78,1.18,-1.01,-0.22,-0.18,0.04,-0.19,0.00
1.312,-0.21,0.32,0.78,1.18,-1.01,-0.22,-0.18,-0.01,-0.20,0.00
1.313,-0.21,0.32,0.78,1.36,-0.95,-0.57,-0.18,-0.01,-0.20,0.00
1.341,-0.20,0.33,0.75,1.36,-0.95,-0.57,-0.18,-0.01,-0.20,0.00
1.342,-0.20,0.33,0.75,1.36,-0.95,-0.57,-0.17,-0.03,-0.22,0.00
1.343,-0.20,0.33,0.75,1.46,-0.85,-0.86,-0.17,-0.03,-0.22,0.00
1.344,-0.21,0.33,0.75,1.46,-0.85,-0.86,-0.17,-0.03,-0.22,0.00
1.344,-0.21,0.33,0.75,1.46,-0.85,-0.86,-0.16,-0.02,-0.23,0.00
1.345,-0.21,0.33,0.75,1.43,-0.82,-0.94,-0.16,-0.02,-0.23,0.00
1.346,-0.20,0.34,0.74,1.43,-0.82,-0.94,-0.16,-0.02,-0.23,0.00
1.347,-0.20,0.34,0.74,1.43,-0.82,-0.94,-0.13,0.00,-0.25,0.00
1.348,-0.20,0.34,0.74,1.49,-0.64,-1.03,-0.13,0.00,-0.25,0.00
1.349,-0.21,0.36,0.72,1.49,-0.64,-1.03,-0.13,0.00,-0.25,0.00
1.352,-0.21,0.36,0.72,1.49,-0.64,-1.03,-0.10,0.02,-0.28,0.00
1.352,-0.21,0.36,0.72,1.41,-0.43,-1.19,-0.10,0.02,-0.28,0.00
1.362,-0.22,0.38,0.70,1.41,-0.43,-1.19,-0.10,0.02,-0.28,0.00
1.363,-0.22,0.38,0.70,1.41,-0.43,-1.19,-0.08,0.03,-0.30,0.00
1.364,-0.22,0.38,0.70,1.34,-0.30,-1.36,-0.08,0.03,-0.30,0.00
1.372,-0.21,0.37,0.71,1.34,-0.30,-1.36,-0.08,0.03,-0.30,0.00
1.373,-0.21,0.37,0.71,1.34,-0.30,-1.36,-0.05,0.05,-0.32,0.00
1.373,-0.21,0.37,0.71,1.40,-0.31,-1.35,-0.05,0.05,-0.32,0.00
1.379,-0.23,0.37,0.70,1.40,-0.31,-1.35,-0.05,0.05,-0.32,0.00
1.38,-0.23,0.37,0.70,1.40,-0.31,-1.35,-0.04,0.07,-0.34,0.00
1.381,-0.23,0.37,0.70,1.31,-0.28,-1.43,-0.04,0.07,-0.34,0.00
1.392,-0.25,0.37,0.71,1.31,-0.28,-1.43,-0.04,0.07,-0.34,0.00
1.393,-0.25,0.37,0.71,1.31,-0.28,-1.43,-0.03,0.08,-0.35,0.00
1.394,-0.25,0.37,0.71,1.12,-0.32,-1.33,-0.03,0.08,-0.35,0.00
1.4,-0.26,0.36,0.70,1.12,-0.32,-1.33,-0.03,0.08,-0.35,0.00
1.401,-0.26,0.36,0.70,1.12,-0.32,-1.33,-0.03,0.10,-0.35,0.00
1.401,-0.26,0.36,0.70,1.01,-0.35,-1.36,-0.03,0.10,-0.35,0.00
1.411,-0.27,0.36,0.70,1.01,-0.35,-1.36,-0.03,0.10,-0.35,0.00
1.412,-0.27,0.36,0.70,1.01,-0.35,-1.36,-0.04,0.12,-0.34,0.00
1.412,-0.27,0.36,0.70,0.95,-0.39,-1.43,-0.04,0.12,-0.34,0.00
1.421,-0.28,0.35,0.71,0.95,-0.39,-1.43,-0.04,0.12,-0.34,0.00
1.421,-0.28,0.35,0.71,0.95,-0.39,-1.43,-0.05,0.12,-0.32,0.00
1.422,-0.28,0.35,0.71,0.89,-0.51,-1.33,-0.05,0.12,-0.32,0.00
1.431,-0.27,0.34,0.72,0.89,-0.51,-1.33,-0.05,0.12,-0.32,0.00
1.432,-0.27,0.34,0.72,0.89,-0.51,-1.33,-0.08,0.13,-0.30,0.00
1.432,-0.27,0.34,0.72,0.94,-0.55,-1.20,-0.08,0.13,-0.30,0.00
1.452,-0.29,0.34,0.72,0.94,-0.55,-1.20,-0.08,0.13,-0.30,0.00
1.453,-0.29,0.34,0.72,0.94,-0.55,-1.20,-0.10,0.14,-0.29,0.00
1.454,-0.29,0.34,0.72,0.85,-0.53,-1.16,-0.10,0.14,-0.29,0.00
1.455,-0.29,0.35,0.72,0.85,-0.53,-1.16,-0.10,0.14,-0.29,0.00
1.455,-0.29,0.35,0.72,0.85,-0.53,-1.16,-0.13,0.15,-0.27,0.00
1.456,-0.29,0.35,0.72,0.86,-0.46,-1.16,-0.13,0.15,-0.27,0.00
1.465,-0.30,0.35,0.74,0.86,-0.46,-1.16,-0.13,0.15,-0.27,0.00
1.466,-0.30,0.35,0.74,0.86,-0.46,-1.16,-0.15,0.16,-0.26,0.00
1.467,-0.30,0.35,0.74,0.78,-0.39,-0.98,-0.15,0.16,-0.26,0.00
1.471,-0.28,0.37,0.74,0.78,-0.39,-0.98,-0.15,0.16,-0.26,0.00
1.472,-0.28,0.37,0.74,0.78,-0.39,-0.98,-0.16,0.16,-0.25,0.00
1.473,-0.28,0.37,0.74,0.92,-0.21,-0.98,-0.16,0.16,-0.25,0.00
1.482,-0.27,0.39,0.73,0.92,-0.21,-0.98,-0.16,0.16,-0.25,0.00
1.483,-0.27,0.39,0.73,0.92,-0.21,-0.98,-0.17,0.16,-0.25,0.00
1.483,-0.27,0.39,0.73,1.06,0.03,-1.07,-0.17,0.16,-0.25,0.00
1.492,-0.28,0.41,0.73,1.06,0.03,-1.07,-0.17,0.16,-0.25,0.00
1.493,-0.28,0.41,0.73,1.06,0.03,-1.07,-0.18,0.18,-0.25,0.00
1.494,-0.28,0.41,0.73,1.04,0.25,-1.08,-0.18,0.18,-0.25,0.00
1.501,-0.30,0.42,0.74,1.04,0.25,-1.08,-0.18,0.18,-0.25,0.00
1.503,-0.30,0.42,0.74,1.04,0.25,-1.08,-0.18,0.20,-0.25,0.00
1.504,-0.30,0.42,0.74,0.83,0.37,-0.98,-0.18,0.20,-0.25,0.00
1.511,-0.31,0.43,0.75,0.83,0.37,-0.98,-0.18,0.20,-0.25,0.00
1.512,-0.31,0.43,0.75,0.83,0.37,-0.98,-0.17,0.22,-0.25,0.00
1.513,-0.31,0.43,0.75,0.77,0.53,-0.94,-0.17,0.22,-0.25,0.00
1.522,-0.31,0.45,0.75,0.77,0.53,-0.94,-0.17,0.22,-0.25,0.00
1.523,-0.31,0.45,0.75,0.77,0.53,-0.94,-0.16,0.24,-0.24,0.00
1.524,-0.31,0.45,0.75,0.83,0.67,-0.93,-0.16,0.24,-0.24,0.00
1.533,-0.31,0.47,0.75,0.83,0.67,-0.93,-0.16,0.24,-0.24,0.00
1.534,-0.31,0.47,0.75,0.83,0.67,-0.93,-0.15,0.27,-0.23,0.00
1.535,-0.31,0.47,0.75,0.81,0.90,-0.85,-0.15,0.27,-0.23,0.00
1.558,-0.32,0.49,0.78,0.81,0.90,-0.85,-0.15,0.27,-0.23,0.00
1.559,-0.32,0.49,0.78,0.81,0.90,-0.85,-0.14,0.31,-0.22,0.00
1.56,-0.32,0.49,0.78,0.75,1.15,-0.61,-0.14,0.31,-0.22,0.00
1.561,-0.33,0.50,0.82,0.75,1.15,-0.61,-0.14,0.31,-0.22,0.00
1.562,-0.33,0.50,0.82,0.75,1.15,-0.61,-0.14,0.33,-0.21,0.00
1.563,-0.33,0.50,0.82,0.67,1.28,-0.15,-0.14,0.33,-0.21,0.00
1.564,-0.36,0.50,0.86,0.67,1.28,-0.15,-0.14,0.33,-0.21,0.00
1.565,-0.36,0.50,0.86,0.67,1.28,-0.15,-0.14,0.35,-0.20,0.00
1.565,-0.36,0.50,0.86,0.46,1.25,0.21,-0.14,0.35,-0.20,0.00
1.58,-0.37,0.49,0.86,0.46,1.25,0.21,-0.14,0.35,-0.20,0.00
1.582,-0.37,0.49,0.86,0.46,1.25,0.21,-0.12,0.34,-0.18,0.00
1.583,-0.37,0.49,0.86,0.33,1.22,0.18,-0.12,0.34,-0.18,0.00
1.584,-0.37,0.49,0.85,0.33,1.22,0.18,-0.12,0.34,-0.18,0.00
1.584,-0.37,0.49,0.85,0.33,1.22,0.18,-0.09,0.34,-0.17,0.00
1.585,-0.37,0.49,0.85,0.39,1.23,0.18,-0.09,0.34,-0.17,0.00
1.595,-0.38,0.49,0.86,0.39,1.23,0.18,-0.09,0.34,-0.17,0.00
1.597,-0.38,0.49,0.86,0.39,1.23,0.18,-0.08,0.35,-0.17,0.00
1.598,-0.38,0.49,0.86,0.28,1.26,0.21,-0.08,0.35,-0.17,0.00
1.604,-0.40,0.49,0.88,0.28,1.26,0.21,-0.08,0.35,-0.17,0.00
1.605,-0.40,0.49,0.88,0.28,1.26,0.21,-0.06,0.37,-0.17,0.00
1.605,-0.40,0.49,0.88,0.19,1.27,0.51,-0.06,0.37,-0.17,0.00
1.615,-0.41,0.48,0.91,0.19,1.27,0.51,-0.06,0.37,-0.17,0.00
1.616,-0.41,0.48,0.91,0.19,1.27,0.51,-0.06,0.39,-0.16,0.00
1.617,-0.41,0.48,0.91,0.07,1.14,0.81,-0.06,0.39,-0.16,0.00
1.627,-0.42,0.49,0.94,0.07,1.14,0.81,-0.06,0.39,-0.16,0.00
1.628,-0.42,0.49,0.94,0.07,1.14,0.81,-0.06,0.41,-0.16,0.00
1.629,-0.42,0.49,0.94,0.01,1.22,1.04,-0.06,0.41,-0.16,0.00
1.634,-0.42,0.50,0.95,0.01,1.22,1.04,-0.06,0.41,-0.16,0.00
1.635,-0.42,0.50,0.95,0.01,1.22,1.04,-0.07,0.42,-0.15,0.00
1.636,-0.42,0.50,0.95,0.04,1.40,1.15,-0.07,0.42,-0.15,0.00
1.645,-0.44,0.54,0.97,0.04,1.40,1.15,-0.07,0.42,-0.15,0.00
1.646,-0.44,0.54,0.97,0.04,1.40,1.15,-0.09,0.41,-0.14,0.00
1.646,-0.44,0.54,0.97,-0.05,1.74,1.40,-0.09,0.41,-0.14,0.00
1.655,-0.45,0.56,1.00,-0.05,1.74,1.40,-0.09,0.41,-0.14,0.00
1.656,-0.45,0.56,1.00,-0.05,1.74,1.40,-0.11,0.37,-0.13,0.00
1.657,-0.45,0.56,1.00,-0.16,2.00,1.66,-0.11,0.37,-0.13,0.00
1.677,-0.47,0.57,1.01,-0.16,2.00,1.66,-0.11,0.37,-0.13,0.00
1.678,-0.47,0.57,1.01,-0.16,2.00,1.66,-0.13,0.32,-0.09,0.00
1.679,-0.47,0.57,1.01,-0.33,2.10,1.85,-0.13,0.32,-0.09,0.00
1.68,-0.46,0.55,1.05,-0.33,2.10,1.85,-0.13,0.32,-0.09,0.00
1.681,-0.46,0.55,1.05,-0.33,2.10,1.85,-0.17,0.26,-0.05,0.00
1.682,-0.46,0.55,1.05,-0.24,1.90,2.23,-0.17,0.26,-0.05,0.00
1.683,-0.46,0.50,1.09,-0.24,1.90,2.23,-0.17,0.26,-0.05,0.00
1.684,-0.46,0.50,1.09,-0.24,1.90,2.23,-0.24,0.22,-0.01,0.00
1.684,-0.46,0.50,1.09,-0.17,1.39,2.61,-0.24,0.22,-0.01,0.00
1.695,-0.50,0.48,1.11,-0.17,1.39,2.61,-0.24,0.22,-0.01,0.00
1.697,-0.50,0.48,1.11,-0.17,1.39,2.61,-0.30,0.20,0.00,0.00
1.698,-0.50,0.48,1.11,-0.56,1.20,2.76,-0.30,0.20,0.00,0.00
1.705,-0.54,0.46,1.10,-0.56,1.20,2.76,-0.30,0.20,0.00,0.00
1.706,-0.54,0.46,1.10,-0.56,1.20,2.76,-0.33,0.20,-0.01,0.00
1.706,-0.54,0.46,1.10,-0.96,1.06,2.71,-0.33,0.20,-0.01,0.00
1.715,-0.56,0.42,1.11,-0.96,1.06,2.71,-0.33,0.20,-0.01,0.00
1.716,-0.56,0.42,1.11,-0.96,1.06,2.71,-0.34,0.18,-0.01,0.00
1.717,-0.56,0.42,1.11,-1.09,0.69,2.76,-0.34,0.18,-0.01,0.00
1.727,-0.54,0.36,1.11,-1.09,0.69,2.76,-0.34,0.18,-0.01,0.00
1.729,-0.54,0.36,1.11,-1.09,0.69,2.76,-0.36,0.14,-0.02,0.00
1.73,-0.54,0.36,1.11,-0.89,0.16,2.80,-0.36,0.14,-0.02,0.00
1.735,-0.55,0.33,1.12,-0.89,0.16,2.80,-0.36,0.14,-0.02,0.00
1.736,-0.55,0.33,1.12,-0.89,0.16,2.80,-0.40,0.11,-0.04,0.00
1.736,-0.55,0.33,1.12,-1.00,-0.16,2.88,-0.40,0.11,-0.04,0.00
1.746,-0.57,0.30,1.12,-1.00,-0.16,2.88,-0.40,0.11,-0.04,0.00
1.747,-0.57,0.30,1.12,-1.00,-0.16,2.88,-0.43,0.12,-0.08,0.00
1.748,-0.57,0.30,1.12,-1.23,-0.43,2.90,-0.43,0.12,-0.08,0.00
1.756,-0.58,0.26,1.12,-1.23,-0.43,2.90,-0.43,0.12,-0.08,0.00
1.757,-0.58,0.26,1.12,-1.23,-0.43,2.90,-0.45,0.13,-0.10,0.00
1.758,-0.58,0.26,1.12,-1.29,-0.70,2.81,-0.45,0.13,-0.10,0.00
1.766,-0.57,0.25,1.10,-1.29,-0.70,2.81,-0.45,0.13,-0.10,0.00
1.767,-0.57,0.25,1.10,-1.29,-0.70,2.81,-0.44,0.13,-0.11,0.00
1.767,-0.57,0.25,1.10,-1.20,-0.75,2.66,-0.44,0.13,-0.11,0.00
1.79,-0.56,0.27,1.10,-1.20,-0.75,2.66,-0.44,0.13,-0.11,0.00
1.791,-0.56,0.27,1.10,-1.20,-0.75,2.66,-0.43,0.15,-0.12,0.00
1.792,-0.56,0.27,1.10,-1.06,-0.54,2.67,-0.43,0.15,-0.12,0.00
1.793,-0.57,0.27,1.11,-1.06,-0.54,2.67,-0.43,0.15,-0.12,0.00
1.794,-0.57,0.27,1.11,-1.06,-0.54,2.67,-0.40,0.15,-0.12,0.00
1.795,-0.57,0.27,1.11,-1.19,-0.53,2.69,-0.40,0.15,-0.12,0.00
1.796,-0.59,0.26,1.11,-1.19,-0.53,2.69,-0.40,0.15,-0.12,0.00
1.796,-0.59,0.26,1.11,-1.19,-0.53,2.69,-0.35,0.14,-0.08,0.00
1.797,-0.59,0.26,1.11,-1.32,-0.63,2.70,-0.35,0.14,-0.08,0.00
1.807,-0.60,0.23,1.08,-1.32,-0.63,2.70,-0.35,0.14,-0.08,0.00
1.808,-0.60,0.23,1.08,-1.32,-0.63,2.70,-0.28,0.13,-0.04,0.00
1.809,-0.60,0.23,1.08,-1.39,-0.89,2.41,-0.28,0.13,-0.04,0.00
1.817,-0.60,0.19,1.04,-1.39,-0.89,2.41,-0.28,0.13,-0.04,0.00
1.818,-0.60,0.19,1.04,-1.39,-0.89,2.41,-0.19,0.12,0.01,0.00
1.819,-0.60,0.19,1.04,-1.40,-1.29,2.05,-0.19,0.12,0.01,0.00
1.827,-0.59,0.15,1.01,-1.40,-1.29,2.05,-0.19,0.12,0.01,0.00
1.828,-0.59,0.15,1.01,-1.40,-1.29,2.05,-0.11,0.10,0.05,0.00
1.829,-0.59,0.15,1.01,-1.33,-1.68,1.72,-0.11,0.10,0.05,0.00
1.836,-0.58,0.12,0.98,-1.33,-1.68,1.72,-0.11,0.10,0.05,0.00
1.837,-0.58,0.12,0.98,-1.33,-1.68,1.72,-0.05,0.10,0.08,0.00
1.84,-0.58,0.12,0.98,-1.19,-1.91,1.46,-0.05,0.10,0.08,0.00
1.847,-0.57,0.12,0.97,-1.19,-1.91,1.46,-0.05,0.10,0.08,0.00
1.848,-0.57,0.12,0.97,-1.19,-1.91,1.46,-0.01,0.11,0.09,0.00
1.849,-0.57,0.12,0.97,-1.12,-1.98,1.33,-0.01,0.11,0.09,0.00
1.856,-0.56,0.12,0.94,-1.12,-1.98,1.33,-0.01,0.11,0.09,0.00
1.857,-0.56,0.12,0.94,-1.12,-1.98,1.33,0.02,0.11,0.09,0.00
1.858,-0.56,0.12,0.94,-1.06,-1.90,1.08,0.02,0.11,0.09,0.00
1.866,-0.53,0.14,0.91,-1.06,-1.90,1.08,0.02,0.11,0.09,0.00
1.866,-0.53,0.14,0.91,-1.06,-1.90,1.08,0.04,0.12,0.08,0.00
1.867,-0.53,0.14,0.91,-0.75,-1.71,0.74,0.04,0.12,0.08,0.00
1.89,-0.52,0.18,0.86,-0.75,-1.71,0.74,0.04,0.12,0.08,0.00
1.891,-0.52,0.18,0.86,-0.75,-1.71,0.74,0.05,0.14,0.07,0.00
1.892,-0.52,0.18,0.86,-0.60,-1.39,0.33,0.05,0.14,0.07,0.00
1.893,-0.50,0.22,0.81,-0.60,-1.39,0.33,0.05,0.14,0.07,0.00
1.893,-0.50,0.22,0.81,-0.60,-1.39,0.33,0.06,0.15,0.04,0.00
1.894,-0.50,0.22,0.81,-0.44,-1.01,-0.22,0.06,0.15,0.04,0.00
1.898,-0.49,0.26,0.77,-0.44,-1.01,-0.22,0.06,0.15,0.04,0.00
1.899,-0.49,0.26,0.77,-0.44,-1.01,-0.22,0.06,0.17,0.03,0.00
1.9,-0.49,0.26,0.77,-0.28,-0.63,-0.58,0.06,0.17,0.03,0.00
1.909,-0.48,0.29,0.73,-0.28,-0.63,-0.58,0.06,0.17,0.03,0.00
1.91,-0.48,0.29,0.73,-0.28,-0.63,-0.58,0.06,0.19,0.03,0.00
1.911,-0.48,0.29,0.73,-0.15,-0.31,-0.91,0.06,0.19,0.03,0.00
1.916,-0.45,0.31,0.71,-0.15,-0.31,-0.91,0.06,0.19,0.03,0.00
1.917,-0.45,0.31,0.71,-0.15,-0.31,-0.91,0.06,0.20,0.04,0.00
1.917,-0.45,0.31,0.71,0.14,-0.12,-1.18,0.06,0.20,0.04,0.00
1.927,-0.44,0.32,0.68,0.14,-0.12,-1.18,0.06,0.20,0.04,0.00
1.928,-0.44,0.32,0.68,0.14,-0.12,-1.18,0.06,0.20,0.06,0.00
1.929,-0.44,0.32,0.68,0.21,-0.09,-1.43,0.06,0.20,0.06,0.00
1.936,-0.41,0.31,0.65,0.21,-0.09,-1.43,0.06,0.20,0.06,0.00
1.937,-0.41,0.31,0.65,0.21,-0.09,-1.43,0.06,0.19,0.08,0.00
1.937,-0.41,0.31,0.65,0.51,-0.18,-1.73,0.06,0.19,0.08,0.00
1.947,-0.39,0.30,0.61,0.51,-0.18,-1.73,0.06,0.19,0.08,0.00
1.948,-0.39,0.30,0.61,0.51,-0.18,-1.73,0.07,0.20,0.09,0.00
1.948,-0.39,0.30,0.61,0.77,-0.29,-2.07,0.07,0.20,0.09,0.00
1.959,-0.36,0.30,0.58,0.77,-0.29,-2.07,0.07,0.20,0.09,0.00
1.96,-0.36,0.30,0.58,0.77,-0.29,-2.07,0.09,0.21,0.10,0.00
1.961,-0.36,0.30,0.58,1.01,-0.30,-2.33,0.09,0.21,0.10,0.00
1.966,-0.34,0.31,0.54,1.01,-0.30,-2.33,0.09,0.21,0.10,0.00
1.967,-0.34,0.31,0.54,1.01,-0.30,-2.33,0.10,0.24,0.09,0.00
1.967,-0.34,0.31,0.54,1.22,-0.21,-2.73,0.10,0.24,0.09,0.00
1.977,-0.34,0.31,0.51,1.22,-0.21,-2.73,0.10,0.24,0.09,0.00
1.978,-0.34,0.31,0.51,1.22,-0.21,-2.73,0.11,0.27,0.08,0.00
1.978,-0.34,0.31,0.51,1.31,-0.20,-3.01,0.11,0.27,0.08,0.00
1.988,-0.31,0.31,0.47,1.31,-0.20,-3.01,0.11,0.27,0.08,0.00
1.989,-0.31,0.31,0.47,1.31,-0.20,-3.01,0.11,0.31,0.07,0.00
1.99,-0.31,0.31,0.47,1.60,-0.22,-3.40,0.11,0.31,0.07,0.00
2.014,-0.29,0.30,0.43,1.60,-0.22,-3.40,0.11,0.31,0.07,0.00
2.015,-0.29,0.30,0.43,1.60,-0.22,-3.40,0.10,0.37,0.04,0.00
2.016,-0.29,0.30,0.43,1.82,-0.28,-3.73,0.10,0.37,0.04,0.00
2.017,-0.27,0.29,0.41,1.82,-0.28,-3.73,0.10,0.37,0.04,0.00
2.018,-0.27,0.29,0.41,1.82,-0.28,-3.73,0.07,0.43,0.01,0.00
2.019,-0.27,0.29,0.41,2.02,-0.41,-3.96,0.07,0.43,0.01,0.00
2.02,-0.26,0.29,0.39,2.02,-0.41,-3.96,0.07,0.43,0.01,0.00
2.021,-0.26,0.29,0.39,2.02,-0.41,-3.96,0.04,0.51,-0.04,0.00
2.022,-0.26,0.29,0.39,2.15,-0.44,-4.09,0.04,0.51,-0.04,0.00
2.032,-0.25,0.27,0.38,2.15,-0.44,-4.09,0.04,0.51,-0.04,0.00
2.034,-0.25,0.27,0.38,2.15,-0.44,-4.09,-0.00,0.57,-0.11,0.00
2.035,-0.25,0.27,0.38,2.31,-0.60,-4.17,-0.00,0.57,-0.11,0.00
2.036,-0.25,0.26,0.35,2.31,-0.60,-4.17,-0.00,0.57,-0.11,0.00
2.037,-0.25,0.26,0.35,2.31,-0.60,-4.17,-0.05,0.62,-0.18,0.00
2.038,-0.25,0.26,0.35,2.35,-0.72,-4.41,-0.05,0.62,-0.18,0.00
2.049,-0.25,0.25,0.33,2.35,-0.72,-4.41,-0.05,0.62,-0.18,0.00
2.05,-0.25,0.25,0.33,2.35,-0.72,-4.41,-0.12,0.66,-0.27,0.00
2.051,-0.25,0.25,0.33,2.47,-0.79,-4.65,-0.12,0.66,-0.27,0.00
2.061,-0.23,0.24,0.30,2.47,-0.79,-4.65,-0.12,0.66,-0.27,0.00
2.062,-0.23,0.24,0.30,2.47,-0.79,-4.65,-0.19,0.70,-0.37,0.00
2.063,-0.23,0.24,0.30,2.67,-0.83,-4.89,-0.19,0.70,-0.37,0.00
2.069,-0.23,0.23,0.27,2.67,-0.83,-4.89,-0.19,0.70,-0.37,0.00
2.069,-0.23,0.23,0.27,2.67,-0.83,-4.89,-0.26,0.75,-0.48,0.00
2.07,-0.23,0.23,0.27,2.82,-0.87,-5.20,-0.26,0.75,-0.48,0.00
2.08,-0.22,0.21,0.22,2.82,-0.87,-5.20,-0.26,0.75,-0.48,0.00
2.081,-0.22,0.21,0.22,2.82,-0.87,-5.20,-0.34,0.81,-0.59,0.00
2.082,-0.22,0.21,0.22,3.00,-1.01,-5.62,-0.34,0.81,-0.59,0.00
2.088,-0.22,0.19,0.19,3.00,-1.01,-5.62,-0.34,0.81,-0.59,0.00
2.09,-0.22,0.19,0.19,3.00,-1.01,-5.62,-0.41,0.91,-0.72,0.00
2.091,-0.22,0.19,0.19,3.08,-1.13,-5.91,-0.41,0.91,-0.72,0.00
2.1,-0.22,0.18,0.15,3.08,-1.13,-5.91,-0.41,0.91,-0.72,0.00
2.101,-0.22,0.18,0.15,3.08,-1.13,-5.91,-0.49,1.04,-0.86,0.00
2.101,-0.22,0.18,0.15,3.13,-1.22,-6.21,-0.49,1.04,-0.86,0.00
2.123,-0.25,0.14,0.12,3.13,-1.22,-6.21,-0.49,1.04,-0.86,0.00
2.125,-0.25,0.14,0.12,3.13,-1.22,-6.21,-0.58,1.19,-1.01,0.00
2.126,-0.25,0.14,0.12,3.04,-1.46,-6.52,-0.58,1.19,-1.01,0.00
2.127,-0.27,0.10,0.10,3.04,-1.46,-6.52,-0.58,1.19,-1.01,0.00
2.128,-0.27,0.10,0.10,3.04,-1.46,-6.52,-0.66,1.35,-1.15,0.00
2.129,-0.27,0.10,0.10,2.97,-1.75,-6.60,-0.66,1.35,-1.15,0.00
2.129,-0.31,0.05,0.11,2.97,-1.75,-6.60,-0.66,1.35,-1.15,0.00
2.13,-0.31,0.05,0.11,2.97,-1.75,-6.60,-0.75,1.51,-1.30,0.00
2.131,-0.31,0.05,0.11,2.73,-2.13,-6.46,-0.75,1.51,-1.30,0.00
2.14,-0.34,-0.02,0.12,2.73,-2.13,-6.46,-0.75,1.51,-1.30,0.00
2.141,-0.34,-0.02,0.12,2.73,-2.13,-6.46,-0.84,1.67,-1.44,0.00
2.142,-0.34,-0.02,0.12,2.52,-2.62,-6.23,-0.84,1.67,-1.44,0.00
2.149,-0.38,-0.07,0.14,2.52,-2.62,-6.23,-0.84,1.67,-1.44,0.00
2.15,-0.38,-0.07,0.14,2.52,-2.62,-6.23,-0.92,1.80,-1.58,0.00
2.151,-0.38,-0.07,0.14,2.34,-2.98,-5.97,-0.92,1.80,-1.58,0.00
2.161,-0.41,-0.12,0.14,2.34,-2.98,-5.97,-0.92,1.80,-1.58,0.00
2.162,-0.41,-0.12,0.14,2.34,-2.98,-5.97,-1.02,1.88,-1.73,0.00
2.163,-0.41,-0.12,0.14,2.26,-3.28,-5.88,-1.02,1.88,-1.73,0.00
2.17,-0.43,-0.16,0.16,2.26,-3.28,-5.88,-1.02,1.88,-1.73,0.00
2.171,-0.43,-0.16,0.16,2.26,-3.28,-5.88,-1.12,1.94,-1.90,0.00
2.171,-0.43,-0.16,0.16,2.23,-3.46,-5.55,-1.12,1.94,-1.90,0.00
2.181,-0.46,-0.23,0.18,2.23,-3.46,-5.55,-1.12,1.94,-1.90,0.00
2.182,-0.46,-0.23,0.18,2.23,-3.46,-5.55,-1.26,1.99,-2.09,0.00
2.182,-0.46,-0.23,0.18,2.11,-3.91,-5.26,-1.26,1.99,-2.09,0.00
2.19,-0.51,-0.31,0.22,2.11,-3.91,-5.26,-1.26,1.99,-2.09,0.00
2.191,-0.51,-0.31,0.22,2.11,-3.91,-5.26,-1.41,2.01,-2.30,0.00
2.192,-0.51,-0.31,0.22,1.78,-4.48,-4.83,-1.41,2.01,-2.30,0.00
2.2,-0.58,-0.41,0.26,1.78,-4.48,-4.83,-1.41,2.01,-2.30,0.00
2.201,-0.58,-0.41,0.26,1.78,-4.48,-4.83,-1.58,2.02,-2.53,0.00
2.202,-0.58,-0.41,0.26,1.31,-5.11,-4.30,-1.58,2.02,-2.53,0.00
2.225,-0.63,-0.51,0.32,1.31,-5.11,-4.30,-1.58,2.02,-2.53,0.00
2.226,-0.63,-0.51,0.32,1.31,-5.11,-4.30,-1.76,2.01,-2.77,0.00
2.227,-0.63,-0.51,0.32,0.96,-5.81,-3.59,-1.76,2.01,-2.77,0.00
2.228,-0.66,-0.61,0.38,0.96,-5.81,-3.59,-1.76,2.01,-2.77,0.00
2.229,-0.66,-0.61,0.38,0.96,-5.81,-3.59,-1.92,1.98,-3.01,0.00
2.23,-0.66,-0.61,0.38,0.84,-6.45,-2.85,-1.92,1.98,-3.01,0.00
2.231,-0.68,-0.71,0.45,0.84,-6.45,-2.85,-1.92,1.98,-3.01,0.00
2.232,-0.68,-0.71,0.45,0.84,-6.45,-2.85,-2.05,1.93,-3.24,0.00
2.232,-0.68,-0.71,0.45,0.70,-7.02,-2.03,-2.05,1.93,-3.24,0.00
2.244,-0.70,-0.82,0.46,0.70,-7.02,-2.03,-2.05,1.93,-3.24,0.00
2.245,-0.70,-0.82,0.46,0.70,-7.02,-2.03,-2.18,1.86,-3.47,0.00
2.245,-0.70,-0.82,0.46,0.67,-7.69,-1.78,-2.18,1.86,-3.47,0.00
2.255,-0.70,-0.91,0.44,0.67,-7.69,-1.78,-2.18,1.86,-3.47,0.00
2.256,-0.70,-0.91,0.44,0.67,-7.69,-1.78,-2.29,1.80,-3.69,0.00
2.256,-0.70,-0.91,0.44,0.80,-8.17,-1.79,-2.29,1.80,-3.69,0.00
2.26,-0.69,-0.99,0.43,0.80,-8.17,-1.79,-2.29,1.80,-3.69,0.00
2.261,-0.69,-0.99,0.43,0.80,-8.17,-1.79,-2.41,1.79,-3.89,0.00
2.261,-0.69,-0.99,0.43,0.88,-8.55,-1.81,-2.41,1.79,-3.89,0.00
2.271,-0.70,-1.08,0.42,0.88,-8.55,-1.81,-2.41,1.79,-3.89,0.00
2.272,-0.70,-1.08,0.42,0.88,-8.55,-1.81,-2.55,1.83,-4.09,0.00
2.273,-0.70,-1.08,0.42,0.85,-8.95,-1.72,-2.55,1.83,-4.09,0.00
2.291,-0.75,-1.16,0.44,0.85,-8.95,-1.72,-2.55,1.83,-4.09,0.00
2.291,-0.75,-1.16,0.44,0.85,-8.95,-1.72,-2.71,1.86,-4.26,0.00
2.292,-0.75,-1.16,0.44,0.42,-9.27,-1.25,-2.71,1.86,-4.26,0.00
2.293,-0.77,-1.26,0.50,0.42,-9.27,-1.25,-2.71,1.86,-4.26,0.00
2.294,-0.77,-1.26,0.50,0.42,-9.27,-1.25,-2.87,1.89,-4.40,0.00
2.295,-0.77,-1.26,0.50,0.19,-9.71,-0.50,-2.87,1.89,-4.40,0.00
2.304,-0.81,-1.38,0.56,0.19,-9.71,-0.50,-2.87,1.89,-4.40,0.00
2.305,-0.81,-1.38,0.56,0.19,-9.71,-0.50,-3.02,1.90,-4.54,0.00
2.306,-0.81,-1.38,0.56,-0.17,-10.34,0.33,-3.02,1.90,-4.54,0.00
2.313,-0.85,-1.49,0.65,-0.17,-10.34,0.33,-3.02,1.90,-4.54,0.00
2.314,-0.85,-1.49,0.65,-0.17,-10.34,0.33,-3.17,1.86,-4.68,0.00
2.315,-0.85,-1.49,0.65,-0.67,-10.95,1.49,-3.17,1.86,-4.68,0.00
2.321,-0.89,-1.57,0.75,-0.67,-10.95,1.49,-3.17,1.86,-4.68,0.00
2.322,-0.89,-1.57,0.75,-0.67,-10.95,1.49,-3.31,1.77,-4.80,0.00
2.323,-0.89,-1.57,0.75,-1.22,-11.14,2.76,-3.31,1.77,-4.80,0.00
2.343,-0.89,-1.59,0.77,-1.22,-11.14,2.76,-3.31,1.77,-4.80,0.00
2.344,-0.89,-1.59,0.77,-1.22,-11.14,2.76,-3.38,1.60,-4.89,0.00
2.345,-0.89,-1.59,0.77,-1.35,-10.82,3.17,-3.38,1.60,-4.89,0.00
2.346,-0.87,-1.58,0.74,-1.35,-10.82,3.17,-3.38,1.60,-4.89,0.00
2.346,-0.87,-1.58,0.74,-1.35,-10.82,3.17,-3.41,1.37,-4.95,0.00
2.347,-0.87,-1.58,0.74,-1.36,-10.25,3.16,-3.41,1.37,-4.95,0.00
2.348,-0.82,-1.59,0.67,-1.36,-10.25,3.16,-3.41,1.37,-4.95,0.00
2.349,-0.82,-1.59,0.67,-1.36,-10.25,3.16,-3.43,1.13,-4.96,0.00
2.349,-0.82,-1.59,0.67,-1.06,-9.88,2.71,-3.43,1.13,-4.96,0.00
2.371,-0.82,-1.62,0.65,-1.06,-9.88,2.71,-3.43,1.13,-4.96,0.00
2.372,-0.82,-1.62,0.65,-1.06,-9.88,2.71,-3.46,0.96,-4.93,0.00
2.373,-0.82,-1.62,0.65,-1.28,-9.71,2.83,-3.46,0.96,-4.93,0.00
2.374,-0.85,-1.71,0.64,-1.28,-9.71,2.83,-3.46,0.96,-4.93,0.00
2.375,-0.85,-1.71,0.64,-1.28,-9.71,2.83,-3.49,0.87,-4.87,0.00
2.375,-0.85,-1.71,0.64,-1.86,-10.16,3.03,-3.49,0.87,-4.87,0.00
2.381,-0.87,-1.77,0.64,-1.86,-10.16,3.03,-3.49,0.87,-4.87,0.00
2.382,-0.87,-1.77,0.64,-1.86,-10.16,3.03,-3.51,0.86,-4.81,0.00
2.383,-0.87,-1.77,0.64,-2.35,-10.28,3.33,-3.51,0.86,-4.81,0.00
2.391,-0.87,-1.79,0.64,-2.35,-10.28,3.33,-3.51,0.86,-4.81,0.00
2.391,-0.87,-1.79,0.64,-2.35,-10.28,3.33,-3.53,0.86,-4.74,0.00
2.392,-0.87,-1.79,0.64,-2.70,-10.10,3.63,-3.53,0.86,-4.74,0.00
2.401,-0.90,-1.78,0.65,-2.70,-10.10,3.63,-3.53,0.86,-4.74,0.00
2.402,-0.90,-1.78,0.65,-2.70,-10.10,3.63,-3.56,0.81,-4.68,0.00
2.402,-0.90,-1.78,0.65,-3.37,-9.68,4.05,-3.56,0.81,-4.68,0.00
2.411,-0.89,-1.79,0.66,-3.37,-9.68,4.05,-3.56,0.81,-4.68,0.00
2.413,-0.89,-1.79,0.66,-3.37,-9.68,4.05,-3.58,0.68,-4.60,0.00
2.413,-0.89,-1.79,0.66,-3.61,-9.40,4.47,-3.58,0.68,-4.60,0.00
2.421,-0.86,-1.78,0.69,-3.61,-9.40,4.47,-3.58,0.68,-4.60,0.00
2.422,-0.86,-1.78,0.69,-3.61,-9.40,4.47,-3.59,0.50,-4.51,0.00
2.422,-0.86,-1.78,0.69,-3.69,-8.99,5.05,-3.59,0.50,-4.51,0.00
2.43,-0.84,-1.74,0.68,-3.69,-8.99,5.05,-3.59,0.50,-4.51,0.00
2.431,-0.84,-1.74,0.68,-3.69,-8.99,5.05,-3.59,0.26,-4.42,0.00
2.432,-0.84,-1.74,0.68,-3.82,-8.41,5.36,-3.59,0.26,-4.42,0.00
2.441,-0.82,-1.67,0.66,-3.82,-8.41,5.36,-3.59,0.26,-4.42,0.00
2.442,-0.82,-1.67,0.66,-3.82,-8.41,5.36,-3.58,-0.04,-4.33,0.00
2.443,-0.82,-1.67,0.66,-4.08,-7.43,5.44,-3.58,-0.04,-4.33,0.00
2.465,-0.81,-1.59,0.62,-4.08,-7.43,5.44,-3.58,-0.04,-4.33,0.00
2.467,-0.81,-1.59,0.62,-4.08,-7.43,5.44,-3.56,-0.34,-4.20,0.00
2.468,-0.81,-1.59,0.62,-4.31,-6.46,5.39,-3.56,-0.34,-4.20,0.00
2.469,-0.78,-1.50,0.57,-4.31,-6.46,5.39,-3.56,-0.34,-4.20,0.00
2.47,-0.78,-1.50,0.57,-4.31,-6.46,5.39,-3.51,-0.61,-4.03,0.00
2.471,-0.78,-1.50,0.57,-4.45,-5.43,5.20,-3.51,-0.61,-4.03,0.00
2.472,-0.77,-1.41,0.53,-4.45,-5.43,5.20,-3.51,-0.61,-4.03,0.00
2.473,-0.77,-1.41,0.53,-4.45,-5.43,5.20,-3.45,-0.86,-3.83,0.00
2.474,-0.77,-1.41,0.53,-4.68,-4.41,5.07,-3.45,-0.86,-3.83,0.00
2.485,-0.74,-1.31,0.49,-4.68,-4.41,5.07,-3.45,-0.86,-3.83,0.00
2.486,-0.74,-1.31,0.49,-4.68,-4.41,5.07,-3.36,-1.06,-3.61,0.00
2.487,-0.74,-1.31,0.49,-4.71,-3.38,4.98,-3.36,-1.06,-3.61,0.00
2.493,-0.70,-1.23,0.48,-4.71,-3.38,4.98,-3.36,-1.06,-3.61,0.00
2.494,-0.70,-1.23,0.48,-4.71,-3.38,4.98,-3.23,-1.21,-3.38,0.00
2.495,-0.70,-1.23,0.48,-4.68,-2.49,5.12,-3.23,-1.21,-3.38,0.00
2.502,-0.66,-1.15,0.44,-4.68,-2.49,5.12,-3.23,-1.21,-3.38,0.00
2.504,-0.66,-1.15,0.44,-4.68,-2.49,5.12,-3.08,-1.33,-3.15,0.00
2.505,-0.66,-1.15,0.44,-4.56,-1.65,5.06,-3.08,-1.33,-3.15,0.00
2.514,-0.64,-1.07,0.43,-4.56,-1.65,5.06,-3.08,-1.33,-3.15,0.00
2.517,-0.64,-1.07,0.43,-4.56,-1.65,5.06,-2.90,-1.42,-2.93,0.00
2.518,-0.64,-1.07,0.43,-4.66,-0.88,5.15,-2.90,-1.42,-2.93,0.00
2.522,-0.60,-1.01,0.40,-4.66,-0.88,5.15,-2.90,-1.42,-2.93,0.00
2.523,-0.60,-1.01,0.40,-4.66,-0.88,5.15,-2.70,-1.46,-2.73,0.00
2.524,-0.60,-1.01,0.40,-4.55,-0.24,5.14,-2.70,-1.46,-2.73,0.00
2.534,-0.59,-0.95,0.38,-4.55,-0.24,5.14,-2.70,-1.46,-2.73,0.00
2.535,-0.59,-0.95,0.38,-4.55,-0.24,5.14,-2.49,-1.42,-2.55,0.00
2.535,-0.59,-0.95,0.38,-4.59,0.36,5.14,-2.49,-1.42,-2.55,0.00
2.542,-0.56,-0.88,0.36,-4.59,0.36,5.14,-2.49,-1.42,-2.55,0.00
2.543,-0.56,-0.88,0.36,-4.59,0.36,5.14,-2.28,-1.33,-2.39,0.00
2.544,-0.56,-0.88,0.36,-4.58,0.96,5.21,-2.28,-1.33,-2.39,0.00
2.56,-0.55,-0.83,0.33,-4.58,0.96,5.21,-2.28,-1.33,-2.39,0.00
2.562,-0.55,-0.83,0.33,-4.58,0.96,5.21,-2.07,-1.18,-2.24,0.00
2.562,-0.55,-0.83,0.33,-4.68,1.44,5.03,-2.07,-1.18,-2.24,0.00
2.563,-0.54,-0.80,0.30,-4.68,1.44,5.03,-2.07,-1.18,-2.24,0.00
2.564,-0.54,-0.80,0.30,-4.68,1.44,5.03,-1.86,-0.95,-2.10,0.00
2.565,-0.54,-0.80,0.30,-4.74,1.78,4.96,-1.86,-0.95,-2.10,0.00
2.574,-0.54,-0.75,0.26,-4.74,1.78,4.96,-1.86,-0.95,-2.10,0.00
2.574,-0.54,-0.75,0.26,-4.74,1.78,4.96,-1.65,-0.66,-1.96,0.00
2.575,-0.54,-0.75,0.26,-4.91,2.18,4.69,-1.65,-0.66,-1.96,0.00
2.584,-0.56,-0.71,0.24,-4.91,2.18,4.69,-1.65,-0.66,-1.96,0.00
2.585,-0.56,-0.71,0.24,-4.91,2.18,4.69,-1.46,-0.35,-1.82,0.00
2.586,-0.56,-0.71,0.24,-5.23,2.61,4.62,-1.46,-0.35,-1.82,0.00
2.595,-0.56,-0.68,0.23,-5.23,2.61,4.62,-1.46,-0.35,-1.82,0.00
2.597,-0.56,-0.68,0.23,-5.23,2.61,4.62,-1.30,-0.03,-1.69,0.00
2.598,-0.56,-0.68,0.23,-5.44,2.82,4.64,-1.30,-0.03,-1.69,0.00
2.604,-0.58,-0.65,0.23,-5.44,2.82,4.64,-1.30,-0.03,-1.69,0.00
2.605,-0.58,-0.65,0.23,-5.44,2.82,4.64,-1.14,0.28,-1.54,0.00
2.606,-0.58,-0.65,0.23,-5.79,3.06,4.77,-1.14,0.28,-1.54,0.00
2.615,-0.60,-0.64,0.22,-5.79,3.06,4.77,-1.14,0.28,-1.54,0.00
2.616,-0.60,-0.64,0.22,-5.79,3.06,4.77,-0.99,0.58,-1.39,0.00
2.617,-0.60,-0.64,0.22,-6.15,3.14,4.83,-0.99,0.58,-1.39,0.00
2.624,-0.62,-0.65,0.24,-6.15,3.14,4.83,-0.99,0.58,-1.39,0.00
2.624,-0.62,-0.65,0.24,-6.15,3.14,4.83,-0.85,0.84,-1.23,0.00
2.625,-0.62,-0.65,0.24,-6.47,3.08,5.05,-0.85,0.84,-1.23,0.00
2.634,-0.66,-0.67,0.24,-6.47,3.08,5.05,-0.85,0.84,-1.23,0.00
2.635,-0.66,-0.67,0.24,-6.47,3.08,5.05,-0.73,1.05,-1.06,0.00
2.636,-0.66,-0.67,0.24,-6.95,2.79,5.12,-0.73,1.05,-1.06,0.00
2.659,-0.69,-0.72,0.25,-6.95,2.79,5.12,-0.73,1.05,-1.06,0.00
2.66,-0.69,-0.72,0.25,-6.95,2.79,5.12,-0.61,1.19,-0.90,0.00
2.661,-0.69,-0.72,0.25,-7.39,2.35,5.23,-0.61,1.19,-0.90,0.00
2.662,-0.74,-0.77,0.25,-7.39,2.35,5.23,-0.61,1.19,-0.90,0.00
2.663,-0.74,-0.77,0.25,-7.39,2.35,5.23,-0.53,1.26,-0.72,0.00
2.664,-0.74,-0.77,0.25,-7.96,1.81,5.28,-0.53,1.26,-0.72,0.00
2.665,-0.78,-0.83,0.25,-7.96,1.81,5.28,-0.53,1.26,-0.72,0.00
2.665,-0.78,-0.83,0.25,-7.96,1.81,5.28,-0.47,1.27,-0.53,0.00
2.666,-0.78,-0.83,0.25,-8.43,1.19,5.38,-0.47,1.27,-0.53,0.00
2.676,-0.81,-0.92,0.26,-8.43,1.19,5.38,-0.47,1.27,-0.53,0.00
2.677,-0.81,-0.92,0.26,-8.43,1.19,5.38,-0.41,1.20,-0.32,0.00
2.678,-0.81,-0.92,0.26,-8.86,0.26,5.49,-0.41,1.20,-0.32,0.00
2.684,-0.81,-1.00,0.27,-8.86,0.26,5.49,-0.41,1.20,-0.32,0.00
2.686,-0.81,-1.00,0.27,-8.86,0.26,5.49,-0.36,1.07,-0.09,0.00
2.686,-0.81,-1.00,0.27,-8.84,-0.47,5.60,-0.36,1.07,-0.09,0.00
2.696,-0.76,-1.08,0.28,-8.84,-0.47,5.60,-0.36,1.07,-0.09,0.00
2.697,-0.76,-1.08,0.28,-8.84,-0.47,5.60,-0.29,0.92,0.15,0.00
2.698,-0.76,-1.08,0.28,-8.40,-1.24,5.75,-0.29,0.92,0.15,0.00
2.704,-0.74,-1.19,0.29,-8.40,-1.24,5.75,-0.29,0.92,0.15,0.00
2.705,-0.74,-1.19,0.29,-8.40,-1.24,5.75,-0.20,0.74,0.39,0.00
2.705,-0.74,-1.19,0.29,-8.15,-2.33,5.79,-0.20,0.74,0.39,0.00
2.716,-0.70,-1.27,0.27,-8.15,-2.33,5.79,-0.20,0.74,0.39,0.00
2.717,-0.70,-1.27,0.27,-8.15,-2.33,5.79,-0.07,0.52,0.64,0.00
2.718,-0.70,-1.27,0.27,-7.77,-3.13,5.68,-0.07,0.52,0.64,0.00
2.724,-0.64,-1.35,0.28,-7.77,-3.13,5.68,-0.07,0.52,0.64,0.00
2.725,-0.64,-1.35,0.28,-7.77,-3.13,5.68,0.09,0.28,0.91,0.00
2.726,-0.64,-1.35,0.28,-7.06,-3.89,5.69,0.09,0.28,0.91,0.00
2.735,-0.56,-1.41,0.26,-7.06,-3.89,5.69,0.09,0.28,0.91,0.00
2.736,-0.56,-1.41,0.26,-7.06,-3.89,5.69,0.27,-0.01,1.14,0.00
2.736,-0.56,-1.41,0.26,-6.17,-4.52,5.45,0.27,-0.01,1.14,0.00
2.746,-0.49,-1.47,0.21,-6.17,-4.52,5.45,0.27,-0.01,1.14,0.00
2.747,-0.49,-1.47,0.21,-6.17,-4.52,5.45,0.47,-0.30,1.33,0.00
2.748,-0.49,-1.47,0.21,-5.42,-5.09,4.98,0.47,-0.30,1.33,0.00
2.754,-0.46,-1.51,0.16,-5.42,-5.09,4.98,0.47,-0.30,1.33,0.00
2.755,-0.46,-1.51,0.16,-5.42,-5.09,4.98,0.68,-0.52,1.48,0.00
2.755,-0.46,-1.51,0.16,-4.89,-5.42,4.44,0.68,-0.52,1.48,0.00
2.764,-0.41,-1.55,0.09,-4.89,-5.42,4.44,0.68,-0.52,1.48,0.00
2.765,-0.41,-1.55,0.09,-4.89,-5.42,4.44,0.89,-0.65,1.61,0.00
2.766,-0.41,-1.55,0.09,-4.24,-5.83,3.69,0.89,-0.65,1.61,0.00
2.775,-0.37,-1.58,0.04,-4.24,-5.83,3.69,0.89,-0.65,1.61,0.00
2.776,-0.37,-1.58,0.04,-4.24,-5.83,3.69,1.10,-0.65,1.73,0.00
2.776,-0.37,-1.58,0.04,-3.69,-6.09,3.02,1.10,-0.65,1.73,0.00
2.804,-0.35,-1.57,-0.01,-3.69,-6.09,3.02,1.10,-0.65,1.73,0.00
2.806,-0.35,-1.57,-0.01,-3.69,-6.09,3.02,1.29,-0.51,1.82,0.00
2.807,-0.35,-1.57,-0.01,-3.29,-5.95,2.46,1.29,-0.51,1.82,0.00
2.809,-0.35,-1.55,-0.03,-3.29,-5.95,2.46,1.29,-0.51,1.82,0.00
2.81,-0.35,-1.55,-0.03,-3.29,-5.95,2.46,1.48,-0.27,1.92,0.00
2.811,-0.35,-1.55,-0.03,-3.09,-5.72,2.14,1.48,-0.27,1.92,0.00
2.812,-0.36,-1.54,-0.01,-3.09,-5.72,2.14,1.48,-0.27,1.92,0.00
2.813,-0.36,-1.54,-0.01,-3.09,-5.72,2.14,1.67,-0.00,2.05,0.00
2.814,-0.36,-1.54,-0.01,-2.97,-5.60,2.11,1.67,-0.00,2.05,0.00
2.815,-0.32,-1.53,0.02,-2.97,-5.60,2.11,1.67,-0.00,2.05,0.00
2.816,-0.32,-1.53,0.02,-2.97,-5.60,2.11,1.86,0.19,2.22,0.00
2.817,-0.32,-1.53,0.02,-2.39,-5.48,2.22,1.86,0.19,2.22,0.00
2.829,-0.27,-1.51,0.02,-2.39,-5.48,2.22,1.86,0.19,2.22,0.00
2.83,-0.27,-1.51,0.02,-2.39,-5.48,2.22,2.07,0.26,2.40,0.00
2.831,-0.27,-1.51,0.02,-1.66,-5.17,2.09,2.07,0.26,2.40,0.00
2.832,-0.21,-1.47,0.00,-1.66,-5.17,2.09,2.07,0.26,2.40,0.00
2.833,-0.21,-1.47,0.00,-1.66,-5.17,2.09,2.28,0.20,2.56,0.00
2.834,-0.21,-1.47,0.00,-0.87,-4.82,1.68,2.28,0.20,2.56,0.00
2.847,-0.17,-1.42,-0.05,-0.87,-4.82,1.68,2.28,0.20,2.56,0.00
2.849,-0.17,-1.42,-0.05,-0.87,-4.82,1.68,2.48,0.09,2.70,0.00
2.852,-0.17,-1.42,-0.05,-0.23,-4.36,0.90,2.48,0.09,2.70,0.00
2.853,-0.12,-1.37,-0.11,-0.23,-4.36,0.90,2.48,0.09,2.70,0.00
2.854,-0.12,-1.37,-0.11,-0.23,-4.36,0.90,2.64,-0.06,2.83,0.00
2.855,-0.12,-1.37,-0.11,0.52,-3.83,0.03,2.64,-0.06,2.83,0.00
2.867,-0.09,-1.34,-0.15,0.52,-3.83,0.03,2.64,-0.06,2.83,0.00
2.869,-0.09,-1.34,-0.15,0.52,-3.83,0.03,2.75,-0.24,2.94,0.00
2.87,-0.09,-1.34,-0.15,1.16,-3.59,-0.58,2.75,-0.24,2.94,0.00
2.875,-0.06,-1.37,-0.18,1.16,-3.59,-0.58,2.75,-0.24,2.94,0.00
2.876,-0.06,-1.37,-0.18,1.16,-3.59,-0.58,2.80,-0.43,3.03,0.00
2.877,-0.06,-1.37,-0.18,1.74,-3.91,-1.15,2.80,-0.43,3.03,0.00
2.897,-0.05,-1.42,-0.19,1.74,-3.91,-1.15,2.80,-0.43,3.03,0.00
2.899,-0.05,-1.42,-0.19,1.74,-3.91,-1.15,2.81,-0.57,3.09,0.00
2.9,-0.05,-1.42,-0.19,2.15,-4.42,-1.52,2.81,-0.57,3.09,0.00
2.901,-0.04,-1.43,-0.24,2.15,-4.42,-1.52,2.81,-0.57,3.09,0.00
2.902,-0.04,-1.43,-0.24,2.15,-4.42,-1.52,2.78,-0.66,3.13,0.00
2.903,-0.04,-1.43,-0.24,2.54,-4.69,-2.26,2.78,-0.66,3.13,0.00
2.904,-0.03,-1.44,-0.23,2.54,-4.69,-2.26,2.78,-0.66,3.13,0.00
2.905,-0.03,-1.44,-0.23,2.54,-4.69,-2.26,2.69,-0.69,3.14,0.00
2.906,-0.03,-1.44,-0.23,2.91,-4.81,-2.46,2.69,-0.69,3.14,0.00
2.914,-0.03,-1.43,-0.21,2.91,-4.81,-2.46,2.69,-0.69,3.14,0.00
2.915,-0.03,-1.43,-0.21,2.91,-4.81,-2.46,2.54,-0.70,3.12,0.00
2.916,-0.03,-1.43,-0.21,3.15,-4.88,-2.59,2.54,-0.70,3.12,0.00
2.924,-0.05,-1.38,-0.21,3.15,-4.88,-2.59,2.54,-0.70,3.12,0.00
2.925,-0.05,-1.38,-0.21,3.15,-4.88,-2.59,2.37,-0.71,3.07,0.00
2.926,-0.05,-1.38,-0.21,3.27,-4.51,-2.77,2.37,-0.71,3.07,0.00
2.934,-0.06,-1.32,-0.17,3.27,-4.51,-2.77,2.37,-0.71,3.07,0.00
2.935,-0.06,-1.32,-0.17,3.27,-4.51,-2.77,2.16,-0.75,3.00,0.00
2.936,-0.06,-1.32,-0.17,3.38,-4.02,-2.62,2.16,-0.75,3.00,0.00
2.945,-0.09,-1.23,-0.14,3.38,-4.02,-2.62,2.16,-0.75,3.00,0.00
2.946,-0.09,-1.23,-0.14,3.38,-4.02,-2.62,1.95,-0.83,2.90,0.00
2.947,-0.09,-1.23,-0.14,3.40,-3.32,-2.56,1.95,-0.83,2.90,0.00
2.956,-0.09,-1.14,-0.12,3.40,-3.32,-2.56,1.95,-0.83,2.90,0.00
2.957,-0.09,-1.14,-0.12,3.40,-3.32,-2.56,1.77,-0.93,2.79,0.00
2.958,-0.09,-1.14,-0.12,3.57,-2.57,-2.54,1.77,-0.93,2.79,0.00
2.966,-0.08,-1.04,-0.11,3.57,-2.57,-2.54,1.77,-0.93,2.79,0.00
2.967,-0.08,-1.04,-0.11,3.57,-2.57,-2.54,1.62,-1.01,2.64,0.00
2.968,-0.08,-1.04,-0.11,3.91,-1.71,-2.61,1.62,-1.01,2.64,0.00
2.979,-0.08,-0.94,-0.12,3.91,-1.71,-2.61,1.62,-1.01,2.64,0.00
2.98,-0.08,-0.94,-0.12,3.91,-1.71,-2.61,1.51,-1.08,2.47,0.00
2.981,-0.08,-0.94,-0.12,4.09,-0.89,-2.92,1.51,-1.08,2.47,0.00
3.0,-0.08,-0.85,-0.15,4.09,-0.89,-2.92,1.51,-1.08,2.47,0.00
3.001,-0.08,-0.85,-0.15,4.09,-0.89,-2.92,1.43,-1.13,2.30,0.00
3.002,-0.08,-0.85,-0.15,4.28,-0.12,-3.40,1.43,-1.13,2.30,0.00
3.003,-0.08,-0.76,-0.17,4.28,-0.12,-3.40,1.43,-1.13,2.30,0.00
3.003,-0.08,-0.76,-0.17,4.28,-0.12,-3.40,1.38,-1.13,2.14,0.00
3.004,-0.08,-0.76,-0.17,4.47,0.55,-3.72,1.38,-1.13,2.14,0.00
3.01,-0.08,-0.68,-0.20,4.47,0.55,-3.72,1.38,-1.13,2.14,0.00
3.011,-0.08,-0.68,-0.20,4.47,0.55,-3.72,1.35,-1.05,1.99,0.00
3.011,-0.08,-0.68,-0.20,4.61,1.20,-4.24,1.35,-1.05,1.99,0.00
3.022,-0.07,-0.60,-0.22,4.61,1.20,-4.24,1.35,-1.05,1.99,0.00
3.024,-0.07,-0.60,-0.22,4.61,1.20,-4.24,1.31,-0.91,1.85,0.00
3.025,-0.07,-0.60,-0.22,4.82,1.86,-4.58,1.31,-0.91,1.85,0.00
3.027,-0.08,-0.54,-0.22,4.82,1.86,-4.58,1.31,-0.91,1.85,0.00
3.028,-0.08,-0.54,-0.22,4.82,1.86,-4.58,1.28,-0.74,1.72,0.00
3.029,-0.08,-0.54,-0.22,4.86,2.35,-4.66,1.28,-0.74,1.72,0.00
3.036,-0.09,-0.49,-0.21,4.86,2.35,-4.66,1.28,-0.74,1.72,0.00
3.037,-0.09,-0.49,-0.21,4.86,2.35,-4.66,1.24,-0.57,1.60,0.00
3.038,-0.09,-0.49,-0.21,4.88,2.75,-4.69,1.24,-0.57,1.60,0.00
3.048,-0.08,-0.45,-0.18,4.88,2.75,-4.69,1.24,-0.57,1.60,0.00
3.049,-0.08,-0.45,-0.18,4.88,2.75,-4.69,1.20,-0.40,1.48,0.00
3.05,-0.08,-0.45,-0.18,5.00,3.01,-4.59,1.20,-0.40,1.48,0.00
3.057,-0.08,-0.41,-0.16,5.00,3.01,-4.59,1.20,-0.40,1.48,0.00
3.058,-0.08,-0.41,-0.16,5.00,3.01,-4.59,1.16,-0.25,1.36,0.00
3.058,-0.08,-0.41,-0.16,5.14,3.24,-4.41,1.16,-0.25,1.36,0.00
3.069,-0.08,-0.38,-0.13,5.14,3.24,-4.41,1.16,-0.25,1.36,0.00
3.07,-0.08,-0.38,-0.13,5.14,3.24,-4.41,1.11,-0.12,1.24,0.00
3.07,-0.08,-0.38,-0.13,5.18,3.40,-4.22,1.11,-0.12,1.24,0.00
3.077,-0.09,-0.37,-0.11,5.18,3.40,-4.22,1.11,-0.12,1.24,0.00
3.078,-0.09,-0.37,-0.11,5.18,3.40,-4.22,1.05,-0.02,1.12,0.00
3.078,-0.09,-0.37,-0.11,5.18,3.40,-4.13,1.05,-0.02,1.12,0.00
3.087,-0.11,-0.38,-0.10,5.18,3.40,-4.13,1.05,-0.02,1.12,0.00
3.088,-0.11,-0.38,-0.10,5.18,3.40,-4.13,0.96,0.05,0.99,0.00
3.089,-0.11,-0.38,-0.10,5.09,3.23,-4.07,0.96,0.05,0.99,0.00
3.108,-0.12,-0.40,-0.09,5.09,3.23,-4.07,0.96,0.05,0.99,0.00
3.109,-0.12,-0.40,-0.09,5.09,3.23,-4.07,0.86,0.09,0.85,0.00
3.109,-0.12,-0.40,-0.09,5.01,3.01,-4.10,0.86,0.09,0.85,0.00
3.11,-0.14,-0.41,-0.09,5.01,3.01,-4.10,0.86,0.09,0.85,0.00
3.111,-0.14,-0.41,-0.09,5.01,3.01,-4.10,0.74,0.12,0.70,0.00
3.111,-0.14,-0.41,-0.09,4.94,2.82,-4.11,0.74,0.12,0.70,0.00
3.117,-0.15,-0.42,-0.08,4.94,2.82,-4.11,0.74,0.12,0.70,0.00
3.117,-0.15,-0.42,-0.08,4.94,2.82,-4.11,0.60,0.12,0.55,0.00
3.118,-0.15,-0.42,-0.08,4.86,2.63,-4.07,0.60,0.12,0.55,0.00
3.13,-0.15,-0.44,-0.08,4.86,2.63,-4.07,0.60,0.12,0.55,0.00
3.131,-0.15,-0.44,-0.08,4.86,2.63,-4.07,0.45,0.11,0.38,0.00
3.132,-0.15,-0.44,-0.08,4.85,2.43,-4.10,0.45,0.11,0.38,0.00
3.138,-0.16,-0.46,-0.08,4.85,2.43,-4.10,0.45,0.11,0.38,0.00
3.138,-0.16,-0.46,-0.08,4.85,2.43,-4.10,0.29,0.10,0.21,0.00
3.139,-0.16,-0.46,-0.08,4.79,2.22,-4.11,0.29,0.10,0.21,0.00
3.148,-0.16,-0.50,-0.08,4.79,2.22,-4.11,0.29,0.10,0.21,0.00
3.149,-0.16,-0.50,-0.08,4.79,2.22,-4.11,0.11,0.09,0.02,0.00
3.15,-0.16,-0.50,-0.08,4.77,1.82,-4.07,0.11,0.09,0.02,0.00
3.158,-0.19,-0.56,-0.07,4.77,1.82,-4.07,0.11,0.09,0.02,0.00
3.159,-0.19,-0.56,-0.07,4.77,1.82,-4.07,-0.09,0.10,-0.19,0.00
3.16,-0.19,-0.56,-0.07,4.48,1.27,-3.93,-0.09,0.10,-0.19,0.00
3.168,-0.23,-0.64,-0.05,4.48,1.27,-3.93,-0.09,0.10,-0.19,0.00
3.169,-0.23,-0.64,-0.05,4.48,1.27,-3.93,-0.31,0.11,-0.41,0.00
3.169,-0.23,-0.64,-0.05,4.10,0.55,-3.75,-0.31,0.11,-0.41,0.00
3.18,-0.27,-0.69,-0.03,4.10,0.55,-3.75,-0.31,0.11,-0.41,0.00
3.181,-0.27,-0.69,-0.03,4.10,0.55,-3.75,-0.53,0.09,-0.64,0.00
3.182,-0.27,-0.69,-0.03,3.64,0.07,-3.50,-0.53,0.09,-0.64,0.00
3.189,-0.29,-0.72,0.00,3.64,0.07,-3.50,-0.53,0.09,-0.64,0.00
3.19,-0.29,-0.72,0.00,3.64,0.07,-3.50,-0.76,0.03,-0.86,0.00
3.19,-0.29,-0.72,0.00,3.32,-0.19,-3.11,-0.76,0.03,-0.86,0.00
3.2,-0.31,-0.75,0.03,3.32,-0.19,-3.11,-0.76,0.03,-0.86,0.00
3.201,-0.31,-0.75,0.03,3.32,-0.19,-3.11,-0.98,-0.06,-1.06,0.00
3.202,-0.31,-0.75,0.03,3.08,-0.31,-2.83,-0.98,-0.06,-1.06,0.00
3.209,-0.32,-0.78,0.04,3.08,-0.31,-2.83,-0.98,-0.06,-1.06,0.00
3.21,-0.32,-0.78,0.04,3.08,-0.31,-2.83,-1.16,-0.19,-1.25,0.00
3.211,-0.32,-0.78,0.04,2.86,-0.54,-2.58,-1.16,-0.19,-1.25,0.00
3.23,-0.34,-0.83,0.04,2.86,-0.54,-2.58,-1.16,-0.19,-1.25,0.00
3.232,-0.34,-0.83,0.04,2.86,-0.54,-2.58,-1.32,-0.30,-1.42,0.00
3.233,-0.34,-0.83,0.04,2.56,-0.91,-2.53,-1.32,-0.30,-1.42,0.00
3.234,-0.36,-0.90,0.05,2.56,-0.91,-2.53,-1.32,-0.30,-1.42,0.00
3.234,-0.36,-0.90,0.05,2.56,-0.91,-2.53,-1.49,-0.38,-1.59,0.00
3.235,-0.36,-0.90,0.05,2.26,-1.41,-2.38,-1.49,-0.38,-1.59,0.00
3.24,-0.39,-0.96,0.06,2.26,-1.41,-2.38,-1.49,-0.38,-1.59,0.00
3.241,-0.39,-0.96,0.06,2.26,-1.41,-2.38,-1.65,-0.41,-1.76,0.00
3.242,-0.39,-0.96,0.06,1.79,-1.90,-2.12,-1.65,-0.41,-1.76,0.00
3.25,-0.45,-1.05,0.11,1.79,-1.90,-2.12,-1.65,-0.41,-1.76,0.00
3.251,-0.45,-1.05,0.11,1.79,-1.90,-2.12,-1.82,-0.41,-1.92,0.00
3.252,-0.45,-1.05,0.11,1.04,-2.62,-1.55,-1.82,-0.41,-1.92,0.00
3.261,-0.52,-1.14,0.16,1.04,-2.62,-1.55,-1.82,-0.41,-1.92,0.00
3.262,-0.52,-1.14,0.16,1.04,-2.62,-1.55,-1.97,-0.42,-2.05,0.00
3.263,-0.52,-1.14,0.16,0.26,-3.36,-0.91,-1.97,-0.42,-2.05,0.00
3.27,-0.58,-1.23,0.22,0.26,-3.36,-0.91,-1.97,-0.42,-2.05,0.00
3.271,-0.58,-1.23,0.22,0.26,-3.36,-0.91,-2.11,-0.44,-2.15,0.00
3.272,-0.58,-1.23,0.22,-0.58,-3.99,-0.18,-2.11,-0.44,-2.15,0.00
3.281,-0.63,-1.29,0.27,-0.58,-3.99,-0.18,-2.11,-0.44,-2.15,0.00
3.282,-0.63,-1.29,0.27,-0.58,-3.99,-0.18,-2.21,-0.50,-2.21,0.00
3.283,-0.63,-1.29,0.27,-1.24,-4.47,0.49,-2.21,-0.50,-2.21,0.00
3.288,-0.66,-1.34,0.33,-1.24,-4.47,0.49,-2.21,-0.50,-2.21,0.00
3.289,-0.66,-1.34,0.33,-1.24,-4.47,0.49,-2.28,-0.58,-2.23,0.00
3.29,-0.66,-1.34,0.33,-1.70,-4.75,1.17,-2.28,-0.58,-2.23,0.00
3.298,-0.70,-1.35,0.37,-1.70,-4.75,1.17,-2.28,-0.58,-2.23,0.00
3.299,-0.70,-1.35,0.37,-1.70,-4.75,1.17,-2.30,-0.66,-2.21,0.00
3.3,-0.70,-1.35,0.37,-2.32,-4.74,1.79,-2.30,-0.66,-2.21,0.00
3.31,-0.71,-1.34,0.39,-2.32,-4.74,1.79,-2.30,-0.66,-2.21,0.00
3.31,-0.71,-1.34,0.39,-2.32,-4.74,1.79,-2.26,-0.77,-2.14,0.00
3.311,-0.71,-1.34,0.39,-2.57,-4.50,2.07,-2.26,-0.77,-2.14,0.00
3.325,-0.67,-1.36,0.35,-2.57,-4.50,2.07,-2.26,-0.77,-2.14,0.00
3.326,-0.67,-1.36,0.35,-2.57,-4.50,2.07,-2.18,-0.90,-2.02,0.00
3.327,-0.67,-1.36,0.35,-2.46,-4.57,1.85,-2.18,-0.90,-2.02,0.00
3.328,-0.60,-1.37,0.31,-2.46,-4.57,1.85,-2.18,-0.90,-2.02,0.00
3.329,-0.60,-1.37,0.31,-2.46,-4.57,1.85,-2.11,-1.04,-1.93,0.00
3.329,-0.60,-1.37,0.31,-1.92,-4.56,1.60,-2.11,-1.04,-1.93,0.00
3.339,-0.56,-1.31,0.30,-1.92,-4.56,1.60,-2.11,-1.04,-1.93,0.00
3.34,-0.56,-1.31,0.30,-1.92,-4.56,1.60,-2.08,-1.15,-1.91,0.00
3.341,-0.56,-1.31,0.30,-1.75,-3.90,1.68,-2.08,-1.15,-1.91,0.00
3.351,-0.58,-1.22,0.29,-1.75,-3.90,1.68,-2.08,-1.15,-1.91,0.00
3.352,-0.58,-1.22,0.29,-1.75,-3.90,1.68,-2.06,-1.23,-1.94,0.00
3.353,-0.58,-1.22,0.29,-2.12,-2.85,1.74,-2.06,-1.23,-1.94,0.00
3.36,-0.59,-1.16,0.28,-2.12,-2.85,1.74,-2.06,-1.23,-1.94,0.00
3.361,-0.59,-1.16,0.28,-2.12,-2.85,1.74,-2.01,-1.30,-1.94,0.00
3.361,-0.59,-1.16,0.28,-2.37,-2.19,1.75,-2.01,-1.30,-1.94,0.00
3.369,-0.56,-1.15,0.23,-2.37,-2.19,1.75,-2.01,-1.30,-1.94,0.00
3.37,-0.56,-1.15,0.23,-2.37,-2.19,1.75,-1.94,-1.31,-1.88,0.00
3.371,-0.56,-1.15,0.23,-2.30,-2.02,1.36,-1.94,-1.31,-1.88,0.00
3.38,-0.53,-1.17,0.17,-2.30,-2.02,1.36,-1.94,-1.31,-1.88,0.00
3.381,-0.53,-1.17,0.17,-2.30,-2.02,1.36,-1.88,-1.22,-1.83,0.00
3.382,-0.53,-1.17,0.17,-2.14,-2.13,0.96,-1.88,-1.22,-1.83,0.00
3.389,-0.52,-1.19,0.14,-2.14,-2.13,0.96,-1.88,-1.22,-1.83,0.00
3.39,-0.52,-1.19,0.14,-2.14,-2.13,0.96,-1.86,-0.98,-1.82,0.00
3.391,-0.52,-1.19,0.14,-2.26,-2.30,0.77,-1.86,-0.98,-1.82,0.00
3.4,-0.55,-1.22,0.13,-2.26,-2.30,0.77,-1.86,-0.98,-1.82,0.00
3.401,-0.55,-1.22,0.13,-2.26,-2.30,0.77,-1.87,-0.59,-1.83,0.00
3.402,-0.55,-1.22,0.13,-2.72,-2.56,0.87,-1.87,-0.59,-1.83,0.00
3.41,-0.59,-1.27,0.14,-2.72,-2.56,0.87,-1.87,-0.59,-1.83,0.00
3.411,-0.59,-1.27,0.14,-2.72,-2.56,0.87,-1.88,-0.09,-1.80,0.00
3.411,-0.59,-1.27,0.14,-3.29,-2.94,1.12,-1.88,-0.09,-1.80,0.00
3.42,-0.63,-1.31,0.17,-3.29,-2.94,1.12,-1.88,-0.09,-1.80,0.00
3.421,-0.63,-1.31,0.17,-3.29,-2.94,1.12,-1.87,0.45,-1.73,0.00
3.421,-0.63,-1.31,0.17,-3.84,-3.27,1.66,-1.87,0.45,-1.73,0.00
3.447,-0.67,-1.34,0.22,-3.84,-3.27,1.66,-1.87,0.45,-1.73,0.00
3.448,-0.67,-1.34,0.22,-3.84,-3.27,1.66,-1.84,0.96,-1.61,0.00
3.449,-0.67,-1.34,0.22,-4.38,-3.60,2.31,-1.84,0.96,-1.61,0.00
3.45,-0.70,-1.37,0.27,-4.38,-3.60,2.31,-1.84,0.96,-1.61,0.00
3.451,-0.70,-1.37,0.27,-4.38,-3.60,2.31,-1.76,1.34,-1.46,0.00
3.452,-0.70,-1.37,0.27,-4.82,-3.84,2.99,-1.76,1.34,-1.46,0.00
3.453,-0.68,-1.41,0.30,-4.82,-3.84,2.99,-1.76,1.34,-1.46,0.00
3.454,-0.68,-1.41,0.30,-4.82,-3.84,2.99,-1.65,1.57,-1.27,0.00
3.455,-0.68,-1.41,0.30,-4.77,-4.18,3.48,-1.65,1.57,-1.27,0.00
3.463,-0.66,-1.44,0.32,-4.77,-4.18,3.48,-1.65,1.57,-1.27,0.00
3.464,-0.66,-1.44,0.32,-4.77,-4.18,3.48,-1.53,1.65,-1.08,0.00
3.465,-0.66,-1.44,0.32,-4.67,-4.49,3.89,-1.53,1.65,-1.08,0.00
3.472,-0.65,-1.45,0.33,-4.67,-4.49,3.89,-1.53,1.65,-1.08,0.00
3.474,-0.65,-1.45,0.33,-4.67,-4.49,3.89,-1.38,1.62,-0.90,0.00
3.475,-0.65,-1.45,0.33,-4.68,-4.62,4.12,-1.38,1.62,-0.90,0.00
3.485,-0.66,-1.43,0.35,-4.68,-4.62,4.12,-1.38,1.62,-0.90,0.00
3.487,-0.66,-1.43,0.35,-4.68,-4.62,4.12,-1.21,1.52,-0.73,0.00
3.488,-0.66,-1.43,0.35,-4.82,-4.36,4.42,-1.21,1.52,-0.73,0.00
3.492,-0.66,-1.37,0.35,-4.82,-4.36,4.42,-1.21,1.52,-0.73,0.00
3.493,-0.66,-1.37,0.35,-4.82,-4.36,4.42,-1.03,1.35,-0.55,0.00
3.494,-0.66,-1.37,0.35,-4.88,-3.77,4.60,-1.03,1.35,-0.55,0.00
3.502,-0.64,-1.27,0.35,-4.88,-3.77,4.60,-1.03,1.35,-0.55,0.00
3.504,-0.64,-1.27,0.35,-4.88,-3.77,4.60,-0.81,1.11,-0.34,0.00
3.505,-0.64,-1.27,0.35,-4.76,-2.79,4.67,-0.81,1.11,-0.34,0.00
3.512,-0.60,-1.14,0.33,-4.76,-2.79,4.67,-0.81,1.11,-0.34,0.00
3.513,-0.60,-1.14,0.33,-4.76,-2.79,4.67,-0.57,0.83,-0.12,0.00
3.514,-0.60,-1.14,0.33,-4.46,-1.57,4.55,-0.57,0.83,-0.12,0.00
3.523,-0.57,-1.01,0.28,-4.46,-1.57,4.55,-0.57,0.83,-0.12,0.00
3.525,-0.57,-1.01,0.28,-4.46,-1.57,4.55,-0.29,0.55,0.09,0.00
3.526,-0.57,-1.01,0.28,-4.07,-0.26,4.13,-0.29,0.55,0.09,0.00
3.546,-0.52,-0.89,0.23,-4.07,-0.26,4.13,-0.29,0.55,0.09,0.00
3.547,-0.52,-0.89,0.23,-4.07,-0.26,4.13,-0.01,0.32,0.31,0.00
3.548,-0.52,-0.89,0.23,-3.56,0.87,3.63,-0.01,0.32,0.31,0.00
3.549,-0.47,-0.79,0.17,-3.56,0.87,3.63,-0.01,0.32,0.31,0.00
3.549,-0.47,-0.79,0.17,-3.56,0.87,3.63,0.28,0.15,0.52,0.00
3.55,-0.47,-0.79,0.17,-3.01,1.81,3.02,0.28,0.15,0.52,0.00
3.551,-0.42,-0.72,0.13,-3.01,1.81,3.02,0.28,0.15,0.52,0.00
3.551,-0.42,-0.72,0.13,-3.01,1.81,3.02,0.54,0.06,0.69,0.00
3.552,-0.42,-0.72,0.13,-2.54,2.53,2.54,0.54,0.06,0.69,0.00
3.562,-0.39,-0.65,0.09,-2.54,2.53,2.54,0.54,0.06,0.69,0.00
3.563,-0.39,-0.65,0.09,-2.54,2.53,2.54,0.76,0.05,0.85,0.00
3.564,-0.39,-0.65,0.09,-2.08,3.26,2.12,0.76,0.05,0.85,0.00
3.572,-0.36,-0.58,0.07,-2.08,3.26,2.12,0.76,0.05,0.85,0.00
3.573,-0.36,-0.58,0.07,-2.08,3.26,2.12,0.97,0.10,0.98,0.00
3.574,-0.36,-0.58,0.07,-1.73,3.88,1.85,0.97,0.10,0.98,0.00
3.581,-0.35,-0.52,0.07,-1.73,3.88,1.85,0.97,0.10,0.98,0.00
3.583,-0.35,-0.52,0.07,-1.73,3.88,1.85,1.16,0.23,1.11,0.00
3.583,-0.35,-0.52,0.07,-1.51,4.43,1.72,1.16,0.23,1.11,0.00
3.591,-0.32,-0.50,0.06,-1.51,4.43,1.72,1.16,0.23,1.11,0.00
3.592,-0.32,-0.50,0.06,-1.51,4.43,1.72,1.32,0.39,1.23,0.00
3.593,-0.32,-0.50,0.06,-1.14,4.69,1.49,1.32,0.39,1.23,0.00
3.602,-0.30,-0.48,0.06,-1.14,4.69,1.49,1.32,0.39,1.23,0.00
3.603,-0.30,-0.48,0.06,-1.14,4.69,1.49,1.46,0.57,1.35,0.00
3.604,-0.30,-0.48,0.06,-0.80,4.80,1.35,1.46,0.57,1.35,0.00
3.614,-0.28,-0.49,0.06,-0.80,4.80,1.35,1.46,0.57,1.35,0.00
3.615,-0.28,-0.49,0.06,-0.80,4.80,1.35,1.56,0.76,1.44,0.00
3.616,-0.28,-0.49,0.06,-0.45,4.76,1.20,1.56,0.76,1.44,0.00
3.622,-0.28,-0.50,0.05,-0.45,4.76,1.20,1.56,0.76,1.44,0.00
3.622,-0.28,-0.50,0.05,-0.45,4.76,1.20,1.64,0.95,1.51,0.00
3.623,-0.28,-0.50,0.05,-0.31,4.60,0.95,1.64,0.95,1.51,0.00
3.633,-0.28,-0.52,0.06,-0.31,4.60,0.95,1.64,0.95,1.51,0.00
3.634,-0.28,-0.52,0.06,-0.31,4.60,0.95,1.68,1.13,1.57,0.00
3.635,-0.28,-0.52,0.06,-0.23,4.39,0.93,1.68,1.13,1.57,0.00
3.644,-0.29,-0.54,0.06,-0.23,4.39,0.93,1.68,1.13,1.57,0.00
3.645,-0.29,-0.54,0.06,-0.23,4.39,0.93,1.69,1.28,1.62,0.00
3.646,-0.29,-0.54,0.06,-0.11,4.10,0.82,1.69,1.28,1.62,0.00
3.667,-0.29,-0.58,0.07,-0.11,4.10,0.82,1.69,1.28,1.62,0.00
3.669,-0.29,-0.58,0.07,-0.11,4.10,0.82,1.67,1.37,1.66,0.00
3.67,-0.29,-0.58,0.07,0.05,3.73,0.80,1.67,1.37,1.66,0.00
3.671,-0.30,-0.62,0.08,0.05,3.73,0.80,1.67,1.37,1.66,0.00
3.672,-0.30,-0.62,0.08,0.05,3.73,0.80,1.61,1.41,1.69,0.00
3.673,-0.30,-0.62,0.08,0.04,3.27,0.78,1.61,1.41,1.69,0.00
3.674,-0.30,-0.65,0.07,0.04,3.27,0.78,1.61,1.41,1.69,0.00
3.675,-0.30,-0.65,0.07,0.04,3.27,0.78,1.54,1.41,1.70,0.00
3.676,-0.30,-0.65,0.07,0.25,2.86,0.60,1.54,1.41,1.70,0.00
3.688,-0.30,-0.72,0.07,0.25,2.86,0.60,1.54,1.41,1.70,0.00
3.69,-0.30,-0.72,0.07,0.25,2.86,0.60,1.45,1.38,1.70,0.00
3.691,-0.30,-0.72,0.07,0.41,2.15,0.52,1.45,1.38,1.70,0.00
3.692,-0.30,-0.79,0.08,0.41,2.15,0.52,1.45,1.38,1.70,0.00
3.693,-0.30,-0.79,0.08,0.41,2.15,0.52,1.32,1.31,1.68,0.00
3.694,-0.30,-0.79,0.08,0.52,1.45,0.47,1.32,1.31,1.68,0.00
3.704,-0.30,-0.86,0.06,0.52,1.45,0.47,1.32,1.31,1.68,0.00
3.705,-0.30,-0.86,0.06,0.52,1.45,0.47,1.15,1.20,1.65,0.00
3.706,-0.30,-0.86,0.06,0.73,0.69,0.30,1.15,1.20,1.65,0.00
3.715,-0.31,-0.93,0.07,0.73,0.69,0.30,1.15,1.20,1.65,0.00
3.716,-0.31,-0.93,0.07,0.73,0.69,0.30,0.95,1.06,1.59,0.00
3.717,-0.31,-0.93,0.07,0.79,-0.13,0.31,0.95,1.06,1.59,0.00
3.724,-0.33,-1.03,0.06,0.79,-0.13,0.31,0.95,1.06,1.59,0.00
3.725,-0.33,-1.03,0.06,0.79,-0.13,0.31,0.73,0.87,1.50,0.00
3.726,-0.33,-1.03,0.06,0.72,-1.08,0.21,0.73,0.87,1.50,0.00
3.733,-0.35,-1.12,0.07,0.72,-1.08,0.21,0.73,0.87,1.50,0.00
3.734,-0.35,-1.12,0.07,0.72,-1.08,0.21,0.50,0.64,1.41,0.00
3.735,-0.35,-1.12,0.07,0.66,-2.04,0.25,0.50,0.64,1.41,0.00
3.744,-0.35,-1.19,0.09,0.66,-2.04,0.25,0.50,0.64,1.41,0.00
3.745,-0.35,-1.19,0.09,0.66,-2.04,0.25,0.26,0.39,1.33,0.00
3.746,-0.35,-1.19,0.09,0.74,-2.82,0.43,0.26,0.39,1.33,0.00
3.766,-0.33,-1.24,0.11,0.74,-2.82,0.43,0.26,0.39,1.33,0.00
3.767,-0.33,-1.24,0.11,0.74,-2.82,0.43,0.03,0.12,1.26,0.00
3.768,-0.33,-1.24,0.11,1.08,-3.38,0.64,0.03,0.12,1.26,0.00
3.769,-0.29,-1.27,0.12,1.08,-3.38,0.64,0.03,0.12,1.26,0.00
3.769,-0.29,-1.27,0.12,1.08,-3.38,0.64,-0.17,-0.18,1.19,0.00
3.77,-0.29,-1.27,0.12,1.58,-3.74,0.80,-0.17,-0.18,1.19,0.00
3.775,-0.26,-1.29,0.11,1.58,-3.74,0.80,-0.17,-0.18,1.19,0.00
3.776,-0.26,-1.29,0.11,1.58,-3.74,0.80,-0.32,-0.49,1.10,0.00
3.777,-0.26,-1.29,0.11,1.94,-3.99,0.66,-0.32,-0.49,1.10,0.00
3.785,-0.24,-1.30,0.10,1.94,-3.99,0.66,-0.32,-0.49,1.10,0.00
3.786,-0.24,-1.30,0.10,1.94,-3.99,0.66,-0.43,-0.77,1.00,0.00
3.787,-0.24,-1.30,0.10,2.23,-4.11,0.52,-0.43,-0.77,1.00,0.00
3.795,-0.25,-1.31,0.08,2.23,-4.11,0.52,-0.43,-0.77,1.00,0.00
3.796,-0.25,-1.31,0.08,2.23,-4.11,0.52,-0.51,-1.03,0.91,0.00
3.797,-0.25,-1.31,0.08,2.26,-4.21,0.37,-0.51,-1.03,0.91,0.00
3.805,-0.23,-1.32,0.06,2.26,-4.21,0.37,-0.51,-1.03,0.91,0.00
3.806,-0.23,-1.32,0.06,2.26,-4.21,0.37,-0.55,-1.25,0.82,0.00
3.806,-0.23,-1.32,0.06,2.44,-4.33,0.15,-0.55,-1.25,0.82,0.00
3.815,-0.22,-1.34,0.04,2.44,-4.33,0.15,-0.55,-1.25,0.82,0.00
3.816,-0.22,-1.34,0.04,2.44,-4.33,0.15,-0.58,-1.42,0.73,0.00
3.817,-0.22,-1.34,0.04,2.64,-4.59,-0.03,-0.58,-1.42,0.73,0.00
3.824,-0.18,-1.38,0.01,2.64,-4.59,-0.03,-0.58,-1.42,0.73,0.00
3.827,-0.18,-1.38,0.01,2.64,-4.59,-0.03,-0.58,-1.51,0.63,0.00
3.828,-0.18,-1.38,0.01,3.03,-5.02,-0.35,-0.58,-1.51,0.63,0.00
3.834,-0.18,-1.40,-0.01,3.03,-5.02,-0.35,-0.58,-1.51,0.63,0.00
3.835,-0.18,-1.40,-0.01,3.03,-5.02,-0.35,-0.58,-1.51,0.50,0.00
3.836,-0.18,-1.40,-0.01,3.08,-5.21,-0.58,-0.58,-1.51,0.50,0.00
3.844,-0.19,-1.37,0.01,3.08,-5.21,-0.58,-0.58,-1.51,0.50,0.00
3.845,-0.19,-1.37,0.01,3.08,-5.21,-0.58,-0.57,-1.41,0.36,0.00
3.846,-0.19,-1.37,0.01,3.00,-4.99,-0.44,-0.57,-1.41,0.36,0.00
3.854,-0.22,-1.34,0.02,3.00,-4.99,-0.44,-0.57,-1.41,0.36,0.00
3.855,-0.22,-1.34,0.02,3.00,-4.99,-0.44,-0.53,-1.25,0.23,0.00
3.857,-0.22,-1.34,0.02,2.75,-4.63,-0.36,-0.53,-1.25,0.23,0.00
3.875,-0.25,-1.29,0.01,2.75,-4.63,-0.36,-0.53,-1.25,0.23,0.00
3.876,-0.25,-1.29,0.01,2.75,-4.63,-0.36,-0.45,-1.08,0.14,0.00
3.878,-0.25,-1.29,0.01,2.46,-4.20,-0.50,-0.45,-1.08,0.14,0.00
3.879,-0.26,-1.24,-0.02,2.46,-4.20,-0.50,-0.45,-1.08,0.14,0.00
3.879,-0.26,-1.24,-0.02,2.46,-4.20,-0.50,-0.31,-0.91,0.10,0.00
3.88,-0.26,-1.24,-0.02,2.35,-3.66,-0.73,-0.31,-0.91,0.10,0.00
3.884,-0.26,-1.15,-0.04,2.35,-3.66,-0.73,-0.31,-0.91,0.10,0.00
3.884,-0.26,-1.15,-0.04,2.35,-3.66,-0.73,-0.14,-0.75,0.10,0.00
3.885,-0.26,-1.15,-0.04,2.39,-2.81,-1.03,-0.14,-0.75,0.10,0.00
3.894,-0.26,-1.09,-0.07,2.39,-2.81,-1.03,-0.14,-0.75,0.10,0.00
3.895,-0.26,-1.09,-0.07,2.39,-2.81,-1.03,0.04,-0.64,0.14,0.00
3.895,-0.26,-1.09,-0.07,2.35,-2.19,-1.32,0.04,-0.64,0.14,0.00
3.905,-0.26,-1.08,-0.11,2.35,-2.19,-1.32,0.04,-0.64,0.14,0.00
3.906,-0.26,-1.08,-0.11,2.35,-2.19,-1.32,0.20,-0.60,0.20,0.00
3.907,-0.26,-1.08,-0.11,2.40,-2.18,-1.80,0.20,-0.60,0.20,0.00
3.916,-0.23,-1.12,-0.15,2.40,-2.18,-1.80,0.20,-0.60,0.20,0.00
3.917,-0.23,-1.12,-0.15,2.40,-2.18,-1.80,0.34,-0.59,0.26,0.00
3.918,-0.23,-1.12,-0.15,2.74,-2.55,-2.21,0.34,-0.59,0.26,0.00
3.924,-0.18,-1.16,-0.17,2.74,-2.55,-2.21,0.34,-0.59,0.26,0.00
3.925,-0.18,-1.16,-0.17,2.74,-2.55,-2.21,0.43,-0.58,0.30,0.00
3.925,-0.18,-1.16,-0.17,3.19,-3.01,-2.43,0.43,-0.58,0.30,0.00
3.935,-0.18,-1.23,-0.17,3.19,-3.01,-2.43,0.43,-0.58,0.30,0.00
3.936,-0.18,-1.23,-0.17,3.19,-3.01,-2.43,0.47,-0.56,0.29,0.00
3.937,-0.18,-1.23,-0.17,3.25,-3.64,-2.52,0.47,-0.56,0.29,0.00
3.946,-0.20,-1.28,-0.15,3.25,-3.64,-2.52,0.47,-0.56,0.29,0.00
3.947,-0.20,-1.28,-0.15,3.25,-3.64,-2.52,0.44,-0.56,0.24,0.00
3.948,-0.20,-1.28,-0.15,3.05,-4.18,-2.44,0.44,-0.56,0.24,0.00
3.957,-0.24,-1.27,-0.11,3.05,-4.18,-2.44,0.44,-0.56,0.24,0.00
3.958,-0.24,-1.27,-0.11,3.05,-4.18,-2.44,0.38,-0.57,0.17,0.00
3.959,-0.24,-1.27,-0.11,2.72,-4.12,-2.07,0.38,-0.57,0.17,0.00
3.978,-0.28,-1.23,-0.06,2.72,-4.12,-2.07,0.38,-0.57,0.17,0.00
3.979,-0.28,-1.23,-0.06,2.72,-4.12,-2.07,0.29,-0.61,0.10,0.00
3.98,-0.28,-1.23,-0.06,2.29,-3.74,-1.66,0.29,-0.61,0.10,0.00
3.981,-0.31,-1.18,-0.02,2.29,-3.74,-1.66,0.29,-0.61,0.10,0.00
3.982,-0.31,-1.18,-0.02,2.29,-3.74,-1.66,0.20,-0.70,0.04,0.00
3.982,-0.31,-1.18,-0.02,2.00,-3.17,-1.27,0.20,-0.70,0.04,0.00
3.983,-0.32,-1.09,0.00,2.00,-3.17,-1.27,0.20,-0.70,0.04,0.00
3.984,-0.32,-1.09,0.00,2.00,-3.17,-1.27,0.12,-0.83,-0.00,0.00
3.985,-0.32,-1.09,0.00,1.91,-2.31,-1.15,0.12,-0.83,-0.00,0.00
3.995,-0.30,-0.99,0.02,1.91,-2.31,-1.15,0.12,-0.83,-0.00,0.00
3.996,-0.30,-0.99,0.02,1.91,-2.31,-1.15,0.05,-0.97,-0.05,0.00
3.997,-0.30,-0.99,0.02,2.05,-1.38,-1.01,0.05,-0.97,-0.05,0.00
4.006,-0.28,-0.89,0.00,2.05,-1.38,-1.01,0.05,-0.97,-0.05,0.00
4.008,-0.28,-0.89,0.00,2.05,-1.38,-1.01,-0.01,-1.07,-0.13,0.00
4.009,-0.28,-0.89,0.00,2.19,-0.38,-1.24,-0.01,-1.07,-0.13,0.00
4.018,-0.28,-0.78,-0.01,2.19,-0.38,-1.24,-0.01,-1.07,-0.13,0.00
4.02,-0.28,-0.78,-0.01,2.19,-0.38,-1.24,-0.06,-1.14,-0.21,0.00
4.021,-0.28,-0.78,-0.01,2.23,0.68,-1.43,-0.06,-1.14,-0.21,0.00
4.026,-0.27,-0.69,-0.04,2.23,0.68,-1.43,-0.06,-1.14,-0.21,0.00
4.027,-0.27,-0.69,-0.04,2.23,0.68,-1.43,-0.09,-1.15,-0.28,0.00
4.028,-0.27,-0.69,-0.04,2.29,1.66,-1.77,-0.09,-1.15,-0.28,0.00
4.037,-0.26,-0.59,-0.06,2.29,1.66,-1.77,-0.09,-1.15,-0.28,0.00
4.039,-0.26,-0.59,-0.06,2.29,1.66,-1.77,-0.11,-1.12,-0.34,0.00
4.039,-0.26,-0.59,-0.06,2.30,2.58,-2.05,-0.11,-1.12,-0.34,0.00
4.049,-0.25,-0.50,-0.07,2.30,2.58,-2.05,-0.11,-1.12,-0.34,0.00
4.05,-0.25,-0.50,-0.07,2.30,2.58,-2.05,-0.13,-1.06,-0.38,0.00
4.051,-0.25,-0.50,-0.07,2.40,3.51,-2.14,-0.13,-1.06,-0.38,0.00
4.059,-0.24,-0.43,-0.07,2.40,3.51,-2.14,-0.13,-1.06,-0.38,0.00
4.06,-0.24,-0.43,-0.07,2.40,3.51,-2.14,-0.16,-0.98,-0.42,0.00
4.061,-0.24,-0.43,-0.07,2.43,4.22,-2.17,-0.16,-0.98,-0.42,0.00
4.066,-0.23,-0.37,-0.06,2.43,4.22,-2.17,-0.16,-0.98,-0.42,0.00
4.068,-0.23,-0.37,-0.06,2.43,4.22,-2.17,-0.19,-0.90,-0.45,0.00
4.069,-0.23,-0.37,-0.06,2.50,4.83,-2.13,-0.19,-0.90,-0.45,0.00
4.076,-0.21,-0.33,-0.05,2.50,4.83,-2.13,-0.19,-0.90,-0.45,0.00
4.076,-0.21,-0.33,-0.05,2.50,4.83,-2.13,-0.22,-0.80,-0.47,0.00
4.077,-0.21,-0.33,-0.05,2.57,5.23,-2.05,-0.22,-0.80,-0.47,0.00
4.086,-0.22,-0.31,-0.03,2.57,5.23,-2.05,-0.22,-0.80,-0.47,0.00
4.087,-0.22,-0.31,-0.03,2.57,5.23,-2.05,-0.25,-0.69,-0.50,0.00
4.088,-0.22,-0.31,-0.03,2.45,5.50,-1.82,-0.25,-0.69,-0.50,0.00
4.112,-0.22,-0.29,-0.01,2.45,5.50,-1.82,-0.25,-0.69,-0.50,0.00
4.113,-0.22,-0.29,-0.01,2.45,5.50,-1.82,-0.29,-0.58,-0.53,0.00
4.114,-0.22,-0.29,-0.01,2.36,5.67,-1.62,-0.29,-0.58,-0.53,0.00
4.115,-0.22,-0.29,0.01,2.36,5.67,-1.62,-0.29,-0.58,-0.53,0.00
4.116,-0.22,-0.29,0.01,2.36,5.67,-1.62,-0.33,-0.48,-0.56,0.00
4.116,-0.22,-0.29,0.01,2.33,5.73,-1.44,-0.33,-0.48,-0.56,0.00
4.117,-0.23,-0.30,0.03,2.33,5.73,-1.44,-0.33,-0.48,-0.56,0.00
4.118,-0.23,-0.30,0.03,2.33,5.73,-1.44,-0.38,-0.39,-0.60,0.00
4.119,-0.23,-0.30,0.03,2.15,5.70,-1.21,-0.38,-0.39,-0.60,0.00
4.128,-0.24,-0.32,0.04,2.15,5.70,-1.21,-0.38,-0.39,-0.60,0.00
4.129,-0.24,-0.32,0.04,2.15,5.70,-1.21,-0.45,-0.33,-0.65,0.00
4.129,-0.24,-0.32,0.04,2.05,5.54,-1.07,-0.45,-0.33,-0.65,0.00
4.139,-0.24,-0.35,0.06,2.05,5.54,-1.07,-0.45,-0.33,-0.65,0.00
4.14,-0.24,-0.35,0.06,2.05,5.54,-1.07,-0.54,-0.28,-0.72,0.00
4.141,-0.24,-0.35,0.06,1.95,5.24,-0.91,-0.54,-0.28,-0.72,0.00
4.149,-0.24,-0.40,0.07,1.95,5.24,-0.91,-0.54,-0.28,-0.72,0.00
4.15,-0.24,-0.40,0.07,1.95,5.24,-0.91,-0.63,-0.26,-0.81,0.00
4.151,-0.24,-0.40,0.07,1.92,4.79,-0.75,-0.63,-0.26,-0.81,0.00
4.158,-0.24,-0.44,0.07,1.92,4.79,-0.75,-0.63,-0.26,-0.81,0.00
4.159,-0.24,-0.44,0.07,1.92,4.79,-0.75,-0.73,-0.24,-0.92,0.00
4.16,-0.24,-0.44,0.07,1.76,4.43,-0.66,-0.73,-0.24,-0.92,0.00
4.168,-0.25,-0.48,0.07,1.76,4.43,-0.66,-0.73,-0.24,-0.92,0.00
4.17,-0.25,-0.48,0.07,1.76,4.43,-0.66,-0.84,-0.20,-1.04,0.00
4.17,-0.25,-0.48,0.07,1.57,4.15,-0.62,-0.84,-0.20,-1.04,0.00
4.178,-0.25,-0.53,0.06,1.57,4.15,-0.62,-0.84,-0.20,-1.04,0.00
4.179,-0.25,-0.53,0.06,1.57,4.15,-0.62,-0.94,-0.12,-1.17,0.00
4.18,-0.25,-0.53,0.06,1.52,3.72,-0.67,-0.94,-0.12,-1.17,0.00
4.199,-0.26,-0.58,0.05,1.52,3.72,-0.67,-0.94,-0.12,-1.17,0.00
4.2,-0.26,-0.58,0.05,1.52,3.72,-0.67,-1.06,-0.01,-1.30,0.00
4.201,-0.26,-0.58,0.05,1.33,3.23,-0.65,-1.06,-0.01,-1.30,0.00
4.204,-0.26,-0.65,0.04,1.33,3.23,-0.65,-1.06,-0.01,-1.30,0.00
4.205,-0.26,-0.65,0.04,1.33,3.23,-0.65,-1.18,0.14,-1.44,0.00
4.206,-0.26,-0.65,0.04,1.12,2.65,-0.63,-1.18,0.14,-1.44,0.00
4.206,-0.29,-0.75,0.05,1.12,2.65,-0.63,-1.18,0.14,-1.44,0.00
4.207,-0.29,-0.75,0.05,1.12,2.65,-0.63,-1.31,0.29,-1.57,0.00
4.208,-0.29,-0.75,0.05,0.73,1.79,-0.42,-1.31,0.29,-1.57,0.00
4.219,-0.33,-0.85,0.05,0.73,1.79,-0.42,-1.31,0.29,-1.57,0.00
4.22,-0.33,-0.85,0.05,0.73,1.79,-0.42,-1.43,0.43,-1.71,0.00
4.221,-0.33,-0.85,0.05,0.22,0.86,-0.25,-1.43,0.43,-1.71,0.00
4.228,-0.36,-0.95,0.05,0.22,0.86,-0.25,-1.43,0.43,-1.71,0.00
4.229,-0.36,-0.95,0.05,0.22,0.86,-0.25,-1.54,0.53,-1.83,0.00
4.23,-0.36,-0.95,0.05,-0.29,-0.06,-0.05,-1.54,0.53,-1.83,0.00
4.238,-0.38,-1.04,0.06,-0.29,-0.06,-0.05,-1.54,0.53,-1.83,0.00
4.239,-0.38,-1.04,0.06,-0.29,-0.06,-0.05,-1.64,0.62,-1.93,0.00
4.24,-0.38,-1.04,0.06,-0.69,-0.91,0.20,-1.64,0.62,-1.93,0.00
4.25,-0.43,-1.12,0.07,-0.69,-0.91,0.20,-1.64,0.62,-1.93,0.00
4.251,-0.43,-1.12,0.07,-0.69,-0.91,0.20,-1.72,0.66,-2.01,0.00
4.252,-0.43,-1.12,0.07,-1.37,-1.63,0.47,-1.72,0.66,-2.01,0.00
4.258,-0.48,-1.20,0.07,-1.37,-1.63,0.47,-1.72,0.66,-2.01,0.00
4.259,-0.48,-1.20,0.07,-1.37,-1.63,0.47,-1.77,0.66,-2.04,0.00
4.259,-0.48,-1.20,0.07,-1.99,-2.33,0.67,-1.77,0.66,-2.04,0.00
4.268,-0.51,-1.28,0.07,-1.99,-2.33,0.67,-1.77,0.66,-2.04,0.00
4.269,-0.51,-1.28,0.07,-1.99,-2.33,0.67,-1.80,0.63,-2.03,0.00
4.27,-0.51,-1.28,0.07,-2.48,-3.05,0.84,-1.80,0.63,-2.03,0.00
4.278,-0.51,-1.36,0.07,-2.48,-3.05,0.84,-1.80,0.63,-2.03,0.00
4.279,-0.51,-1.36,0.07,-2.48,-3.05,0.84,-1.80,0.57,-1.98,0.00
4.28,-0.51,-1.36,0.07,-2.68,-3.85,1.07,-1.80,0.57,-1.98,0.00
4.289,-0.51,-1.44,0.07,-2.68,-3.85,1.07,-1.80,0.57,-1.98,0.00
4.29,-0.51,-1.44,0.07,-2.68,-3.85,1.07,-1.79,0.47,-1.94,0.00
4.291,-0.51,-1.44,0.07,-2.91,-4.51,1.21,-1.79,0.47,-1.94,0.00
4.316,-0.55,-1.48,0.08,-2.91,-4.51,1.21,-1.79,0.47,-1.94,0.00
4.318,-0.55,-1.48,0.08,-2.91,-4.51,1.21,-1.77,0.38,-1.90,0.00
4.319,-0.55,-1.48,0.08,-3.45,-4.94,1.51,-1.77,0.38,-1.90,0.00
4.32,-0.58,-1.51,0.09,-3.45,-4.94,1.51,-1.77,0.38,-1.90,0.00
4.321,-0.58,-1.51,0.09,-3.45,-4.94,1.51,-1.72,0.27,-1.84,0.00
4.322,-0.58,-1.51,0.09,-3.96,-5.19,1.74,-1.72,0.27,-1.84,0.00
4.323,-0.60,-1.53,0.10,-3.96,-5.19,1.74,-1.72,0.27,-1.84,0.00
4.324,-0.60,-1.53,0.10,-3.96,-5.19,1.74,-1.62,0.16,-1.74,0.00
4.325,-0.60,-1.53,0.10,-4.35,-5.36,2.03,-1.62,0.16,-1.74,0.00
4.326,-0.60,-1.51,0.12,-4.35,-5.36,2.03,-1.62,0.16,-1.74,0.00
4.327,-0.60,-1.51,0.12,-4.35,-5.36,2.03,-1.50,0.01,-1.59,0.00
4.328,-0.60,-1.51,0.12,-4.51,-5.16,2.36,-1.50,0.01,-1.59,0.00
4.342,-0.60,-1.46,0.13,-4.51,-5.16,2.36,-1.50,0.01,-1.59,0.00
4.343,-0.60,-1.46,0.13,-4.51,-5.16,2.36,-1.33,-0.16,-1.45,0.00
4.345,-0.60,-1.46,0.13,-4.64,-4.64,2.60,-1.33,-0.16,-1.45,0.00
4.361,-0.59,-1.40,0.12,-4.64,-4.64,2.60,-1.33,-0.16,-1.45,0.00
4.363,-0.59,-1.40,0.12,-4.64,-4.64,2.60,-1.12,-0.38,-1.29,0.00
4.364,-0.59,-1.40,0.12,-4.65,-4.08,2.56,-1.12,-0.38,-1.29,0.00
4.365,-0.55,-1.40,0.07,-4.65,-4.08,2.56,-1.12,-0.38,-1.29,0.00
4.366,-0.55,-1.40,0.07,-4.65,-4.08,2.56,-0.90,-0.58,-1.13,0.00
4.367,-0.55,-1.40,0.07,-4.31,-4.11,2.19,-0.90,-0.58,-1.13,0.00
4.368,-0.51,-1.42,0.01,-4.31,-4.11,2.19,-0.90,-0.58,-1.13,0.00
4.368,-0.51,-1.42,0.01,-4.31,-4.11,2.19,-0.68,-0.76,-0.98,0.00
4.369,-0.51,-1.42,0.01,-4.05,-4.28,1.66,-0.68,-0.76,-0.98,0.00
4.38,-0.52,-1.37,-0.02,-4.05,-4.28,1.66,-0.68,-0.76,-0.98,0.00
4.381,-0.52,-1.37,-0.02,-4.05,-4.28,1.66,-0.50,-0.86,-0.88,0.00
4.382,-0.52,-1.37,-0.02,-4.15,-3.78,1.43,-0.50,-0.86,-0.88,0.00
4.39,-0.55,-1.30,0.00,-4.15,-3.78,1.43,-0.50,-0.86,-0.88,0.00
4.392,-0.55,-1.30,0.00,-4.15,-3.78,1.43,-0.36,-0.81,-0.77,0.00
4.392,-0.55,-1.30,0.00,-4.51,-3.09,1.64,-0.36,-0.81,-0.77,0.00
4.401,-0.56,-1.24,0.03,-4.51,-3.09,1.64,-0.36,-0.81,-0.77,0.00
4.401,-0.56,-1.24,0.03,-4.51,-3.09,1.64,-0.23,-0.68,-0.64,0.00
4.402,-0.56,-1.24,0.03,-4.70,-2.56,1.95,-0.23,-0.68,-0.64,0.00
4.41,-0.57,-1.19,0.07,-4.70,-2.56,1.95,-0.23,-0.68,-0.64,0.00
4.411,-0.57,-1.19,0.07,-4.70,-2.56,1.95,-0.09,-0.49,-0.49,0.00
4.412,-0.57,-1.19,0.07,-4.80,-2.07,2.30,-0.09,-0.49,-0.49,0.00
4.431,-0.56,-1.13,0.08,-4.80,-2.07,2.30,-0.09,-0.49,-0.49,0.00
4.433,-0.56,-1.13,0.08,-4.80,-2.07,2.30,0.04,-0.28,-0.34,0.00
4.434,-0.56,-1.13,0.08,-4.79,-1.40,2.45,0.04,-0.28,-0.34,0.00
4.435,-0.53,-1.09,0.08,-4.79,-1.40,2.45,0.04,-0.28,-0.34,0.00
4.435,-0.53,-1.09,0.08,-4.79,-1.40,2.45,0.18,-0.04,-0.16,0.00
4.436,-0.53,-1.09,0.08,-4.48,-1.00,2.42,0.18,-0.04,-0.16,0.00
4.437,-0.50,-1.07,0.07,-4.48,-1.00,2.42,0.18,-0.04,-0.16,0.00
4.438,-0.50,-1.07,0.07,-4.48,-1.00,2.42,0.31,0.23,0.01,0.00
4.439,-0.50,-1.07,0.07,-4.14,-0.81,2.25,0.31,0.23,0.01,0.00
4.451,-0.48,-1.04,0.05,-4.14,-0.81,2.25,0.31,0.23,0.01,0.00
4.452,-0.48,-1.04,0.05,-4.14,-0.81,2.25,0.41,0.55,0.17,0.00
4.453,-0.48,-1.04,0.05,-3.96,-0.54,2.05,0.41,0.55,0.17,0.00
4.46,-0.48,-1.03,0.06,-3.96,-0.54,2.05,0.41,0.55,0.17,0.00
4.461,-0.48,-1.03,0.06,-3.96,-0.54,2.05,0.50,0.90,0.34,0.00
4.462,-0.48,-1.03,0.06,-3.99,-0.46,2.05,0.50,0.90,0.34,0.00
4.471,-0.48,-1.06,0.07,-3.99,-0.46,2.05,0.50,0.90,0.34,0.00
4.472,-0.48,-1.06,0.07,-3.99,-0.46,2.05,0.57,1.21,0.51,0.00
4.473,-0.48,-1.06,0.07,-3.91,-0.77,2.10,0.57,1.21,0.51,0.00
4.48,-0.48,-1.12,0.07,-3.91,-0.77,2.10,0.57,1.21,0.51,0.00
4.481,-0.48,-1.12,0.07,-3.91,-0.77,2.10,0.64,1.43,0.67,0.00
4.481,-0.48,-1.12,0.07,-3.90,-1.28,2.09,0.64,1.43,0.67,0.00
4.49,-0.49,-1.15,0.09,-3.90,-1.28,2.09,0.64,1.43,0.67,0.00
4.491,-0.49,-1.15,0.09,-3.90,-1.28,2.09,0.71,1.55,0.84,0.00
4.491,-0.49,-1.15,0.09,-3.86,-1.62,2.24,0.71,1.55,0.84,0.00
4.5,-0.49,-1.20,0.10,-3.86,-1.62,2.24,0.71,1.55,0.84,0.00
4.501,-0.49,-1.20,0.10,-3.86,-1.62,2.24,0.76,1.59,0.99,0.00
4.502,-0.49,-1.20,0.10,-3.85,-2.10,2.24,0.76,1.59,0.99,0.00
4.51,-0.47,-1.27,0.10,-3.85,-2.10,2.24,0.76,1.59,0.99,0.00
4.51,-0.47,-1.27,0.10,-3.85,-2.10,2.24,0.81,1.56,1.14,0.00
4.511,-0.47,-1.27,0.10,-3.55,-2.74,2.18,0.81,1.56,1.14,0.00
4.519,-0.44,-1.32,0.09,-3.55,-2.74,2.18,0.81,1.56,1.14,0.00
4.52,-0.44,-1.32,0.09,-3.55,-2.74,2.18,0.85,1.49,1.26,0.00
4.521,-0.44,-1.32,0.09,-3.17,-3.29,2.01,0.85,1.49,1.26,0.00
4.548,-0.43,-1.33,0.10,-3.17,-3.29,2.01,0.85,1.49,1.26,0.00
4.551,-0.43,-1.33,0.10,-3.17,-3.29,2.01,0.88,1.40,1.37,0.00
4.552,-0.43,-1.33,0.10,-2.98,-3.41,2.06,0.88,1.40,1.37,0.00
4.552,-0.42,-1.32,0.11,-2.98,-3.41,2.06,0.88,1.40,1.37,0.00
4.553,-0.42,-1.32,0.11,-2.98,-3.41,2.06,0.91,1.29,1.46,0.00
4.554,-0.42,-1.32,0.11,-2.74,-3.27,2.08,0.91,1.29,1.46,0.00
4.555,-0.39,-1.27,0.12,-2.74,-3.27,2.08,0.91,1.29,1.46,0.00
4.556,-0.39,-1.27,0.12,-2.74,-3.27,2.08,0.94,1.15,1.54,0.00
4.557,-0.39,-1.27,0.12,-2.31,-2.86,2.08,0.94,1.15,1.54,0.00
4.563,-0.36,-1.20,0.12,-2.31,-2.86,2.08,0.94,1.15,1.54,0.00
4.564,-0.36,-1.20,0.12,-2.31,-2.86,2.08,0.99,1.02,1.62,0.00
4.565,-0.36,-1.20,0.12,-1.79,-2.16,2.02,0.99,1.02,1.62,0.00
4.571,-0.33,-1.13,0.12,-1.79,-2.16,2.02,0.99,1.02,1.62,0.00
4.573,-0.33,-1.13,0.12,-1.79,-2.16,2.02,1.06,0.90,1.70,0.00
4.573,-0.33,-1.13,0.12,-1.35,-1.50,1.94,1.06,0.90,1.70,0.00
4.584,-0.29,-1.05,0.10,-1.35,-1.50,1.94,1.06,0.90,1.70,0.00
4.586,-0.29,-1.05,0.10,-1.35,-1.50,1.94,1.14,0.83,1.78,0.00
4.586,-0.29,-1.05,0.10,-0.83,-0.72,1.66,1.14,0.83,1.78,0.00
4.592,-0.26,-0.98,0.09,-0.83,-0.72,1.66,1.14,0.83,1.78,0.00
4.593,-0.26,-0.98,0.09,-0.83,-0.72,1.66,1.24,0.81,1.85,0.00
4.594,-0.26,-0.98,0.09,-0.34,-0.02,1.43,1.24,0.81,1.85,0.00
4.602,-0.22,-0.91,0.07,-0.34,-0.02,1.43,1.24,0.81,1.85,0.00
4.603,-0.22,-0.91,0.07,-0.34,-0.02,1.43,1.34,0.84,1.93,0.00
4.604,-0.22,-0.91,0.07,0.17,0.62,1.19,1.34,0.84,1.93,0.00
4.611,-0.22,-0.85,0.08,0.17,0.62,1.19,1.34,0.84,1.93,0.00
4.612,-0.22,-0.85,0.08,0.17,0.62,1.19,1.43,0.90,2.00,0.00
4.613,-0.22,-0.85,0.08,0.41,1.09,1.09,1.43,0.90,2.00,0.00
4.621,-0.21,-0.81,0.07,0.41,1.09,1.09,1.43,0.90,2.00,0.00
4.622,-0.21,-0.81,0.07,0.41,1.09,1.09,1.52,0.96,2.07,0.00
4.623,-0.21,-0.81,0.07,0.68,1.46,0.92,1.52,0.96,2.07,0.00
4.631,-0.20,-0.77,0.07,0.68,1.46,0.92,1.52,0.96,2.07,0.00
4.632,-0.20,-0.77,0.07,0.68,1.46,0.92,1.60,1.02,2.14,0.00
4.633,-0.20,-0.77,0.07,1.01,1.77,0.81,1.60,1.02,2.14,0.00
4.652,-0.18,-0.74,0.07,1.01,1.77,0.81,1.60,1.02,2.14,0.00
4.653,-0.18,-0.74,0.07,1.01,1.77,0.81,1.67,1.08,2.20,0.00
4.654,-0.18,-0.74,0.07,1.35,1.98,0.69,1.67,1.08,2.20,0.00
4.654,-0.17,-0.72,0.07,1.35,1.98,0.69,1.67,1.08,2.20,0.00
4.655,-0.17,-0.72,0.07,1.35,1.98,0.69,1.73,1.14,2.25,0.00
4.656,-0.17,-0.72,0.07,1.70,2.15,0.58,1.73,1.14,2.25,0.00
4.662,-0.16,-0.72,0.07,1.70,2.15,0.58,1.73,1.14,2.25,0.00
4.662,-0.16,-0.72,0.07,1.70,2.15,0.58,1.77,1.18,2.29,0.00
4.663,-0.16,-0.72,0.07,1.98,2.10,0.47,1.77,1.18,2.29,0.00
4.672,-0.17,-0.72,0.08,1.98,2.10,0.47,1.77,1.18,2.29,0.00
4.674,-0.17,-0.72,0.08,1.98,2.10,0.47,1.79,1.20,2.31,0.00
4.674,-0.17,-0.72,0.08,2.15,1.96,0.36,1.79,1.20,2.31,0.00
4.684,-0.17,-0.74,0.07,2.15,1.96,0.36,1.79,1.20,2.31,0.00
4.686,-0.17,-0.74,0.07,2.15,1.96,0.36,1.79,1.20,2.32,0.00
4.687,-0.17,-0.74,0.07,2.39,1.69,0.22,1.79,1.20,2.32,0.00
4.693,-0.17,-0.75,0.07,2.39,1.69,0.22,1.79,1.20,2.32,0.00
4.694,-0.17,-0.75,0.07,2.39,1.69,0.22,1.76,1.18,2.33,0.00
4.695,-0.17,-0.75,0.07,2.58,1.44,0.07,1.76,1.18,2.33,0.00
4.703,-0.17,-0.77,0.07,2.58,1.44,0.07,1.76,1.18,2.33,0.00
4.704,-0.17,-0.77,0.07,2.58,1.44,0.07,1.71,1.15,2.33,0.00
4.705,-0.17,-0.77,0.07,2.80,1.15,-0.04,1.71,1.15,2.33,0.00
4.712,-0.17,-0.79,0.07,2.80,1.15,-0.04,1.71,1.15,2.33,0.00
4.713,-0.17,-0.79,0.07,2.80,1.15,-0.04,1.64,1.10,2.31,0.00
4.714,-0.17,-0.79,0.07,3.02,0.88,-0.09,1.64,1.10,2.31,0.00
4.722,-0.17,-0.81,0.06,3.02,0.88,-0.09,1.64,1.10,2.31,0.00
4.723,-0.17,-0.81,0.06,3.02,0.88,-0.09,1.54,1.03,2.28,0.00
4.724,-0.17,-0.81,0.06,3.21,0.57,-0.27,1.54,1.03,2.28,0.00
4.746,-0.16,-0.82,0.07,3.21,0.57,-0.27,1.54,1.03,2.28,0.00
4.748,-0.16,-0.82,0.07,3.21,0.57,-0.27,1.44,0.95,2.24,0.00
4.749,-0.16,-0.82,0.07,3.49,0.29,-0.24,1.44,0.95,2.24,0.00
4.75,-0.16,-0.85,0.07,3.49,0.29,-0.24,1.44,0.95,2.24,0.00
4.751,-0.16,-0.85,0.07,3.49,0.29,-0.24,1.32,0.85,2.20,0.00
4.751,-0.16,-0.85,0.07,3.65,-0.10,-0.29,1.32,0.85,2.20,0.00
4.763,-0.17,-0.88,0.07,3.65,-0.10,-0.29,1.32,0.85,2.20,0.00
4.765,-0.17,-0.88,0.07,3.65,-0.10,-0.29,1.18,0.74,2.15,0.00
4.765,-0.17,-0.88,0.07,3.78,-0.58,-0.34,1.18,0.74,2.15,0.00
4.766,-0.17,-0.94,0.07,3.78,-0.58,-0.34,1.18,0.74,2.15,0.00
4.767,-0.17,-0.94,0.07,3.78,-0.58,-0.34,1.03,0.60,2.09,0.00
4.768,-0.17,-0.94,0.07,3.91,-1.22,-0.39,1.03,0.60,2.09,0.00
4.776,-0.17,-0.97,0.08,3.91,-1.22,-0.39,1.03,0.60,2.09,0.00
4.777,-0.17,-0.97,0.08,3.91,-1.22,-0.39,0.86,0.44,2.02,0.00
4.778,-0.17,-0.97,0.08,4.15,-1.65,-0.37,0.86,0.44,2.02,0.00
4.787,-0.16,-0.99,0.09,4.15,-1.65,-0.37,0.86,0.44,2.02,0.00
4.788,-0.16,-0.99,0.09,4.15,-1.65,-0.37,0.68,0.27,1.93,0.00
4.789,-0.16,-0.99,0.09,4.41,-1.97,-0.28,0.68,0.27,1.93,0.00
4.795,-0.14,-1.01,0.11,4.41,-1.97,-0.28,0.68,0.27,1.93,0.00
4.795,-0.14,-1.01,0.11,4.41,-1.97,-0.28,0.50,0.07,1.82,0.00
4.796,-0.14,-1.01,0.11,4.70,-2.35,-0.19,0.50,0.07,1.82,0.00
4.805,-0.13,-1.06,0.12,4.70,-2.35,-0.19,0.50,0.07,1.82,0.00
4.806,-0.13,-1.06,0.12,4.70,-2.35,-0.19,0.34,-0.15,1.71,0.00
4.806,-0.13,-1.06,0.12,4.94,-2.90,-0.12,0.34,-0.15,1.71,0.00
4.812,-0.11,-1.12,0.11,4.94,-2.90,-0.12,0.34,-0.15,1.71,0.00
4.813,-0.11,-1.12,0.11,4.94,-2.90,-0.12,0.20,-0.37,1.57,0.00
4.814,-0.11,-1.12,0.11,5.21,-3.57,-0.20,0.20,-0.37,1.57,0.00
4.823,-0.08,-1.17,0.11,5.21,-3.57,-0.20,0.20,-0.37,1.57,0.00
4.824,-0.08,-1.17,0.11,5.21,-3.57,-0.20,0.07,-0.57,1.42,0.00
4.824,-0.08,-1.17,0.11,5.66,-4.22,-0.30,0.07,-0.57,1.42,0.00
4.833,-0.04,-1.22,0.10,5.66,-4.22,-0.30,0.07,-0.57,1.42,0.00
4.834,-0.04,-1.22,0.10,5.66,-4.22,-0.30,-0.05,-0.72,1.23,0.00
4.835,-0.04,-1.22,0.10,6.08,-4.77,-0.44,-0.05,-0.72,1.23,0.00
4.842,-0.00,-1.26,0.08,6.08,-4.77,-0.44,-0.05,-0.72,1.23,0.00
4.843,-0.00,-1.26,0.08,6.08,-4.77,-0.44,-0.15,-0.80,1.02,0.00
4.844,-0.00,-1.26,0.08,6.54,-5.20,-0.62,-0.15,-0.80,1.02,0.00
4.853,0.02,-1.27,0.08,6.54,-5.20,-0.62,-0.15,-0.80,1.02,0.00
4.853,0.02,-1.27,0.08,6.54,-5.20,-0.62,-0.23,-0.82,0.77,0.00
4.854,0.02,-1.27,0.08,6.79,-5.30,-0.65,-0.23,-0.82,0.77,0.00
4.864,0.02,-1.24,0.08,6.79,-5.30,-0.65,-0.23,-0.82,0.77,0.00
4.864,0.02,-1.24,0.08,6.79,-5.30,-0.65,-0.30,-0.80,0.49,0.00
4.866,0.02,-1.24,0.08,6.79,-5.05,-0.77,-0.30,-0.80,0.49,0.00
4.881,-0.01,-1.18,0.07,6.79,-5.05,-0.77,-0.30,-0.80,0.49,0.00
4.882,-0.01,-1.18,0.07,6.79,-5.05,-0.77,-0.35,-0.77,0.20,0.00
4.883,-0.01,-1.18,0.07,6.54,-4.50,-0.80,-0.35,-0.77,0.20,0.00
4.883,-0.04,-1.15,0.06,6.54,-4.50,-0.80,-0.35,-0.77,0.20,0.00
4.884,-0.04,-1.15,0.06,6.54,-4.50,-0.80,-0.39,-0.73,-0.07,0.00
4.885,-0.04,-1.15,0.06,6.24,-4.21,-1.00,-0.39,-0.73,-0.07,0.00
4.894,-0.06,-1.18,0.02,6.24,-4.21,-1.00,-0.39,-0.73,-0.07,0.00
4.894,-0.06,-1.18,0.02,6.24,-4.21,-1.00,-0.43,-0.70,-0.32,0.00
4.895,-0.06,-1.18,0.02,5.98,-4.47,-1.41,-0.43,-0.70,-0.32,0.00
4.904,-0.07,-1.22,-0.00,5.98,-4.47,-1.41,-0.43,-0.70,-0.32,0.00
4.905,-0.07,-1.22,-0.00,5.98,-4.47,-1.41,-0.50,-0.67,-0.56,0.00
4.905,-0.07,-1.22,-0.00,5.82,-4.83,-1.61,-0.50,-0.67,-0.56,0.00
4.914,-0.11,-1.22,0.01,5.82,-4.83,-1.61,-0.50,-0.67,-0.56,0.00
4.914,-0.11,-1.22,0.01,5.82,-4.83,-1.61,-0.61,-0.64,-0.82,0.00
4.915,-0.11,-1.22,0.01,5.36,-4.76,-1.52,-0.61,-0.64,-0.82,0.00
4.924,-0.15,-1.19,0.04,5.36,-4.76,-1.52,-0.61,-0.64,-0.82,0.00
4.925,-0.15,-1.19,0.04,5.36,-4.76,-1.52,-0.75,-0.61,-1.08,0.00
4.926,-0.15,-1.19,0.04,4.86,-4.37,-1.14,-0.75,-0.61,-1.08,0.00
4.935,-0.17,-1.16,0.07,4.86,-4.37,-1.14,-0.75,-0.61,-1.08,0.00
4.936,-0.17,-1.16,0.07,4.86,-4.37,-1.14,-0.86,-0.59,-1.31,0.00
4.937,-0.17,-1.16,0.07,4.60,-4.01,-0.85,-0.86,-0.59,-1.31,0.00
4.945,-0.19,-1.11,0.07,4.60,-4.01,-0.85,-0.86,-0.59,-1.31,0.00
4.946,-0.19,-1.11,0.07,4.60,-4.01,-0.85,-0.94,-0.60,-1.49,0.00
4.947,-0.19,-1.11,0.07,4.32,-3.35,-0.80,-0.94,-0.60,-1.49,0.00
4.956,-0.22,-1.06,0.06,4.32,-3.35,-0.80,-0.94,-0.60,-1.49,0.00
4.957,-0.22,-1.06,0.06,4.32,-3.35,-0.80,-0.99,-0.62,-1.63,0.00
4.958,-0.22,-1.06,0.06,3.82,-2.78,-0.87,-0.99,-0.62,-1.63,0.00
4.987,-0.26,-1.03,0.04,3.82,-2.78,-0.87,-0.99,-0.62,-1.63,0.00
4.988,-0.26,-1.03,0.04,3.82,-2.78,-0.87,-1.03,-0.67,-1.73,0.00
4.989,-0.26,-1.03,0.04,3.31,-2.37,-1.06,-1.03,-0.67,-1.73,0.00
4.99,-0.29,-1.01,0.01,3.31,-2.37,-1.06,-1.03,-0.67,-1.73,0.00
4.991,-0.29,-1.01,0.01,3.31,-2.37,-1.06,-1.07,-0.72,-1.78,0.00
4.992,-0.29,-1.01,0.01,2.92,-2.04,-1.29,-1.07,-0.72,-1.78,0.00
4.993,-0.30,-1.01,-0.01,2.92,-2.04,-1.29,-1.07,-0.72,-1.78,0.00
4.993,-0.30,-1.01,-0.01,2.92,-2.04,-1.29,-1.13,-0.76,-1.79,0.00
4.994,-0.30,-1.01,-0.01,2.57,-1.88,-1.47,-1.13,-0.76,-1.79,0.00
4.995,-0.31,-1.02,-0.03,2.57,-1.88,-1.47,-1.13,-0.76,-1.79,0.00
4.996,-0.31,-1.02,-0.03,2.57,-1.88,-1.47,-1.19,-0.80,-1.77,0.00
4.997,-0.31,-1.02,-0.03,2.34,-1.88,-1.59,-1.19,-0.80,-1.77,0.00
5.006,-0.31,-1.05,-0.05,2.34,-1.88,-1.59,-1.19,-0.80,-1.77,0.00
5.008,-0.31,-1.05,-0.05,2.34,-1.88,-1.59,-1.25,-0.81,-1.74,0.00
5.009,-0.31,-1.05,-0.05,2.22,-2.06,-1.72,-1.25,-0.81,-1.74,0.00
5.019,-0.31,-1.10,-0.05,2.22,-2.06,-1.72,-1.25,-0.81,-1.74,0.00
5.021,-0.31,-1.10,-0.05,2.22,-2.06,-1.72,-1.32,-0.80,-1.72,0.00
5.022,-0.31,-1.10,-0.05,2.02,-2.49,-1.65,-1.32,-0.80,-1.72,0.00
5.023,-0.34,-1.13,-0.04,2.02,-2.49,-1.65,-1.32,-0.80,-1.72,0.00
5.024,-0.34,-1.13,-0.04,2.02,-2.49,-1.65,-1.40,-0.80,-1.72,0.00
5.025,-0.34,-1.13,-0.04,1.61,-2.72,-1.51,-1.40,-0.80,-1.72,0.00
5.036,-0.37,-1.16,-0.02,1.61,-2.72,-1.51,-1.40,-0.80,-1.72,0.00
5.037,-0.37,-1.16,-0.02,1.61,-2.72,-1.51,-1.50,-0.83,-1.74,0.00
5.038,-0.37,-1.16,-0.02,1.17,-2.90,-1.21,-1.50,-0.83,-1.74,0.00
5.046,-0.41,-1.18,0.01,1.17,-2.90,-1.21,-1.50,-0.83,-1.74,0.00
5.047,-0.41,-1.18,0.01,1.17,-2.90,-1.21,-1.60,-0.91,-1.77,0.00
5.048,-0.41,-1.18,0.01,0.63,-2.96,-0.81,-1.60,-0.91,-1.77,0.00
5.056,-0.44,-1.18,0.03,0.63,-2.96,-0.81,-1.60,-0.91,-1.77,0.00
5.057,-0.44,-1.18,0.03,0.63,-2.96,-0.81,-1.68,-1.05,-1.81,0.00
5.057,-0.44,-1.18,0.03,0.15,-2.88,-0.51,-1.68,-1.05,-1.81,0.00
5.083,-0.45,-1.16,0.03,0.15,-2.88,-0.51,-1.68,-1.05,-1.81,0.00
5.085,-0.45,-1.16,0.03,0.15,-2.88,-0.51,-1.75,-1.24,-1.85,0.00
5.086,-0.45,-1.16,0.03,-0.14,-2.62,-0.36,-1.75,-1.24,-1.85,0.00
5.088,-0.45,-1.12,0.03,-0.14,-2.62,-0.36,-1.75,-1.24,-1.85,0.00
5.089,-0.45,-1.12,0.03,-0.14,-2.62,-0.36,-1.81,-1.40,-1.90,0.00
5.09,-0.45,-1.12,0.03,-0.35,-2.12,-0.28,-1.81,-1.40,-1.90,0.00
5.091,-0.45,-1.06,0.02,-0.35,-2.12,-0.28,-1.81,-1.40,-1.90,0.00
5.092,-0.45,-1.06,0.02,-0.35,-2.12,-0.28,-1.86,-1.50,-1.94,0.00
5.093,-0.45,-1.06,0.02,-0.51,-1.41,-0.27,-1.86,-1.50,-1.94,0.00
5.094,-0.46,-0.97,0.00,-0.51,-1.41,-0.27,-1.86,-1.50,-1.94,0.00
5.095,-0.46,-0.97,0.00,-0.51,-1.41,-0.27,-1.89,-1.53,-1.96,0.00
5.096,-0.46,-0.97,0.00,-0.77,-0.46,-0.34,-1.89,-1.53,-1.96,0.00
5.11,-0.46,-0.87,0.01,-0.77,-0.46,-0.34,-1.89,-1.53,-1.96,0.00
5.111,-0.46,-0.87,0.01,-0.77,-0.46,-0.34,-1.90,-1.49,-1.95,0.00
5.112,-0.46,-0.87,0.01,-0.98,0.61,-0.20,-1.90,-1.49,-1.95,0.00
5.122,-0.47,-0.77,0.01,-0.98,0.61,-0.20,-1.90,-1.49,-1.95,0.00
5.124,-0.47,-0.77,0.01,-0.98,0.61,-0.20,-1.88,-1.38,-1.90,0.00
5.125,-0.47,-0.77,0.01,-1.22,1.68,-0.07,-1.88,-1.38,-1.90,0.00
5.126,-0.47,-0.67,0.02,-1.22,1.68,-0.07,-1.88,-1.38,-1.90,0.00
5.127,-0.47,-0.67,0.02,-1.22,1.68,-0.07,-1.85,-1.24,-1.82,0.00
5.128,-0.47,-0.67,0.02,-1.43,2.68,0.20,-1.85,-1.24,-1.82,0.00
5.138,-0.46,-0.60,0.04,-1.43,2.68,0.20,-1.85,-1.24,-1.82,0.00
5.139,-0.46,-0.60,0.04,-1.43,2.68,0.20,-1.79,-1.10,-1.71,0.00
5.14,-0.46,-0.60,0.04,-1.42,3.49,0.57,-1.79,-1.10,-1.71,0.00
5.147,-0.43,-0.54,0.06,-1.42,3.49,0.57,-1.79,-1.10,-1.71,0.00
5.148,-0.43,-0.54,0.06,-1.42,3.49,0.57,-1.72,-0.97,-1.59,0.00
5.148,-0.43,-0.54,0.06,-1.34,4.06,0.87,-1.72,-0.97,-1.59,0.00
5.157,-0.40,-0.51,0.07,-1.34,4.06,0.87,-1.72,-0.97,-1.59,0.00
5.158,-0.40,-0.51,0.07,-1.34,4.06,0.87,-1.64,-0.88,-1.49,0.00
5.158,-0.40,-0.51,0.07,-1.13,4.37,1.06,-1.64,-0.88,-1.49,0.00
5.169,-0.38,-0.50,0.08,-1.13,4.37,1.06,-1.64,-0.88,-1.49,0.00
5.17,-0.38,-0.50,0.08,-1.13,4.37,1.06,-1.56,-0.80,-1.41,0.00
5.171,-0.38,-0.50,0.08,-1.06,4.49,1.30,-1.56,-0.80,-1.41,0.00
5.175,-0.37,-0.50,0.09,-1.06,4.49,1.30,-1.56,-0.80,-1.41,0.00
5.176,-0.37,-0.50,0.09,-1.06,4.49,1.30,-1.49,-0.73,-1.35,0.00
5.177,-0.37,-0.50,0.09,-1.11,4.52,1.50,-1.49,-0.73,-1.35,0.00
5.187,-0.37,-0.53,0.09,-1.11,4.52,1.50,-1.49,-0.73,-1.35,0.00
5.188,-0.37,-0.53,0.09,-1.11,4.52,1.50,-1.43,-0.66,-1.30,0.00
5.189,-0.37,-0.53,0.09,-1.27,4.30,1.64,-1.43,-0.66,-1.30,0.00
5.196,-0.40,-0.56,0.10,-1.27,4.30,1.64,-1.43,-0.66,-1.30,0.00
5.197,-0.40,-0.56,0.10,-1.27,4.30,1.64,-1.39,-0.59,-1.27,0.00
5.198,-0.40,-0.56,0.10,-1.61,4.02,1.84,-1.39,-0.59,-1.27,0.00
5.22,-0.42,-0.59,0.11,-1.61,4.02,1.84,-1.39,-0.59,-1.27,0.00
5.221,-0.42,-0.59,0.11,-1.61,4.02,1.84,-1.35,-0.51,-1.24,0.00
5.222,-0.42,-0.59,0.11,-1.98,3.77,2.04,-1.35,-0.51,-1.24,0.00
5.223,-0.42,-0.62,0.12,-1.98,3.77,2.04,-1.35,-0.51,-1.24,0.00
5.223,-0.42,-0.62,0.12,-1.98,3.77,2.04,-1.32,-0.42,-1.21,0.00
5.224,-0.42,-0.62,0.12,-2.11,3.42,2.27,-1.32,-0.42,-1.21,0.00
5.225,-0.43,-0.66,0.12,-2.11,3.42,2.27,-1.32,-0.42,-1.21,0.00
5.226,-0.43,-0.66,0.12,-2.11,3.42,2.27,-1.30,-0.32,-1.18,0.00
5.227,-0.43,-0.66,0.12,-2.22,3.08,2.43,-1.30,-0.32,-1.18,0.00
5.237,-0.43,-0.71,0.12,-2.22,3.08,2.43,-1.30,-0.32,-1.18,0.00
5.238,-0.43,-0.71,0.12,-2.22,3.08,2.43,-1.28,-0.21,-1.16,0.00
5.239,-0.43,-0.71,0.12,-2.42,2.58,2.51,-1.28,-0.21,-1.16,0.00
5.246,-0.44,-0.77,0.12,-2.42,2.58,2.51,-1.28,-0.21,-1.16,0.00
5.247,-0.44,-0.77,0.12,-2.42,2.58,2.51,-1.27,-0.09,-1.14,0.00
5.248,-0.44,-0.77,0.12,-2.60,1.95,2.61,-1.27,-0.09,-1.14,0.00
5.258,-0.45,-0.84,0.12,-2.60,1.95,2.61,-1.27,-0.09,-1.14,0.00
5.259,-0.45,-0.84,0.12,-2.60,1.95,2.61,-1.26,0.04,-1.12,0.00
5.26,-0.45,-0.84,0.12,-2.81,1.29,2.76,-1.26,0.04,-1.12,0.00
5.271,-0.46,-0.91,0.12,-2.81,1.29,2.76,-1.26,0.04,-1.12,0.00
5.272,-0.46,-0.91,0.12,-2.81,1.29,2.76,-1.26,0.16,-1.10,0.00
5.273,-0.46,-0.91,0.12,-3.03,0.58,2.93,-1.26,0.16,-1.10,0.00
5.277,-0.48,-1.00,0.13,-3.03,0.58,2.93,-1.26,0.16,-1.10,0.00
5.278,-0.48,-1.00,0.13,-3.03,0.58,2.93,-1.25,0.25,-1.06,0.00
5.279,-0.48,-1.00,0.13,-3.30,-0.23,3.10,-1.25,0.25,-1.06,0.00
5.288,-0.52,-1.07,0.16,-3.30,-0.23,3.10,-1.25,0.25,-1.06,0.00
5.289,-0.52,-1.07,0.16,-3.30,-0.23,3.10,-1.22,0.30,-1.02,0.00
5.29,-0.52,-1.07,0.16,-3.77,-0.98,3.49,-1.22,0.30,-1.02,0.00
5.297,-0.55,-1.12,0.17,-3.77,-0.98,3.49,-1.22,0.30,-1.02,0.00
5.298,-0.55,-1.12,0.17,-3.77,-0.98,3.49,-1.16,0.29,-0.96,0.00
5.299,-0.55,-1.12,0.17,-4.16,-1.43,3.78,-1.16,0.29,-0.96,0.00
5.314,-0.56,-1.14,0.19,-4.16,-1.43,3.78,-1.16,0.29,-0.96,0.00
5.315,-0.56,-1.14,0.19,-4.16,-1.43,3.78,-1.06,0.20,-0.88,0.00
5.316,-0.56,-1.14,0.19,-4.36,-1.66,4.04,-1.06,0.20,-0.88,0.00
5.316,-0.55,-1.15,0.19,-4.36,-1.66,4.04,-1.06,0.20,-0.88,0.00
5.317,-0.55,-1.15,0.19,-4.36,-1.66,4.04,-0.92,0.05,-0.79,0.00
5.318,-0.55,-1.15,0.19,-4.34,-1.83,4.09,-0.92,0.05,-0.79,0.00
5.327,-0.53,-1.17,0.15,-4.34,-1.83,4.09,-0.92,0.05,-0.79,0.00
5.328,-0.53,-1.17,0.15,-4.34,-1.83,4.09,-0.76,-0.14,-0.68,0.00
5.328,-0.53,-1.17,0.15,-4.26,-2.01,3.78,-0.76,-0.14,-0.68,0.00
5.337,-0.52,-1.19,0.10,-4.26,-2.01,3.78,-0.76,-0.14,-0.68,0.00
5.338,-0.52,-1.19,0.10,-4.26,-2.01,3.78,-0.59,-0.28,-0.60,0.00
5.339,-0.52,-1.19,0.10,-4.22,-2.16,3.38,-0.59,-0.28,-0.60,0.00
5.348,-0.52,-1.20,0.07,-4.22,-2.16,3.38,-0.59,-0.28,-0.60,0.00
5.349,-0.52,-1.20,0.07,-4.22,-2.16,3.38,-0.43,-0.35,-0.51,0.00
5.349,-0.52,-1.20,0.07,-4.26,-2.25,3.08,-0.43,-0.35,-0.51,0.00
5.357,-0.54,-1.21,0.04,-4.26,-2.25,3.08,-0.43,-0.35,-0.51,0.00
5.358,-0.54,-1.21,0.04,-4.26,-2.25,3.08,-0.28,-0.35,-0.43,0.00
5.359,-0.54,-1.21,0.04,-4.43,-2.37,2.85,-0.28,-0.35,-0.43,0.00
5.37,-0.54,-1.23,0.03,-4.43,-2.37,2.85,-0.28,-0.35,-0.43,0.00
5.371,-0.54,-1.23,0.03,-4.43,-2.37,2.85,-0.14,-0.29,-0.33,0.00
5.372,-0.54,-1.23,0.03,-4.51,-2.57,2.80,-0.14,-0.29,-0.33,0.00
5.377,-0.54,-1.26,0.04,-4.51,-2.57,2.80,-0.14,-0.29,-0.33,0.00
5.378,-0.54,-1.26,0.04,-4.51,-2.57,2.80,-0.02,-0.20,-0.22,0.00
5.379,-0.54,-1.26,0.04,-4.49,-2.90,2.89,-0.02,-0.20,-0.22,0.00
5.389,-0.54,-1.29,0.07,-4.49,-2.90,2.89,-0.02,-0.20,-0.22,0.00
5.389,-0.54,-1.29,0.07,-4.49,-2.90,2.89,0.12,-0.12,-0.10,0.00
5.39,-0.54,-1.29,0.07,-4.45,-3.18,3.08,0.12,-0.12,-0.10,0.00
5.398,-0.54,-1.30,0.08,-4.45,-3.18,3.08,0.12,-0.12,-0.10,0.00
5.399,-0.54,-1.30,0.08,-4.45,-3.18,3.08,0.26,-0.09,0.01,0.00
5.4,-0.54,-1.30,0.08,-4.48,-3.28,3.17,0.26,-0.09,0.01,0.00
5.414,-0.52,-1.32,0.11,-4.48,-3.28,3.17,0.26,-0.09,0.01,0.00
5.415,-0.52,-1.32,0.11,-4.48,-3.28,3.17,0.40,-0.12,0.13,0.00
5.416,-0.52,-1.32,0.11,-4.24,-3.41,3.44,0.40,-0.12,0.13,0.00
5.419,-0.50,-1.35,0.10,-4.24,-3.41,3.44,0.40,-0.12,0.13,0.00
5.42,-0.50,-1.35,0.10,-4.24,-3.41,3.44,0.54,-0.20,0.24,0.00
5.42,-0.50,-1.35,0.10,-3.97,-3.71,3.32,0.54,-0.20,0.24,0.00
5.428,-0.47,-1.35,0.07,-3.97,-3.71,3.32,0.54,-0.20,0.24,0.00
5.429,-0.47,-1.35,0.07,-3.97,-3.71,3.32,0.67,-0.31,0.33,0.00
5.43,-0.47,-1.35,0.07,-3.68,-3.76,2.96,0.67,-0.31,0.33,0.00
5.439,-0.47,-1.30,0.07,-3.68,-3.76,2.96,0.67,-0.31,0.33,0.00
5.44,-0.47,-1.30,0.07,-3.68,-3.76,2.96,0.78,-0.40,0.39,0.00
5.44,-0.47,-1.30,0.07,-3.63,-3.21,2.82,0.78,-0.40,0.39,0.00
5.449,-0.46,-1.24,0.07,-3.63,-3.21,2.82,0.78,-0.40,0.39,0.00
5.45,-0.46,-1.24,0.07,-3.63,-3.21,2.82,0.87,-0.45,0.45,0.00
5.45,-0.46,-1.24,0.07,-3.48,-2.60,2.70,0.87,-0.45,0.45,0.00
5.459,-0.42,-1.20,0.04,-3.48,-2.60,2.70,0.87,-0.45,0.45,0.00
5.46,-0.42,-1.20,0.04,-3.48,-2.60,2.70,0.96,-0.45,0.52,0.00
5.461,-0.42,-1.20,0.04,-3.06,-2.17,2.37,0.96,-0.45,0.52,0.00
5.469,-0.40,-1.15,0.03,-3.06,-2.17,2.37,0.96,-0.45,0.52,0.00
5.47,-0.40,-1.15,0.03,-3.06,-2.17,2.37,1.03,-0.38,0.57,0.00
5.471,-0.40,-1.15,0.03,-2.77,-1.70,2.16,1.03,-0.38,0.57,0.00
5.478,-0.40,-1.13,0.01,-2.77,-1.70,2.16,1.03,-0.38,0.57,0.00
5.479,-0.40,-1.13,0.01,-2.77,-1.70,2.16,1.09,-0.23,0.61,0.00
5.48,-0.40,-1.13,0.01,-2.74,-1.47,1.87,1.09,-0.23,0.61,0.00
5.491,-0.40,-1.12,-0.01,-2.74,-1.47,1.87,1.09,-0.23,0.61,0.00
5.492,-0.40,-1.12,-0.01,-2.74,-1.47,1.87,1.14,-0.03,0.66,0.00
5.493,-0.40,-1.12,-0.01,-2.67,-1.42,1.55,1.14,-0.03,0.66,0.00
5.5,-0.40,-1.12,-0.02,-2.67,-1.42,1.55,1.14,-0.03,0.66,0.00
5.501,-0.40,-1.12,-0.02,-2.67,-1.42,1.55,1.18,0.23,0.72,0.00
5.502,-0.40,-1.12,-0.02,-2.63,-1.41,1.34,1.18,0.23,0.72,0.00
5.521,-0.41,-1.12,-0.01,-2.63,-1.41,1.34,1.18,0.23,0.72,0.00
5.522,-0.41,-1.12,-0.01,-2.63,-1.41,1.34,1.21,0.52,0.79,0.00
5.523,-0.41,-1.12,-0.01,-2.62,-1.34,1.28,1.21,0.52,0.79,0.00
5.524,-0.40,-1.15,-0.02,-2.62,-1.34,1.28,1.21,0.52,0.79,0.00
5.525,-0.40,-1.15,-0.02,-2.62,-1.34,1.28,1.24,0.79,0.89,0.00
5.526,-0.40,-1.15,-0.02,-2.48,-1.64,1.13,1.24,0.79,0.89,0.00
5.53,-0.42,-1.22,-0.02,-2.48,-1.64,1.13,1.24,0.79,0.89,0.00
5.531,-0.42,-1.22,-0.02,-2.48,-1.64,1.13,1.27,1.03,0.99,0.00
5.532,-0.42,-1.22,-0.02,-2.51,-2.38,1.04,1.27,1.03,0.99,0.00
5.54,-0.44,-1.29,-0.01,-2.51,-2.38,1.04,1.27,1.03,0.99,0.00
5.544,-0.44,-1.29,-0.01,-2.51,-2.38,1.04,1.28,1.20,1.10,0.00
5.545,-0.44,-1.29,-0.01,-2.62,-2.99,1.02,1.28,1.20,1.10,0.00
5.553,-0.45,-1.32,0.01,-2.62,-2.99,1.02,1.28,1.20,1.10,0.00
5.554,-0.45,-1.32,0.01,-2.62,-2.99,1.02,1.29,1.30,1.22,0.00
5.555,-0.45,-1.32,0.01,-2.65,-3.38,1.12,1.29,1.30,1.22,0.00
5.561,-0.45,-1.36,0.03,-2.65,-3.38,1.12,1.29,1.30,1.22,0.00
5.561,-0.45,-1.36,0.03,-2.65,-3.38,1.12,1.31,1.31,1.35,0.00
5.562,-0.45,-1.36,0.03,-2.51,-3.73,1.23,1.31,1.31,1.35,0.00
5.571,-0.43,-1.38,0.04,-2.51,-3.73,1.23,1.31,1.31,1.35,0.00
5.572,-0.43,-1.38,0.04,-2.51,-3.73,1.23,1.34,1.22,1.48,0.00
5.573,-0.43,-1.38,0.04,-2.16,-3.95,1.22,1.34,1.22,1.48,0.00
5.579,-0.41,-1.38,0.04,-2.16,-3.95,1.22,1.34,1.22,1.48,0.00
5.58,-0.41,-1.38,0.04,-2.16,-3.95,1.22,1.38,1.06,1.59,0.00
5.581,-0.41,-1.38,0.04,-1.84,-3.99,1.11,1.38,1.06,1.59,0.00
5.59,-0.38,-1.35,0.03,-1.84,-3.99,1.11,1.38,1.06,1.59,0.00
5.591,-0.38,-1.35,0.03,-1.84,-3.99,1.11,1.43,0.89,1.69,0.00
5.591,-0.38,-1.35,0.03,-1.37,-3.69,0.89,1.43,0.89,1.69,0.00
5.612,-0.36,-1.31,0.03,-1.37,-3.69,0.89,1.43,0.89,1.69,0.00
5.614,-0.36,-1.31,0.03,-1.37,-3.69,0.89,1.49,0.73,1.77,0.00
5.614,-0.36,-1.31,0.03,-1.03,-3.33,0.77,1.49,0.73,1.77,0.00
5.615,-0.34,-1.25,0.02,-1.03,-3.33,0.77,1.49,0.73,1.77,0.00
5.616,-0.34,-1.25,0.02,-1.03,-3.33,0.77,1.55,0.59,1.84,0.00
5.617,-0.34,-1.25,0.02,-0.66,-2.81,0.51,1.55,0.59,1.84,0.00
5.621,-0.30,-1.19,0.02,-0.66,-2.81,0.51,1.55,0.59,1.84,0.00
5.622,-0.30,-1.19,0.02,-0.66,-2.81,0.51,1.63,0.49,1.90,0.00
5.622,-0.30,-1.19,0.02,-0.09,-2.24,0.40,1.63,0.49,1.90,0.00
5.63,-0.28,-1.10,0.01,-0.09,-2.24,0.40,1.63,0.49,1.90,0.00
5.631,-0.28,-1.10,0.01,-0.09,-2.24,0.40,1.70,0.42,1.95,0.00
5.631,-0.28,-1.10,0.01,0.29,-1.47,0.16,1.70,0.42,1.95,0.00
5.64,-0.27,-1.03,-0.01,0.29,-1.47,0.16,1.70,0.42,1.95,0.00
5.642,-0.27,-1.03,-0.01,0.29,-1.47,0.16,1.79,0.39,1.99,0.00
5.642,-0.27,-1.03,-0.01,0.60,-0.79,-0.23,1.79,0.39,1.99,0.00
5.653,-0.22,-0.96,-0.02,0.60,-0.79,-0.23,1.79,0.39,1.99,0.00
5.654,-0.22,-0.96,-0.02,0.60,-0.79,-0.23,1.89,0.44,2.04,0.00
5.655,-0.22,-0.96,-0.02,1.23,-0.18,-0.51,1.89,0.44,2.04,0.00
5.66,-0.19,-0.89,-0.03,1.23,-0.18,-0.51,1.89,0.44,2.04,0.00
5.661,-0.19,-0.89,-0.03,1.23,-0.18,-0.51,1.98,0.56,2.10,0.00
5.662,-0.19,-0.89,-0.03,1.68,0.40,-0.72,1.98,0.56,2.10,0.00
5.672,-0.18,-0.83,-0.03,1.68,0.40,-0.72,1.98,0.56,2.10,0.00
5.673,-0.18,-0.83,-0.03,1.68,0.40,-0.72,2.05,0.71,2.14,0.00
5.674,-0.18,-0.83,-0.03,2.06,0.86,-0.95,2.05,0.71,2.14,0.00
5.681,-0.17,-0.78,-0.02,2.06,0.86,-0.95,2.05,0.71,2.14,0.00
5.682,-0.17,-0.78,-0.02,2.06,0.86,-0.95,2.11,0.86,2.16,0.00
5.683,-0.17,-0.78,-0.02,2.35,1.29,-0.94,2.11,0.86,2.16,0.00
5.692,-0.15,-0.74,-0.01,2.35,1.29,-0.94,2.11,0.86,2.16,0.00
5.693,-0.15,-0.74,-0.01,2.35,1.29,-0.94,2.16,1.02,2.18,0.00
5.694,-0.15,-0.74,-0.01,2.70,1.57,-1.07,2.16,1.02,2.18,0.00
5.706,-0.15,-0.71,-0.01,2.70,1.57,-1.07,2.16,1.02,2.18,0.00
5.707,-0.15,-0.71,-0.01,2.70,1.57,-1.07,2.18,1.16,2.18,0.00
5.708,-0.15,-0.71,-0.01,2.92,1.77,-1.19,2.18,1.16,2.18,0.00
5.709,-0.17,-0.70,-0.01,2.92,1.77,-1.19,2.18,1.16,2.18,0.00
5.71,-0.17,-0.70,-0.01,2.92,1.77,-1.19,2.18,1.27,2.18,0.00
5.71,-0.17,-0.70,-0.01,2.96,1.69,-1.28,2.18,1.27,2.18,0.00
5.723,-0.18,-0.70,0.00,2.96,1.69,-1.28,2.18,1.27,2.18,0.00
5.724,-0.18,-0.70,0.00,2.96,1.69,-1.28,2.15,1.34,2.16,0.00
5.725,-0.18,-0.70,0.00,3.02,1.57,-1.28,2.15,1.34,2.16,0.00
5.732,-0.18,-0.70,0.01,3.02,1.57,-1.28,2.15,1.34,2.16,0.00
5.733,-0.18,-0.70,0.01,3.02,1.57,-1.28,2.09,1.36,2.14,0.00
5.734,-0.18,-0.70,0.01,3.24,1.46,-1.35,2.09,1.36,2.14,0.00
5.753,-0.18,-0.69,0.01,3.24,1.46,-1.35,2.09,1.36,2.14,0.00
5.755,-0.18,-0.69,0.01,3.24,1.46,-1.35,2.01,1.36,2.11,0.00
5.756,-0.18,-0.69,0.01,3.43,1.40,-1.43,2.01,1.36,2.11,0.00
5.757,-0.19,-0.69,0.02,3.43,1.40,-1.43,2.01,1.36,2.11,0.00
5.757,-0.19,-0.69,0.02,3.43,1.40,-1.43,1.90,1.33,2.06,0.00
5.758,-0.19,-0.69,0.02,3.58,1.30,-1.38,1.90,1.33,2.06,0.00
5.759,-0.18,-0.68,0.03,3.58,1.30,-1.38,1.90,1.33,2.06,0.00
5.76,-0.18,-0.68,0.03,3.58,1.30,-1.38,1.78,1.29,2.00,0.00
5.761,-0.18,-0.68,0.03,3.85,1.27,-1.37,1.78,1.29,2.00,0.00
5.772,-0.16,-0.67,0.04,3.85,1.27,-1.37,1.78,1.29,2.00,0.00
5.773,-0.16,-0.67,0.04,3.85,1.27,-1.37,1.64,1.23,1.94,0.00
5.774,-0.16,-0.67,0.04,4.15,1.18,-1.34,1.64,1.23,1.94,0.00
5.783,-0.16,-0.67,0.05,4.15,1.18,-1.34,1.64,1.23,1.94,0.00
5.784,-0.16,-0.67,0.05,4.15,1.18,-1.34,1.48,1.15,1.86,0.00
5.787,-0.16,-0.67,0.05,4.35,1.01,-1.33,1.48,1.15,1.86,0.00
5.793,-0.15,-0.69,0.05,4.35,1.01,-1.33,1.48,1.15,1.86,0.00
5.794,-0.15,-0.69,0.05,4.35,1.01,-1.33,1.32,1.06,1.77,0.00
5.795,-0.15,-0.69,0.05,4.59,0.70,-1.39,1.32,1.06,1.77,0.00
5.803,-0.14,-0.71,0.04,4.59,0.70,-1.39,1.32,1.06,1.77,0.00
5.804,-0.14,-0.71,0.04,4.59,0.70,-1.39,1.13,0.97,1.67,0.00
5.805,-0.14,-0.71,0.04,4.85,0.42,-1.44,1.13,0.97,1.67,0.00
5.811,-0.13,-0.73,0.04,4.85,0.42,-1.44,1.13,0.97,1.67,0.00
5.812,-0.13,-0.73,0.04,4.85,0.42,-1.44,0.92,0.89,1.54,0.00
5.812,-0.13,-0.73,0.04,5.03,0.11,-1.47,0.92,0.89,1.54,0.00
5.822,-0.13,-0.74,0.06,5.03,0.11,-1.47,0.92,0.89,1.54,0.00
5.823,-0.13,-0.74,0.06,5.03,0.11,-1.47,0.70,0.81,1.40,0.00
5.823,-0.13,-0.74,0.06,5.16,-0.13,-1.32,0.70,0.81,1.40,0.00
5.832,-0.12,-0.76,0.08,5.16,-0.13,-1.32,0.70,0.81,1.40,0.00
5.833,-0.12,-0.76,0.08,5.16,-0.13,-1.32,0.46,0.74,1.25,0.00
5.833,-0.12,-0.76,0.08,5.40,-0.38,-1.08,0.46,0.74,1.25,0.00
5.847,-0.10,-0.80,0.10,5.40,-0.38,-1.08,0.46,0.74,1.25,0.00
5.849,-0.10,-0.80,0.10,5.40,-0.38,-1.08,0.25,0.66,1.08,0.00
5.849,-0.10,-0.80,0.10,5.65,-0.90,-0.84,0.25,0.66,1.08,0.00
5.853,-0.11,-0.88,0.11,5.65,-0.90,-0.84,0.25,0.66,1.08,0.00
5.854,-0.11,-0.88,0.11,5.65,-0.90,-0.84,0.05,0.58,0.91,0.00
5.854,-0.11,-0.88,0.11,5.69,-1.72,-0.70,0.05,0.58,0.91,0.00
5.863,-0.11,-0.97,0.12,5.69,-1.72,-0.70,0.05,0.58,0.91,0.00
5.864,-0.11,-0.97,0.12,5.69,-1.72,-0.70,-0.13,0.49,0.74,0.00
5.864,-0.11,-0.97,0.12,5.70,-2.62,-0.59,-0.13,0.49,0.74,0.00
5.874,-0.10,-1.06,0.13,5.70,-2.62,-0.59,-0.13,0.49,0.74,0.00
5.875,-0.10,-1.06,0.13,5.70,-2.62,-0.59,-0.31,0.36,0.56,0.00
5.877,-0.10,-1.06,0.13,5.81,-3.56,-0.45,-0.31,0.36,0.56,0.00
5.883,-0.07,-1.14,0.15,5.81,-3.56,-0.45,-0.31,0.36,0.56,0.00
5.884,-0.07,-1.14,0.15,5.81,-3.56,-0.45,-0.47,0.19,0.38,0.00
5.884,-0.07,-1.14,0.15,6.20,-4.36,-0.22,-0.47,0.19,0.38,0.00
5.892,-0.01,-1.21,0.15,6.20,-4.36,-0.22,-0.47,0.19,0.38,0.00
5.893,-0.01,-1.21,0.15,6.20,-4.36,-0.22,-0.61,0.00,0.19,0.00
5.894,-0.01,-1.21,0.15,6.75,-5.07,-0.15,-0.61,0.00,0.19,0.00
5.902,0.03,-1.26,0.16,6.75,-5.07,-0.15,-0.61,0.00,0.19,0.00
5.904,0.03,-1.26,0.16,6.75,-5.07,-0.15,-0.72,-0.17,-0.05,0.00
5.905,0.03,-1.26,0.16,7.19,-5.51,-0.02,-0.72,-0.17,-0.05,0.00
5.913,0.05,-1.25,0.16,7.19,-5.51,-0.02,-0.72,-0.17,-0.05,0.00
5.913,0.05,-1.25,0.16,7.19,-5.51,-0.02,-0.80,-0.29,-0.33,0.00
5.914,0.05,-1.25,0.16,7.37,-5.43,0.07,-0.80,-0.29,-0.33,0.00
5.923,0.04,-1.24,0.16,7.37,-5.43,0.07,-0.80,-0.29,-0.33,0.00
5.924,0.04,-1.24,0.16,7.37,-5.43,0.07,-0.85,-0.33,-0.64,0.00
5.925,0.04,-1.24,0.16,7.21,-5.28,0.06,-0.85,-0.33,-0.64,0.00
5.949,0.02,-1.27,0.13,7.21,-5.28,0.06,-0.85,-0.33,-0.64,0.00
5.951,0.02,-1.27,0.13,7.21,-5.28,0.06,-0.87,-0.33,-0.93,0.00
5.952,0.02,-1.27,0.13,6.88,-5.41,-0.24,-0.87,-0.33,-0.93,0.00
5.953,-0.03,-1.29,0.06,6.88,-5.41,-0.24,-0.87,-0.33,-0.93,0.00
5.953,-0.03,-1.29,0.06,6.88,-5.41,-0.24,-0.88,-0.32,-1.19,0.00
5.954,-0.03,-1.29,0.06,6.37,-5.54,-0.79,-0.88,-0.32,-1.19,0.00
5.955,-0.09,-1.30,0.02,6.37,-5.54,-0.79,-0.88,-0.32,-1.19,0.00
5.956,-0.09,-1.30,0.02,6.37,-5.54,-0.79,-0.92,-0.29,-1.43,0.00
5.956,-0.09,-1.30,0.02,5.65,-5.57,-1.16,-0.92,-0.29,-1.43,0.00
5.965,-0.17,-1.31,0.00,5.65,-5.57,-1.16,-0.92,-0.29,-1.43,0.00
5.966,-0.17,-1.31,0.00,5.65,-5.57,-1.16,-1.00,-0.26,-1.65,0.00
5.967,-0.17,-1.31,0.00,4.73,-5.56,-1.28,-1.00,-0.26,-1.65,0.00
5.974,-0.25,-1.34,0.00,4.73,-5.56,-1.28,-1.00,-0.26,-1.65,0.00
5.975,-0.25,-1.34,0.00,4.73,-5.56,-1.28,-1.09,-0.25,-1.83,0.00
5.976,-0.25,-1.34,0.00,3.85,-5.69,-1.21,-1.09,-0.25,-1.83,0.00
5.987,-0.29,-1.35,0.00,3.85,-5.69,-1.21,-1.09,-0.25,-1.83,0.00
5.988,-0.29,-1.35,0.00,3.85,-5.69,-1.21,-1.18,-0.29,-1.95,0.00
5.989,-0.29,-1.35,0.00,3.23,-5.66,-1.15,-1.18,-0.29,-1.95,0.00
5.994,-0.33,-1.34,0.01,3.23,-5.66,-1.15,-1.18,-0.29,-1.95,0.00
5.995,-0.33,-1.34,0.01,3.23,-5.66,-1.15,-1.25,-0.38,-2.02,0.00
5.995,-0.33,-1.34,0.01,2.68,-5.46,-1.03,-1.25,-0.38,-2.02,0.00
6.005,-0.37,-1.31,0.01,2.68,-5.46,-1.03,-1.25,-0.38,-2.02,0.00
6.006,-0.37,-1.31,0.01,2.68,-5.46,-1.03,-1.30,-0.50,-2.03,0.00
6.007,-0.37,-1.31,0.01,2.19,-4.95,-0.89,-1.30,-0.50,-2.03,0.00
6.014,-0.39,-1.25,0.02,2.19,-4.95,-0.89,-1.30,-0.50,-2.03,0.00
6.015,-0.39,-1.25,0.02,2.19,-4.95,-0.89,-1.31,-0.62,-1.97,0.00
6.016,-0.39,-1.25,0.02,1.85,-4.31,-0.73,-1.31,-0.62,-1.97,0.00
6.025,-0.38,-1.24,0.02,1.85,-4.31,-0.73,-1.31,-0.62,-1.97,0.00
6.027,-0.38,-1.24,0.02,1.85,-4.31,-0.73,-1.30,-0.77,-1.88,0.00
6.027,-0.38,-1.24,0.02,1.71,-4.02,-0.66,-1.30,-0.77,-1.88,0.00
6.036,-0.35,-1.25,-0.01,1.71,-4.02,-0.66,-1.30,-0.77,-1.88,0.00
6.037,-0.35,-1.25,-0.01,1.71,-4.02,-0.66,-1.27,-0.92,-1.77,0.00
6.038,-0.35,-1.25,-0.01,1.91,-4.05,-0.92,-1.27,-0.92,-1.77,0.00
6.045,-0.31,-1.28,-0.04,1.91,-4.05,-0.92,-1.27,-0.92,-1.77,0.00
6.046,-0.31,-1.28,-0.04,1.91,-4.05,-0.92,-1.26,-1.08,-1.68,0.00
6.047,-0.31,-1.28,-0.04,2.09,-4.24,-1.18,-1.26,-1.08,-1.68,0.00
6.067,-0.32,-1.31,-0.06,2.09,-4.24,-1.18,-1.26,-1.08,-1.68,0.00
6.068,-0.32,-1.31,-0.06,2.09,-4.24,-1.18,-1.28,-1.21,-1.64,0.00
6.069,-0.32,-1.31,-0.06,1.83,-4.48,-1.32,-1.28,-1.21,-1.64,0.00
6.07,-0.39,-1.32,-0.06,1.83,-4.48,-1.32,-1.28,-1.21,-1.64,0.00
6.071,-0.39,-1.32,-0.06,1.83,-4.48,-1.32,-1.33,-1.34,-1.62,0.00
6.072,-0.39,-1.32,-0.06,1.09,-4.47,-1.31,-1.33,-1.34,-1.62,0.00
6.073,-0.46,-1.32,-0.05,1.09,-4.47,-1.31,-1.33,-1.34,-1.62,0.00
6.073,-0.46,-1.32,-0.05,1.09,-4.47,-1.31,-1.40,-1.49,-1.62,0.00
6.074,-0.46,-1.32,-0.05,0.24,-4.37,-1.19,-1.40,-1.49,-1.62,0.00
6.088,-0.52,-1.29,-0.03,0.24,-4.37,-1.19,-1.40,-1.49,-1.62,0.00
6.09,-0.52,-1.29,-0.03,0.24,-4.37,-1.19,-1.48,-1.65,-1.59,0.00
6.09,-0.52,-1.29,-0.03,-0.54,-4.00,-0.95,-1.48,-1.65,-1.59,0.00
6.095,-0.57,-1.24,-0.02,-0.54,-4.00,-0.95,-1.48,-1.65,-1.59,0.00
6.096,-0.57,-1.24,-0.02,-0.54,-4.00,-0.95,-1.55,-1.82,-1.55,0.00
6.097,-0.57,-1.24,-0.02,-1.14,-3.39,-0.78,-1.55,-1.82,-1.55,0.00
6.105,-0.59,-1.17,-0.01,-1.14,-3.39,-0.78,-1.55,-1.82,-1.55,0.00
6.107,-0.59,-1.17,-0.01,-1.14,-3.39,-0.78,-1.60,-2.02,-1.49,0.00
6.107,-0.59,-1.17,-0.01,-1.49,-2.62,-0.63,-1.60,-2.02,-1.49,0.00
6.115,-0.59,-1.07,-0.02,-1.49,-2.62,-0.63,-1.60,-2.02,-1.49,0.00
6.116,-0.59,-1.07,-0.02,-1.49,-2.62,-0.63,-1.64,-2.20,-1.44,0.00
6.117,-0.59,-1.07,-0.02,-1.69,-1.62,-0.66,-1.64,-2.20,-1.44,0.00
6.127,-0.59,-0.96,-0.03,-1.69,-1.62,-0.66,-1.64,-2.20,-1.44,0.00
6.128,-0.59,-0.96,-0.03,-1.69,-1.62,-0.66,-1.65,-2.35,-1.38,0.00
6.129,-0.59,-0.96,-0.03,-1.77,-0.44,-0.69,-1.65,-2.35,-1.38,0.00
6.137,-0.56,-0.85,-0.05,-1.77,-0.44,-0.69,-1.65,-2.35,-1.38,0.00
6.138,-0.56,-0.85,-0.05,-1.77,-0.44,-0.69,-1.65,-2.43,-1.30,0.00
6.139,-0.56,-0.85,-0.05,-1.63,0.64,-0.87,-1.65,-2.43,-1.30,0.00
6.148,-0.53,-0.74,-0.05,-1.63,0.64,-0.87,-1.65,-2.43,-1.30,0.00
6.149,-0.53,-0.74,-0.05,-1.63,0.64,-0.87,-1.63,-2.41,-1.18,0.00
6.15,-0.53,-0.74,-0.05,-1.43,1.76,-0.76,-1.63,-2.41,-1.18,0.00
6.156,-0.52,-0.65,-0.04,-1.43,1.76,-0.76,-1.63,-2.41,-1.18,0.00
6.157,-0.52,-0.65,-0.04,-1.43,1.76,-0.76,-1.59,-2.32,-1.04,0.00
6.158,-0.52,-0.65,-0.04,-1.43,2.73,-0.58,-1.59,-2.32,-1.04,0.00
6.165,-0.50,-0.57,-0.04,-1.43,2.73,-0.58,-1.59,-2.32,-1.04,0.00
6.166,-0.50,-0.57,-0.04,-1.43,2.73,-0.58,-1.53,-2.22,-0.91,0.00
6.167,-0.50,-0.57,-0.04,-1.29,3.59,-0.52,-1.53,-2.22,-0.91,0.00
6.183,-0.45,-0.50,-0.02,-1.29,3.59,-0.52,-1.53,-2.22,-0.91,0.00
6.184,-0.45,-0.50,-0.02,-1.29,3.59,-0.52,-1.47,-2.13,-0.75,0.00
6.185,-0.45,-0.50,-0.02,-0.91,4.22,-0.29,-1.47,-2.13,-0.75,0.00
6.186,-0.42,-0.45,0.01,-0.91,4.22,-0.29,-1.47,-2.13,-0.75,0.00
6.187,-0.42,-0.45,0.01,-0.91,4.22,-0.29,-1.42,-2.05,-0.60,0.00
6.187,-0.42,-0.45,0.01,-0.72,4.73,0.04,-1.42,-2.05,-0.60,0.00
6.196,-0.40,-0.43,0.02,-0.72,4.73,0.04,-1.42,-2.05,-0.60,0.00
6.197,-0.40,-0.43,0.02,-0.72,4.73,0.04,-1.38,-1.99,-0.49,0.00
6.198,-0.40,-0.43,0.02,-0.52,5.00,0.22,-1.38,-1.99,-0.49,0.00
6.208,-0.36,-0.42,0.04,-0.52,5.00,0.22,-1.38,-1.99,-0.49,0.00
6.209,-0.36,-0.42,0.04,-0.52,5.00,0.22,-1.35,-1.95,-0.39,0.00
6.21,-0.36,-0.42,0.04,-0.17,5.11,0.50,-1.35,-1.95,-0.39,0.00
6.216,-0.34,-0.42,0.06,-0.17,5.11,0.50,-1.35,-1.95,-0.39,0.00
6.217,-0.34,-0.42,0.06,-0.17,5.11,0.50,-1.33,-1.92,-0.33,0.00
6.217,-0.34,-0.42,0.06,-0.04,5.13,0.75,-1.33,-1.92,-0.33,0.00
6.225,-0.34,-0.43,0.09,-0.04,5.13,0.75,-1.33,-1.92,-0.33,0.00
6.226,-0.34,-0.43,0.09,-0.04,5.13,0.75,-1.33,-1.90,-0.28,0.00
6.227,-0.34,-0.43,0.09,-0.01,5.00,1.06,-1.33,-1.90,-0.28,0.00
6.237,-0.33,-0.45,0.11,-0.01,5.00,1.06,-1.33,-1.90,-0.28,0.00
6.239,-0.33,-0.45,0.11,-0.01,5.00,1.06,-1.34,-1.87,-0.26,0.00
6.239,-0.33,-0.45,0.11,0.05,4.78,1.28,-1.34,-1.87,-0.26,0.00
6.245,-0.31,-0.49,0.13,0.05,4.78,1.28,-1.34,-1.87,-0.26,0.00
6.246,-0.31,-0.49,0.13,0.05,4.78,1.28,-1.38,-1.85,-0.26,0.00
6.247,-0.31,-0.49,0.13,0.19,4.47,1.55,-1.38,-1.85,-0.26,0.00
6.257,-0.31,-0.52,0.13,0.19,4.47,1.55,-1.38,-1.85,-0.26,0.00
6.258,-0.31,-0.52,0.13,0.19,4.47,1.55,-1.43,-1.84,-0.29,0.00
6.259,-0.31,-0.52,0.13,0.22,4.16,1.66,-1.43,-1.84,-0.29,0.00
6.267,-0.32,-0.57,0.14,0.22,4.16,1.66,-1.43,-1.84,-0.29,0.00
6.268,-0.32,-0.57,0.14,0.22,4.16,1.66,-1.49,-1.82,-0.34,0.00
6.269,-0.32,-0.57,0.14,0.13,3.67,1.85,-1.49,-1.82,-0.34,0.00
6.287,-0.31,-0.63,0.14,0.13,3.67,1.85,-1.49,-1.82,-0.34,0.00
6.288,-0.31,-0.63,0.14,0.13,3.67,1.85,-1.56,-1.78,-0.40,0.00
6.289,-0.31,-0.63,0.14,0.16,3.07,1.92,-1.56,-1.78,-0.40,0.00
6.29,-0.31,-0.70,0.13,0.16,3.07,1.92,-1.56,-1.78,-0.40,0.00
6.291,-0.31,-0.70,0.13,0.16,3.07,1.92,-1.64,-1.71,-0.46,0.00
6.292,-0.31,-0.70,0.13,0.12,2.38,1.94,-1.64,-1.71,-0.46,0.00
6.297,-0.31,-0.78,0.13,0.12,2.38,1.94,-1.64,-1.71,-0.46,0.00
6.298,-0.31,-0.78,0.13,0.12,2.38,1.94,-1.72,-1.60,-0.55,0.00
6.299,-0.31,-0.78,0.13,0.07,1.60,2.00,-1.72,-1.60,-0.55,0.00
6.309,-0.32,-0.85,0.12,0.07,1.60,2.00,-1.72,-1.60,-0.55,0.00
6.31,-0.32,-0.85,0.12,0.07,1.60,2.00,-1.82,-1.45,-0.64,0.00
6.311,-0.32,-0.85,0.12,-0.05,0.90,2.11,-1.82,-1.45,-0.64,0.00
6.316,-0.33,-0.92,0.13,-0.05,0.90,2.11,-1.82,-1.45,-0.64,0.00
6.317,-0.33,-0.92,0.13,-0.05,0.90,2.11,-1.91,-1.26,-0.74,0.00
6.318,-0.33,-0.92,0.13,-0.17,0.25,2.35,-1.91,-1.26,-0.74,0.00
6.327,-0.34,-0.99,0.15,-0.17,0.25,2.35,-1.91,-1.26,-0.74,0.00
6.328,-0.34,-0.99,0.15,-0.17,0.25,2.35,-2.00,-1.06,-0.84,0.00
6.329,-0.34,-0.99,0.15,-0.38,-0.43,2.62,-2.00,-1.06,-0.84,0.00
6.339,-0.36,-1.04,0.15,-0.38,-0.43,2.62,-2.00,-1.06,-0.84,0.00
6.34,-0.36,-1.04,0.15,-0.38,-0.43,2.62,-2.05,-0.86,-0.95,0.00
6.34,-0.36,-1.04,0.15,-0.62,-0.91,2.82,-2.05,-0.86,-0.95,0.00
6.346,-0.38,-1.08,0.15,-0.62,-0.91,2.82,-2.05,-0.86,-0.95,0.00
6.347,-0.38,-1.08,0.15,-0.62,-0.91,2.82,-2.08,-0.69,-1.04,0.00
6.348,-0.38,-1.08,0.15,-0.94,-1.27,2.99,-2.08,-0.69,-1.04,0.00
6.362,-0.42,-1.11,0.15,-0.94,-1.27,2.99,-2.08,-0.69,-1.04,0.00
6.363,-0.42,-1.11,0.15,-0.94,-1.27,2.99,-2.06,-0.55,-1.13,0.00
6.364,-0.42,-1.11,0.15,-1.39,-1.56,3.14,-2.06,-0.55,-1.13,0.00
6.365,-0.45,-1.14,0.14,-1.39,-1.56,3.14,-2.06,-0.55,-1.13,0.00
6.366,-0.45,-1.14,0.14,-1.39,-1.56,3.14,-2.01,-0.44,-1.19,0.00
6.367,-0.45,-1.14,0.14,-1.82,-1.94,3.22,-2.01,-0.44,-1.19,0.00
6.389,-0.48,-1.21,0.13,-1.82,-1.94,3.22,-2.01,-0.44,-1.19,0.00
6.39,-0.48,-1.21,0.13,-1.82,-1.94,3.22,-1.94,-0.36,-1.23,0.00
6.391,-0.48,-1.21,0.13,-2.24,-2.57,3.30,-1.94,-0.36,-1.23,0.00
6.392,-0.51,-1.27,0.12,-2.24,-2.57,3.30,-1.94,-0.36,-1.23,0.00
6.393,-0.51,-1.27,0.12,-2.24,-2.57,3.30,-1.85,-0.28,-1.25,0.00
6.394,-0.51,-1.27,0.12,-2.67,-3.21,3.40,-1.85,-0.28,-1.25,0.00
6.394,-0.55,-1.33,0.12,-2.67,-3.21,3.40,-1.85,-0.28,-1.25,0.00
6.395,-0.55,-1.33,0.12,-2.67,-3.21,3.40,-1.75,-0.19,-1.25,0.00
6.396,-0.55,-1.33,0.12,-3.11,-3.84,3.53,-1.75,-0.19,-1.25,0.00
6.407,-0.58,-1.37,0.13,-3.11,-3.84,3.53,-1.75,-0.19,-1.25,0.00
6.408,-0.58,-1.37,0.13,-3.11,-3.84,3.53,-1.63,-0.11,-1.23,0.00
6.409,-0.58,-1.37,0.13,-3.57,-4.23,3.83,-1.63,-0.11,-1.23,0.00
6.416,-0.61,-1.38,0.17,-3.57,-4.23,3.83,-1.63,-0.11,-1.23,0.00
6.417,-0.61,-1.38,0.17,-3.57,-4.23,3.83,-1.49,-0.07,-1.18,0.00
6.418,-0.61,-1.38,0.17,-3.97,-4.33,4.37,-1.49,-0.07,-1.18,0.00
6.428,-0.63,-1.36,0.22,-3.97,-4.33,4.37,-1.49,-0.07,-1.18,0.00
6.429,-0.63,-1.36,0.22,-3.97,-4.33,4.37,-1.32,-0.09,-1.09,0.00
6.429,-0.63,-1.36,0.22,-4.26,-4.12,4.91,-1.32,-0.09,-1.09,0.00
6.437,-0.64,-1.31,0.25,-4.26,-4.12,4.91,-1.32,-0.09,-1.09,0.00
6.438,-0.64,-1.31,0.25,-4.26,-4.12,4.91,-1.11,-0.20,-0.99,0.00
6.439,-0.64,-1.31,0.25,-4.38,-3.68,5.34,-1.11,-0.20,-0.99,0.00
6.446,-0.63,-1.25,0.26,-4.38,-3.68,5.34,-1.11,-0.20,-0.99,0.00
6.447,-0.63,-1.25,0.26,-4.38,-3.68,5.34,-0.88,-0.37,-0.88,0.00
6.448,-0.63,-1.25,0.26,-4.39,-3.10,5.51,-0.88,-0.37,-0.88,0.00
6.456,-0.60,-1.22,0.23,-4.39,-3.10,5.51,-0.88,-0.37,-0.88,0.00
6.458,-0.60,-1.22,0.23,-4.39,-3.10,5.51,-0.62,-0.55,-0.78,0.00
6.458,-0.60,-1.22,0.23,-4.18,-2.77,5.28,-0.62,-0.55,-0.78,0.00
6.468,-0.58,-1.22,0.18,-4.18,-2.77,5.28,-0.62,-0.55,-0.78,0.00
6.469,-0.58,-1.22,0.18,-4.18,-2.77,5.28,-0.38,-0.69,-0.68,0.00
6.47,-0.58,-1.22,0.18,-4.03,-2.75,4.78,-0.38,-0.69,-0.68,0.00
6.478,-0.57,-1.16,0.13,-4.03,-2.75,4.78,-0.38,-0.69,-0.68,0.00
6.479,-0.57,-1.16,0.13,-4.03,-2.75,4.78,-0.16,-0.72,-0.58,0.00
6.48,-0.57,-1.16,0.13,-3.98,-2.24,4.30,-0.16,-0.72,-0.58,0.00
6.504,-0.58,-1.08,0.10,-3.98,-2.24,4.30,-0.16,-0.72,-0.58,0.00
6.506,-0.58,-1.08,0.10,-3.98,-2.24,4.30,0.03,-0.64,-0.48,0.00
6.507,-0.58,-1.08,0.10,-4.03,-1.36,4.00,0.03,-0.64,-0.48,0.00
6.507,-0.58,-1.02,0.09,-4.03,-1.36,4.00,0.03,-0.64,-0.48,0.00
6.508,-0.58,-1.02,0.09,-4.03,-1.36,4.00,0.19,-0.47,-0.37,0.00
6.509,-0.58,-1.02,0.09,-4.08,-0.76,3.87,0.19,-0.47,-0.37,0.00
6.51,-0.56,-1.04,0.07,-4.08,-0.76,3.87,0.19,-0.47,-0.37,0.00
6.511,-0.56,-1.04,0.07,-4.08,-0.76,3.87,0.35,-0.23,-0.25,0.00
6.511,-0.56,-1.04,0.07,-3.90,-1.00,3.67,0.35,-0.23,-0.25,0.00
6.518,-0.55,-1.10,0.06,-3.90,-1.00,3.67,0.35,-0.23,-0.25,0.00
6.519,-0.55,-1.10,0.06,-3.90,-1.00,3.67,0.50,0.08,-0.12,0.00
6.52,-0.55,-1.10,0.06,-3.77,-1.51,3.49,0.50,0.08,-0.12,0.00
6.528,-0.55,-1.12,0.05,-3.77,-1.51,3.49,0.50,0.08,-0.12,0.00
6.529,-0.55,-1.12,0.05,-3.77,-1.51,3.49,0.63,0.47,0.00,0.00
6.53,-0.55,-1.12,0.05,-3.79,-1.68,3.34,0.63,0.47,0.00,0.00
6.539,-0.55,-1.13,0.05,-3.79,-1.68,3.34,0.63,0.47,0.00,0.00
6.541,-0.55,-1.13,0.05,-3.79,-1.68,3.34,0.75,0.91,0.14,0.00
6.541,-0.55,-1.13,0.05,-3.85,-1.77,3.31,0.75,0.91,0.14,0.00
6.548,-0.54,-1.15,0.07,-3.85,-1.77,3.31,0.75,0.91,0.14,0.00
6.551,-0.54,-1.15,0.07,-3.85,-1.77,3.31,0.86,1.36,0.29,0.00
6.552,-0.54,-1.15,0.07,-3.71,-1.96,3.45,0.86,1.36,0.29,0.00
6.559,-0.52,-1.20,0.08,-3.71,-1.96,3.45,0.86,1.36,0.29,0.00
6.561,-0.52,-1.20,0.08,-3.71,-1.96,3.45,0.99,1.77,0.45,0.00
6.561,-0.52,-1.20,0.08,-3.57,-2.47,3.47,0.99,1.77,0.45,0.00
6.569,-0.53,-1.25,0.09,-3.57,-2.47,3.47,0.99,1.77,0.45,0.00
6.57,-0.53,-1.25,0.09,-3.57,-2.47,3.47,1.12,2.10,0.59,0.00
6.571,-0.53,-1.25,0.09,-3.70,-2.96,3.49,1.12,2.10,0.59,0.00
6.579,-0.55,-1.28,0.07,-3.70,-2.96,3.49,1.12,2.10,0.59,0.00
6.58,-0.55,-1.28,0.07,-3.70,-2.96,3.49,1.25,2.33,0.73,0.00
6.581,-0.55,-1.28,0.07,-3.88,-3.20,3.25,1.25,2.33,0.73,0.00
6.603,-0.57,-1.29,0.07,-3.88,-3.20,3.25,1.25,2.33,0.73,0.00
6.604,-0.57,-1.29,0.07,-3.88,-3.20,3.25,1.37,2.47,0.88,0.00
6.605,-0.57,-1.29,0.07,-4.00,-3.29,3.14,1.37,2.47,0.88,0.00
6.606,-0.55,-1.30,0.06,-4.00,-3.29,3.14,1.37,2.47,0.88,0.00
6.607,-0.55,-1.30,0.06,-4.00,-3.29,3.14,1.47,2.50,1.05,0.00
6.608,-0.55,-1.30,0.06,-3.83,-3.31,2.96,1.47,2.50,1.05,0.00
6.609,-0.52,-1.30,0.05,-3.83,-3.31,2.96,1.47,2.50,1.05,0.00
6.61,-0.52,-1.30,0.05,-3.83,-3.31,2.96,1.58,2.48,1.21,0.00
