time,gFx,gFy,gFz,ax,ay,az,wx,wy,wz
12.013,-0.25,-0.7,0.09,4.14,-0.37,4.05,-0.46,0.69,1.15
12.025,-0.25,-0.7,0.09,4.14,-0.37,4.05,-0.0,0.32,0.58
12.04,-0.25,-0.7,0.09,4.23,-0.6,3.58,-0.0,0.32,0.58
12.042,-0.17,-0.82,0.01,4.23,-0.6,3.58,-0.0,0.32,0.58
12.06,-0.17,-0.82,0.01,4.34,-1.39,3.41,-0.0,0.32,0.58
12.075,-0.17,-0.82,0.01,4.08,-1.67,2.77,-0.0,0.32,0.58
12.081,-0.17,-0.82,0.01,4.08,-1.67,2.77,0.34,-0.17,-0.28
12.093,-0.17,-0.82,0.01,4.17,-1.89,2.28,0.34,-0.17,-0.28
12.101,-0.15,-0.94,-0.11,4.17,-1.89,2.28,0.34,-0.17,-0.28
12.113,-0.15,-0.94,-0.11,4.04,-1.24,1.73,0.34,-0.17,-0.28
12.139,-0.15,-0.94,-0.11,3.99,-1.34,1.37,0.34,-0.17,-0.28
12.147,-0.15,-0.94,-0.11,3.99,-1.34,1.37,0.4,-1.02,-1.59
12.163,-0.15,-0.94,-0.11,3.49,-2.1,0.91,0.4,-1.02,-1.59
12.171,-0.15,-1.2,-0.2,3.49,-2.1,0.91,0.4,-1.02,-1.59
12.175,-0.15,-1.2,-0.2,3.1,-3.76,0.38,0.4,-1.02,-1.59
12.193,-0.15,-1.2,-0.2,2.0,-4.67,0.04,0.4,-1.02,-1.59
12.214,-0.15,-1.2,-0.2,0.49,-4.46,0.16,0.4,-1.02,-1.59
12.216,-0.15,-1.2,-0.2,0.49,-4.46,0.16,0.52,-1.14,-3.05
12.232,-0.46,-1.3,-0.12,0.49,-4.46,0.16,0.52,-1.14,-3.05
12.234,-0.46,-1.3,-0.12,-1.3,-3.44,0.59,0.52,-1.14,-3.05
12.255,-0.46,-1.3,-0.12,-2.93,-2.79,1.16,0.52,-1.14,-3.05
12.273,-0.46,-1.3,-0.12,-3.89,-2.27,0.87,0.52,-1.14,-3.05
12.276,-0.46,-1.3,-0.12,-3.89,-2.27,0.87,1.35,-0.77,-2.93
12.294,-0.46,-1.3,-0.12,-4.8,-2.88,-0.12,1.35,-0.77,-2.93
12.296,-0.68,-1.3,-0.17,-4.8,-2.88,-0.12,1.35,-0.77,-2.93
12.313,-0.68,-1.3,-0.17,-5.27,-3.29,-1.86,1.35,-0.77,-2.93
12.342,-0.68,-1.3,-0.17,-5.95,-2.64,-3.61,1.35,-0.77,-2.93
12.344,-0.68,-1.3,-0.17,-5.95,-2.64,-3.61,2.37,1.35,-1.37
12.37,-0.68,-1.3,-0.17,-6.32,-0.76,-4.35,2.37,1.35,-1.37
12.371,-0.77,-0.98,-0.49,-6.32,-0.76,-4.35,2.37,1.35,-1.37
12.377,-0.77,-0.98,-0.49,-6.69,1.15,-4.44,2.37,1.35,-1.37
12.395,-0.77,-0.98,-0.49,-5.96,2.32,-3.82,2.37,1.35,-1.37
12.406,-0.77,-0.98,-0.49,-5.96,2.32,-3.82,0.69,-0.83,0.14
12.413,-0.77,-0.98,-0.49,-5.05,2.79,-3.41,0.69,-0.83,0.14
12.426,-0.57,-0.69,-0.32,-5.05,2.79,-3.41,0.69,-0.83,0.14
12.442,-0.57,-0.69,-0.32,-3.67,3.19,-3.09,0.69,-0.83,0.14
12.454,-0.57,-0.69,-0.32,-2.71,3.8,-3.32,0.69,-0.83,0.14
12.474,-0.57,-0.69,-0.32,-1.44,4.04,-3.18,0.69,-0.83,0.14
12.476,-0.57,-0.69,-0.32,-1.44,4.04,-3.18,0.22,-1.54,0.66
12.492,-0.29,-0.55,-0.33,-1.44,4.04,-3.18,0.22,-1.54,0.66
12.495,-0.29,-0.55,-0.33,-0.67,4.3,-3.16,0.22,-1.54,0.66
12.513,-0.29,-0.55,-0.33,-0.06,4.25,-2.68,0.22,-1.54,0.66
12.539,-0.29,-0.55,-0.33,-0.04,4.01,-2.34,0.22,-1.54,0.66
12.54,-0.29,-0.55,-0.33,-0.04,4.01,-2.34,-0.05,-0.86,0.22
12.559,-0.29,-0.55,-0.33,-0.08,3.92,-1.87,-0.05,-0.86,0.22
12.561,-0.29,-0.59,-0.23,-0.08,3.92,-1.87,-0.05,-0.86,0.22
12.574,-0.29,-0.59,-0.23,-0.28,3.45,-1.81,-0.05,-0.86,0.22
12.593,-0.29,-0.59,-0.23,-0.45,2.78,-1.59,-0.05,-0.86,0.22
12.601,-0.29,-0.59,-0.23,-0.45,2.78,-1.59,-0.21,-0.98,-0.25
12.615,-0.29,-0.59,-0.23,-0.82,2.32,-1.46,-0.21,-0.98,-0.25
12.621,-0.39,-0.75,-0.19,-0.82,2.32,-1.46,-0.21,-0.98,-0.25
12.644,-0.39,-0.75,-0.19,-1.11,2.0,-1.2,-0.21,-0.98,-0.25
12.673,-0.39,-0.75,-0.19,-1.44,1.68,-1.13,-0.21,-0.98,-0.25
12.674,-0.39,-0.75,-0.19,-1.44,1.68,-1.13,-0.09,-0.78,-0.34
12.675,-0.39,-0.75,-0.19,-1.48,0.73,-1.11,-0.09,-0.78,-0.34
12.686,-0.46,-0.99,-0.2,-1.48,0.73,-1.11,-0.09,-0.78,-0.34
12.694,-0.46,-0.99,-0.2,-1.66,-0.55,-1.41,-0.09,-0.78,-0.34
12.713,-0.46,-0.99,-0.2,-1.87,-2.27,-1.96,-0.09,-0.78,-0.34
12.74,-0.46,-0.99,-0.2,-2.4,-3.13,-2.48,-0.09,-0.78,-0.34
12.741,-0.46,-0.99,-0.2,-2.4,-3.13,-2.48,0.11,0.01,-0.39
12.766,-0.62,-1.17,-0.3,-2.4,-3.13,-2.48,0.11,0.01,-0.39
12.767,-0.62,-1.17,-0.3,-3.2,-1.97,-2.1,0.11,0.01,-0.39
12.773,-0.62,-1.17,-0.3,-3.91,-0.58,-1.11,0.11,0.01,-0.39
12.794,-0.62,-1.17,-0.3,-3.65,-0.4,-0.38,0.11,0.01,-0.39
12.797,-0.62,-1.17,-0.3,-3.65,-0.4,-0.38,-0.26,-0.65,0.5
12.813,-0.62,-1.17,-0.3,-2.42,-1.86,-0.14,-0.26,-0.65,0.5
12.821,-0.53,-1.18,-0.12,-2.42,-1.86,-0.14,-0.26,-0.65,0.5
12.84,-0.53,-1.18,-0.12,-0.9,-2.83,-0.68,-0.26,-0.65,0.5
12.858,-0.53,-1.18,-0.12,0.12,-3.17,-1.49,-0.26,-0.65,0.5
12.861,-0.53,-1.18,-0.12,0.12,-3.17,-1.49,0.04,-0.66,0.18
12.901,-0.53,-1.18,-0.12,0.48,-3.31,-2.25,0.04,-0.66,0.18
12.902,-0.32,-1.28,-0.35,0.48,-3.31,-2.25,0.04,-0.66,0.18
12.903,-0.32,-1.28,-0.35,-0.07,-3.02,-2.7,0.04,-0.66,0.18
12.913,-0.32,-1.28,-0.35,-1.43,-2.61,-2.07,0.04,-0.66,0.18
12.927,-0.32,-1.28,-0.35,-1.43,-2.61,-2.07,-0.39,1.45,-0.29
12.94,-0.32,-1.28,-0.35,-2.79,-2.17,-1.56,-0.39,1.45,-0.29
12.946,-0.7,-1.17,-0.25,-2.79,-2.17,-1.56,-0.39,1.45,-0.29
12.978,-0.7,-1.17,-0.25,-3.82,-2.16,-0.95,-0.39,1.45,-0.29
12.979,-0.7,-1.17,-0.25,-4.47,-2.36,-0.44,-0.39,1.45,-0.29
12.993,-0.7,-1.17,-0.25,-4.21,-2.64,0.0,-0.39,1.45,-0.29
12.995,-0.7,-1.17,-0.25,-4.21,-2.64,0.0,-0.64,1.51,1.02
13.011,-0.72,-1.19,-0.16,-4.21,-2.64,0.0,-0.64,1.51,1.02
13.013,-0.72,-1.19,-0.16,-3.52,-2.57,0.28,-0.64,1.51,1.02
13.037,-0.72,-1.19,-0.16,-2.59,-2.42,0.49,-0.64,1.51,1.02
13.058,-0.72,-1.19,-0.16,-1.95,-1.99,0.66,-0.64,1.51,1.02
13.059,-0.72,-1.19,-0.16,-1.95,-1.99,0.66,-0.69,1.86,2.1
13.074,-0.72,-1.19,-0.16,-1.23,-1.69,1.01,-0.69,1.86,2.1
13.076,-0.55,-1.05,-0.13,-1.23,-1.69,1.01,-0.69,1.86,2.1
13.093,-0.55,-1.05,-0.13,-0.4,-1.56,1.5,-0.69,1.86,2.1
13.113,-0.55,-1.05,-0.13,0.55,-1.38,1.89,-0.69,1.86,2.1
13.121,-0.55,-1.05,-0.13,0.55,-1.38,1.89,-1.01,1.36,2.43
13.138,-0.55,-1.05,-0.13,1.48,-1.08,2.35,-1.01,1.36,2.43
13.143,-0.33,-0.9,-0.06,1.48,-1.08,2.35,-1.01,1.36,2.43
13.171,-0.33,-0.9,-0.06,2.33,-0.59,2.57,-1.01,1.36,2.43
13.174,-0.33,-0.9,-0.06,3.15,-0.44,2.87,-1.01,1.36,2.43
13.186,-0.33,-0.9,-0.06,3.15,-0.44,2.87,-1.1,0.88,1.88
13.193,-0.33,-0.9,-0.06,3.72,-0.12,2.98,-1.1,0.88,1.88
13.206,-0.16,-0.76,-0.04,3.72,-0.12,2.98,-1.1,0.88,1.88
13.213,-0.16,-0.76,-0.04,4.23,-0.08,3.33,-1.1,0.88,1.88
13.239,-0.16,-0.76,-0.04,4.29,0.34,3.61,-1.1,0.88,1.88
13.268,-0.16,-0.76,-0.04,4.23,0.53,4.19,-1.1,0.88,1.88
13.27,-0.16,-0.76,-0.04,4.23,0.53,4.19,-1.19,0.59,0.82
13.271,-0.18,-0.64,0.06,4.23,0.53,4.19,-1.19,0.59,0.82
13.275,-0.18,-0.64,0.06,4.03,0.89,4.43,-1.19,0.59,0.82
13.293,-0.18,-0.64,0.06,3.98,0.79,4.95,-1.19,0.59,0.82
13.313,-0.18,-0.64,0.06,3.77,0.91,4.81,-1.19,0.59,0.82
13.32,-0.18,-0.64,0.06,3.77,0.91,4.81,-0.84,-0.05,0.05
13.336,-0.18,-0.64,0.06,3.53,0.34,4.91,-0.84,-0.05,0.05
13.337,-0.23,-0.72,0.1,3.53,0.34,4.91,-0.84,-0.05,0.05
13.353,-0.23,-0.72,0.1,3.19,-0.13,4.39,-0.84,-0.05,0.05
13.38,-0.23,-0.72,0.1,3.13,-0.71,4.33,-0.84,-0.05,0.05
13.383,-0.23,-0.72,0.1,3.13,-0.71,4.33,-0.51,-0.78,-0.55
13.417,-0.23,-0.72,0.1,3.12,-1.1,4.1,-0.51,-0.78,-0.55
13.419,-0.22,-0.93,0.09,3.12,-1.1,4.1,-0.51,-0.78,-0.55
13.42,-0.22,-0.93,0.09,3.43,-1.57,4.23,-0.51,-0.78,-0.55
13.44,-0.22,-0.93,0.09,3.4,-1.68,3.95,-0.51,-0.78,-0.55
13.446,-0.22,-0.93,0.09,3.4,-1.68,3.95,0.38,-0.75,-1.5
13.475,-0.22,-0.93,0.09,3.31,-2.34,3.61,0.38,-0.75,-1.5
13.477,-0.18,-1.17,0.02,3.31,-2.34,3.61,0.38,-0.75,-1.5
13.478,-0.18,-1.17,0.02,2.68,-3.26,2.38,0.38,-0.75,-1.5
13.493,-0.18,-1.17,0.02,2.01,-4.72,1.3,0.38,-0.75,-1.5
13.515,-0.18,-1.17,0.02,0.76,-6.36,0.36,0.38,-0.75,-1.5
13.519,-0.18,-1.17,0.02,0.76,-6.36,0.36,1.34,-0.16,-2.93
13.531,-0.43,-1.63,-0.18,0.76,-6.36,0.36,1.34,-0.16,-2.93
13.535,-0.43,-1.63,-0.18,-1.25,-6.59,-0.1,1.34,-0.16,-2.93
13.554,-0.43,-1.63,-0.18,-3.28,-5.28,-0.23,1.34,-0.16,-2.93
13.573,-0.43,-1.63,-0.18,-5.06,-3.92,-0.33,1.34,-0.16,-2.93
13.576,-0.43,-1.63,-0.18,-5.06,-3.92,-0.33,1.75,-0.43,-3.21
13.595,-0.43,-1.63,-0.18,-6.18,-2.67,-0.89,1.75,-0.43,-3.21
13.597,-0.8,-1.25,-0.19,-6.18,-2.67,-0.89,1.75,-0.43,-3.21
13.613,-0.8,-1.25,-0.19,-6.9,-2.02,-2.03,1.75,-0.43,-3.21
13.637,-0.8,-1.25,-0.19,-6.88,-2.35,-3.56,1.75,-0.43,-3.21
13.641,-0.8,-1.25,-0.19,-6.88,-2.35,-3.56,2.75,1.32,-1.03
13.662,-0.8,-1.25,-0.19,-7.48,-2.02,-5.28,2.75,1.32,-1.03
13.664,-0.86,-1.07,-0.58,-7.48,-2.02,-5.28,2.75,1.32,-1.03
13.674,-0.86,-1.07,-0.58,-7.16,0.64,-6.41,2.75,1.32,-1.03
13.693,-0.86,-1.07,-0.58,-6.27,1.71,-6.45,2.75,1.32,-1.03
13.707,-0.86,-1.07,-0.58,-6.27,1.71,-6.45,1.07,0.12,0.88
13.715,-0.86,-1.07,-0.58,-4.78,2.82,-6.71,1.07,0.12,0.88
13.726,-0.61,-0.64,-0.6,-4.78,2.82,-6.71,1.07,0.12,0.88
13.733,-0.61,-0.64,-0.6,-4.02,3.63,-6.13,1.07,0.12,0.88
13.754,-0.61,-0.64,-0.6,-2.63,3.59,-4.81,1.07,0.12,0.88
13.777,-0.61,-0.64,-0.6,-0.77,3.16,-4.08,1.07,0.12,0.88
13.779,-0.61,-0.64,-0.6,-0.77,3.16,-4.08,-0.78,-2.96,1.42
13.817,-0.18,-0.67,-0.36,-0.77,3.16,-4.08,-0.78,-2.96,1.42
13.819,-0.18,-0.67,-0.36,0.92,3.02,-3.35,-0.78,-2.96,1.42
13.82,-0.18,-0.67,-0.36,1.64,3.3,-2.91,-0.78,-2.96,1.42
13.84,-0.18,-0.67,-0.36,2.04,3.28,-2.02,-0.78,-2.96,1.42
13.842,-0.18,-0.67,-0.36,2.04,3.28,-2.02,-0.46,-1.36,0.83
13.877,-0.18,-0.67,-0.36,2.68,3.1,-1.81,-0.46,-1.36,0.83
13.879,-0.05,-0.64,-0.21,2.68,3.1,-1.81,-0.46,-1.36,0.83
13.879,-0.05,-0.64,-0.21,2.75,3.37,-1.08,-0.46,-1.36,0.83
13.893,-0.05,-0.64,-0.21,2.0,3.39,-0.5,-0.46,-1.36,0.83
13.901,-0.05,-0.64,-0.21,2.0,3.39,-0.5,0.17,-0.12,-0.34
13.915,-0.05,-0.64,-0.21,1.3,3.42,-0.36,0.17,-0.12,-0.34
13.921,-0.22,-0.63,-0.11,1.3,3.42,-0.36,0.17,-0.12,-0.34
13.934,-0.22,-0.63,-0.11,0.64,2.98,-0.78,0.17,-0.12,-0.34
13.955,-0.22,-0.63,-0.11,-0.15,2.37,-1.22,0.17,-0.12,-0.34
13.975,-0.22,-0.63,-0.11,-0.15,2.37,-1.22,0.62,0.19,-0.81
13.977,-0.22,-0.63,-0.11,-1.04,1.85,-1.7,0.62,0.19,-0.81
13.986,-0.43,-0.84,-0.25,-1.04,1.85,-1.7,0.62,0.19,-0.81
13.993,-0.43,-0.84,-0.25,-1.48,1.07,-2.04,0.62,0.19,-0.81
14.014,-0.43,-0.84,-0.25,-1.71,-0.63,-2.55,0.62,0.19,-0.81
14.034,-0.43,-0.84,-0.25,-1.82,-2.29,-2.09,0.62,0.19,-0.81
14.036,-0.43,-0.84,-0.25,-1.82,-2.29,-2.09,-0.05,-0.17,-0.86
14.056,-0.49,-1.36,-0.27,-1.82,-2.29,-2.09,-0.05,-0.17,-0.86
14.057,-0.49,-1.36,-0.27,-2.32,-3.69,-2.14,-0.05,-0.17,-0.86
14.084,-0.49,-1.36,-0.27,-3.53,-3.83,-1.31,-0.05,-0.17,-0.86
14.093,-0.49,-1.36,-0.27,-4.79,-2.01,-0.31,-0.05,-0.17,-0.86
14.096,-0.49,-1.36,-0.27,-4.79,-2.01,-0.31,-0.79,-0.65,-0.65
14.114,-0.49,-1.36,-0.27,-5.02,-1.76,0.55,-0.79,-0.65,-0.65
14.116,-0.74,-1.19,-0.01,-5.02,-1.76,0.55,-0.79,-0.65,-0.65
14.135,-0.74,-1.19,-0.01,-4.15,-2.59,0.96,-0.79,-0.65,-0.65
14.16,-0.74,-1.19,-0.01,-2.7,-2.53,0.95,-0.79,-0.65,-0.65
14.162,-0.74,-1.19,-0.01,-2.7,-2.53,0.95,-0.13,-0.54,0.11
14.197,-0.74,-1.19,-0.01,-1.94,-2.0,0.26,-0.13,-0.54,0.11
14.199,-0.44,-1.17,-0.12,-1.94,-2.0,0.26,-0.13,-0.54,0.11
14.199,-0.44,-1.17,-0.12,-1.68,-1.77,-0.69,-0.13,-0.54,0.11
14.213,-0.44,-1.17,-0.12,-1.93,-1.72,-1.35,-0.13,-0.54,0.11
14.227,-0.44,-1.17,-0.12,-1.93,-1.72,-1.35,0.03,1.7,-0.01
14.234,-0.44,-1.17,-0.12,-2.62,-1.7,-1.4,0.03,1.7,-0.01
14.247,-0.61,-1.14,-0.23,-2.62,-1.7,-1.4,0.03,1.7,-0.01
14.257,-0.61,-1.14,-0.23,-3.47,-1.61,-1.08,0.03,1.7,-0.01
14.28,-0.61,-1.14,-0.23,-3.83,-1.98,-0.64,0.03,1.7,-0.01
14.293,-0.61,-1.14,-0.23,-4.25,-2.14,-0.02,0.03,1.7,-0.01
14.294,-0.61,-1.14,-0.23,-4.25,-2.14,-0.02,-0.61,2.25,0.63
14.311,-0.7,-1.13,-0.1,-4.25,-2.14,-0.02,-0.61,2.25,0.63
14.318,-0.7,-1.13,-0.1,-3.9,-1.73,0.67,-0.61,2.25,0.63
14.336,-0.7,-1.13,-0.1,-3.35,-1.41,1.1,-0.61,2.25,0.63
14.354,-0.7,-1.13,-0.1,-2.6,-1.52,1.42,-0.61,2.25,0.63
14.356,-0.7,-1.13,-0.1,-2.6,-1.52,1.42,-0.96,2.01,1.43
14.375,-0.7,-1.13,-0.1,-2.13,-1.71,1.67,-0.96,2.01,1.43
14.376,-0.56,-1.1,-0.06,-2.13,-1.71,1.67,-0.96,2.01,1.43
14.394,-0.56,-1.1,-0.06,-1.7,-1.53,1.97,-0.96,2.01,1.43
14.414,-0.56,-1.1,-0.06,-1.61,-0.91,2.65,-0.96,2.01,1.43
14.421,-0.56,-1.1,-0.06,-1.61,-0.91,2.65,-1.14,1.53,1.72
14.434,-0.56,-1.1,-0.06,-1.26,-0.37,3.05,-1.14,1.53,1.72
14.441,-0.54,-0.9,0.03,-1.26,-0.37,3.05,-1.14,1.53,1.72
14.455,-0.54,-0.9,0.03,-0.89,-0.18,3.5,-1.14,1.53,1.72
14.478,-0.54,-0.9,0.03,-0.1,0.04,3.53,-1.14,1.53,1.72
14.486,-0.54,-0.9,0.03,-0.1,0.04,3.53,-0.87,0.68,2.08
14.493,-0.54,-0.9,0.03,0.67,-0.0,3.57,-0.87,0.68,2.08
14.506,-0.38,-0.81,0.01,0.67,-0.0,3.57,-0.87,0.68,2.08
14.515,-0.38,-0.81,0.01,1.47,-0.01,3.31,-0.87,0.68,2.08
14.533,-0.38,-0.81,0.01,2.16,-0.17,3.47,-0.87,0.68,2.08
14.555,-0.38,-0.81,0.01,2.68,-0.22,3.53,-0.87,0.68,2.08
14.556,-0.38,-0.81,0.01,2.68,-0.22,3.53,-0.74,0.8,2.04
14.575,-0.26,-0.79,0.05,2.68,-0.22,3.53,-0.74,0.8,2.04
14.576,-0.26,-0.79,0.05,3.23,-0.45,4.09,-0.74,0.8,2.04
14.593,-0.26,-0.79,0.05,3.65,-0.03,4.22,-0.74,0.8,2.04
14.614,-0.26,-0.79,0.05,4.27,0.07,4.51,-0.74,0.8,2.04
14.616,-0.26,-0.79,0.05,4.27,0.07,4.51,-0.41,0.48,1.48
14.634,-0.26,-0.79,0.05,4.77,0.4,4.29,-0.41,0.48,1.48
14.636,-0.12,-0.69,0.09,4.77,0.4,4.29,-0.41,0.48,1.48
14.655,-0.12,-0.69,0.09,5.41,0.08,4.21,-0.41,0.48,1.48
14.675,-0.12,-0.69,0.09,5.57,-0.48,3.65,-0.41,0.48,1.48
14.683,-0.12,-0.69,0.09,5.57,-0.48,3.65,-0.01,-0.04,0.15
14.693,-0.12,-0.69,0.09,5.6,-1.81,3.42,-0.01,-0.04,0.15
14.7,-0.08,-0.95,0.0,5.6,-1.81,3.42,-0.01,-0.04,0.15
14.714,-0.08,-0.95,0.0,4.56,-1.96,2.82,-0.01,-0.04,0.15
14.733,-0.08,-0.95,0.0,3.49,-1.78,2.48,-0.01,-0.04,0.15
14.754,-0.08,-0.95,0.0,3.49,-1.78,2.48,0.59,-0.09,-1.14
14.756,-0.08,-0.95,0.0,2.48,-1.72,1.93,0.59,-0.09,-1.14
14.776,-0.32,-1.02,-0.11,2.48,-1.72,1.93,0.59,-0.09,-1.14
14.777,-0.32,-1.02,-0.11,2.01,-2.1,1.45,0.59,-0.09,-1.14
14.794,-0.32,-1.02,-0.11,1.69,-2.6,0.84,0.59,-0.09,-1.14
14.813,-0.32,-1.02,-0.11,1.69,-3.77,0.54,0.59,-0.09,-1.14
14.815,-0.32,-1.02,-0.11,1.69,-3.77,0.54,0.76,-0.77,-1.74
14.831,-0.29,-1.35,-0.2,1.69,-3.77,0.54,0.76,-0.77,-1.74
14.834,-0.29,-1.35,-0.2,1.31,-4.36,0.06,0.76,-0.77,-1.74
14.854,-0.29,-1.35,-0.2,0.38,-3.75,-0.29,0.76,-0.77,-1.74
14.877,-0.29,-1.35,-0.2,-1.01,-2.96,-0.4,0.76,-0.77,-1.74
14.879,-0.29,-1.35,-0.2,-1.01,-2.96,-0.4,0.95,-1.23,-2.69
14.893,-0.29,-1.35,-0.2,-2.01,-2.73,-0.7,0.95,-1.23,-2.69
14.897,-0.51,-1.24,-0.21,-2.01,-2.73,-0.7,0.95,-1.23,-2.69
14.914,-0.51,-1.24,-0.21,-2.67,-3.08,-1.5,0.95,-1.23,-2.69
14.934,-0.51,-1.24,-0.21,-3.6,-3.26,-2.44,0.95,-1.23,-2.69
14.941,-0.51,-1.24,-0.21,-3.6,-3.26,-2.44,2.21,0.68,-2.24
14.953,-0.51,-1.24,-0.21,-4.49,-3.05,-3.75,2.21,0.68,-2.24
14.961,-0.67,-1.29,-0.51,-4.49,-3.05,-3.75,2.21,0.68,-2.24
14.976,-0.67,-1.29,-0.51,-5.54,-2.31,-5.11,2.21,0.68,-2.24
14.993,-0.67,-1.29,-0.51,-6.07,-0.41,-5.15,2.21,0.68,-2.24
15.006,-0.67,-1.29,-0.51,-6.07,-0.41,-5.15,1.12,0.08,-0.62
15.014,-0.67,-1.29,-0.51,-6.25,1.83,-4.89,1.12,0.08,-0.62
15.026,-0.71,-0.72,-0.46,-6.25,1.83,-4.89,1.12,0.08,-0.62
15.034,-0.71,-0.72,-0.46,-5.16,2.95,-4.12,1.12,0.08,-0.62
15.053,-0.71,-0.72,-0.46,-3.92,3.37,-3.23,1.12,0.08,-0.62
15.079,-0.71,-0.72,-0.46,-2.55,3.69,-2.83,1.12,0.08,-0.62
15.08,-0.71,-0.72,-0.46,-2.55,3.69,-2.83,-0.15,-1.66,0.59
15.092,-0.37,-0.58,-0.31,-2.55,3.69,-2.83,-0.15,-1.66,0.59
15.095,-0.37,-0.58,-0.31,-1.55,4.03,-2.65,-0.15,-1.66,0.59
15.113,-0.37,-0.58,-0.31,-0.6,4.19,-2.14,-0.15,-1.66,0.59
15.135,-0.37,-0.58,-0.31,-0.04,4.54,-1.85,-0.15,-1.66,0.59
15.136,-0.37,-0.58,-0.31,-0.04,4.54,-1.85,-0.35,-1.09,0.52
15.153,-0.37,-0.58,-0.31,0.33,4.63,-1.3,-0.35,-1.09,0.52
15.155,-0.24,-0.5,-0.21,0.33,4.63,-1.3,-0.35,-1.09,0.52
15.175,-0.24,-0.5,-0.21,0.34,4.49,-0.98,-0.35,-1.09,0.52
15.193,-0.24,-0.5,-0.21,0.3,4.14,-0.71,-0.35,-1.09,0.52
15.201,-0.24,-0.5,-0.21,0.3,4.14,-0.71,-0.42,-0.98,0.02
15.214,-0.24,-0.5,-0.21,0.11,3.78,-0.58,-0.42,-0.98,0.02
15.221,-0.31,-0.61,-0.16,0.11,3.78,-0.58,-0.42,-0.98,0.02
15.233,-0.31,-0.61,-0.16,0.07,3.23,-0.31,-0.42,-0.98,0.02
15.254,-0.31,-0.61,-0.16,-0.1,2.97,-0.12,-0.42,-0.98,0.02
15.273,-0.31,-0.61,-0.16,-0.1,2.97,-0.12,-0.38,-0.83,-0.26
15.274,-0.31,-0.61,-0.16,-0.15,2.49,0.03,-0.38,-0.83,-0.26
15.286,-0.36,-0.76,-0.12,-0.15,2.49,0.03,-0.38,-0.83,-0.26
15.294,-0.36,-0.76,-0.12,-0.3,1.69,0.05,-0.38,-0.83,-0.26
15.314,-0.36,-0.76,-0.12,-0.35,0.38,0.17,-0.38,-0.83,-0.26
15.333,-0.36,-0.76,-0.12,-0.62,-0.97,-0.09,-0.38,-0.83,-0.26
15.334,-0.36,-0.76,-0.12,-0.62,-0.97,-0.09,-0.06,-0.47,-0.67
15.352,-0.42,-1.27,-0.17,-0.62,-0.97,-0.09,-0.06,-0.47,-0.67
15.355,-0.42,-1.27,-0.17,-1.15,-2.99,-0.44,-0.06,-0.47,-0.67
15.373,-0.42,-1.27,-0.17,-2.19,-3.42,-0.5,-0.06,-0.47,-0.67
15.393,-0.42,-1.27,-0.17,-3.25,-1.67,-0.41,-0.06,-0.47,-0.67
15.397,-0.42,-1.27,-0.17,-3.25,-1.67,-0.41,0.07,-0.08,-0.9
15.414,-0.42,-1.27,-0.17,-4.23,-0.7,-0.05,0.07,-0.08,-0.9
15.416,-0.71,-1.04,-0.12,-4.23,-0.7,-0.05,0.07,-0.08,-0.9
15.434,-0.71,-1.04,-0.12,-4.17,-1.59,0.19,0.07,-0.08,-0.9
15.454,-0.71,-1.04,-0.12,-3.04,-3.21,-0.14,0.07,-0.08,-0.9
15.462,-0.71,-1.04,-0.12,-3.04,-3.21,-0.14,0.69,-0.03,0.16
15.473,-0.71,-1.04,-0.12,-1.89,-3.5,-1.12,0.69,-0.03,0.16
15.481,-0.46,-1.33,-0.27,-1.89,-3.5,-1.12,0.69,-0.03,0.16
15.493,-0.46,-1.33,-0.27,-1.69,-3.35,-2.14,0.69,-0.03,0.16
15.514,-0.46,-1.33,-0.27,-2.1,-2.75,-2.78,0.69,-0.03,0.16
15.526,-0.46,-1.33,-0.27,-2.1,-2.75,-2.78,0.49,1.13,-0.05
15.535,-0.46,-1.33,-0.27,-2.77,-2.13,-3.0,0.49,1.13,-0.05
15.553,-0.63,-1.13,-0.37,-2.77,-2.13,-3.0,0.49,1.13,-0.05
15.554,-0.63,-1.13,-0.37,-3.28,-1.39,-2.6,0.49,1.13,-0.05
15.573,-0.63,-1.13,-0.37,-3.63,-0.9,-2.32,0.49,1.13,-0.05
15.593,-0.63,-1.13,-0.37,-3.35,-1.4,-2.02,0.49,1.13,-0.05
15.594,-0.63,-1.13,-0.37,-3.35,-1.4,-2.02,-0.12,1.97,0.87
15.611,-0.63,-1.15,-0.31,-3.35,-1.4,-2.02,-0.12,1.97,0.87
15.615,-0.63,-1.15,-0.31,-2.9,-1.96,-1.79,-0.12,1.97,0.87
15.634,-0.63,-1.15,-0.31,-2.43,-1.82,-1.34,-0.12,1.97,0.87
15.654,-0.63,-1.15,-0.31,-2.25,-1.4,-0.47,-0.12,1.97,0.87
15.657,-0.63,-1.15,-0.31,-2.25,-1.4,-0.47,-0.76,2.0,1.44
15.682,-0.63,-1.15,-0.31,-1.89,-1.29,0.33,-0.76,2.0,1.44
15.683,-0.58,-1.04,-0.15,-1.89,-1.29,0.33,-0.76,2.0,1.44
15.693,-0.58,-1.04,-0.15,-1.4,-1.37,1.08,-0.76,2.0,1.44
15.713,-0.58,-1.04,-0.15,-0.75,-1.49,1.63,-0.76,2.0,1.44
15.721,-0.58,-1.04,-0.15,-0.75,-1.49,1.63,-1.08,1.55,1.82
15.733,-0.58,-1.04,-0.15,-0.23,-1.48,2.2,-1.08,1.55,1.82
15.74,-0.46,-0.99,-0.03,-0.23,-1.48,2.2,-1.08,1.55,1.82
15.753,-0.46,-0.99,-0.03,0.25,-1.07,2.57,-1.08,1.55,1.82
15.776,-0.46,-0.99,-0.03,0.72,-0.87,2.9,-1.08,1.55,1.82
15.786,-0.46,-0.99,-0.03,0.72,-0.87,2.9,-1.03,1.11,1.85
15.793,-0.46,-0.99,-0.03,1.16,-0.84,2.98,-1.03,1.11,1.85
15.805,-0.38,-0.89,-0.0,1.16,-0.84,2.98,-1.03,1.11,1.85
15.813,-0.38,-0.89,-0.0,1.66,-0.9,3.25,-1.03,1.11,1.85
15.833,-0.38,-0.89,-0.0,2.1,-0.78,3.33,-1.03,1.11,1.85
15.853,-0.38,-0.89,-0.0,2.49,-0.74,3.72,-1.03,1.11,1.85
15.854,-0.38,-0.89,-0.0,2.49,-0.74,3.72,-0.92,1.03,1.67
15.872,-0.29,-0.81,0.04,2.49,-0.74,3.72,-0.92,1.03,1.67
15.874,-0.29,-0.81,0.04,2.8,-0.53,3.9,-0.92,1.03,1.67
15.893,-0.29,-0.81,0.04,3.13,-0.3,4.29,-0.92,1.03,1.67
15.913,-0.29,-0.81,0.04,3.34,0.05,4.28,-0.92,1.03,1.67
15.916,-0.29,-0.81,0.04,3.34,0.05,4.28,-0.65,0.57,1.26
15.934,-0.29,-0.81,0.04,3.83,0.05,4.45,-0.65,0.57,1.26
15.936,-0.21,-0.7,0.07,3.83,0.05,4.45,-0.65,0.57,1.26
15.954,-0.21,-0.7,0.07,4.11,0.26,4.17,-0.65,0.57,1.26
15.973,-0.21,-0.7,0.07,4.46,0.01,4.23,-0.65,0.57,1.26
15.981,-0.21,-0.7,0.07,4.46,0.01,4.23,-0.22,0.15,0.52
15.993,-0.21,-0.7,0.07,4.52,-0.29,3.79,-0.22,0.15,0.52
16.001,-0.14,-0.8,0.02,4.52,-0.29,3.79,-0.22,0.15,0.52
16.014,-0.14,-0.8,0.02,4.62,-1.0,3.64,-0.22,0.15,0.52
16.033,-0.14,-0.8,0.02,4.31,-1.31,3.32,-0.22,0.15,0.52
16.051,-0.14,-0.8,0.02,4.31,-1.31,3.32,0.05,-0.45,-0.57
16.055,-0.14,-0.8,0.02,4.18,-1.6,3.52,0.05,-0.45,-0.57
16.071,-0.17,-0.91,0.04,4.18,-1.6,3.52,0.05,-0.45,-0.57
16.073,-0.17,-0.91,0.04,3.8,-1.05,3.33,0.05,-0.45,-0.57
16.093,-0.17,-0.91,0.04,3.71,-1.25,2.95,0.05,-0.45,-0.57
16.113,-0.17,-0.91,0.04,3.43,-2.13,2.1,0.05,-0.45,-0.57
16.114,-0.17,-0.91,0.04,3.43,-2.13,2.1,0.69,-0.89,-1.73
16.132,-0.14,-1.24,-0.09,3.43,-2.13,2.1,0.69,-0.89,-1.73
16.134,-0.14,-1.24,-0.09,3.23,-3.62,1.37,0.69,-0.89,-1.73
16.155,-0.14,-1.24,-0.09,2.34,-5.05,0.53,0.69,-0.89,-1.73
16.173,-0.14,-1.24,-0.09,0.48,-5.88,-0.03,0.69,-0.89,-1.73
16.176,-0.14,-1.24,-0.09,0.48,-5.88,-0.03,1.14,-0.77,-3.35
16.193,-0.14,-1.24,-0.09,-1.92,-5.43,-0.4,1.14,-0.77,-3.35
16.197,-0.54,-1.5,-0.18,-1.92,-5.43,-0.4,1.14,-0.77,-3.35
16.213,-0.54,-1.5,-0.18,-4.02,-4.4,-0.36,1.14,-0.77,-3.35
16.233,-0.54,-1.5,-0.18,-5.17,-3.57,-0.43,1.14,-0.77,-3.35
16.241,-0.54,-1.5,-0.18,-5.17,-3.57,-0.43,1.52,-0.54,-2.81
16.254,-0.54,-1.5,-0.18,-6.04,-3.52,-1.11,1.52,-0.54,-2.81
16.288,-0.77,-1.38,-0.23,-6.04,-3.52,-1.11,1.52,-0.54,-2.81
16.289,-0.77,-1.38,-0.23,-6.34,-3.6,-2.32,1.52,-0.54,-2.81
16.296,-0.77,-1.38,-0.23,-6.84,-2.73,-3.76,1.52,-0.54,-2.81
16.307,-0.77,-1.38,-0.23,-6.84,-2.73,-3.76,2.14,1.26,-0.75
16.316,-0.77,-1.38,-0.23,-6.51,-0.77,-4.31,2.14,1.26,-0.75
16.326,-0.72,-0.95,-0.43,-6.51,-0.77,-4.31,2.14,1.26,-0.75
16.335,-0.72,-0.95,-0.43,-5.98,1.0,-4.61,2.14,1.26,-0.75
16.354,-0.72,-0.95,-0.43,-4.98,1.97,-4.42,2.14,1.26,-0.75
16.376,-0.72,-0.95,-0.43,-4.32,2.84,-4.45,2.14,1.26,-0.75
16.378,-0.72,-0.95,-0.43,-4.32,2.84,-4.45,0.82,-0.83,0.68
16.391,-0.5,-0.66,-0.38,-4.32,2.84,-4.45,0.82,-0.83,0.68
16.4,-0.5,-0.66,-0.38,-3.04,3.31,-4.23,0.82,-0.83,0.68
16.414,-0.5,-0.66,-0.38,-1.99,3.68,-4.2,0.82,-0.83,0.68
16.433,-0.5,-0.66,-0.38,-0.81,3.81,-3.75,0.82,-0.83,0.68
16.436,-0.5,-0.66,-0.38,-0.81,3.81,-3.75,-0.01,-1.67,1.06
16.455,-0.5,-0.66,-0.38,0.15,3.99,-3.55,-0.01,-1.67,1.06
16.458,-0.23,-0.57,-0.32,0.15,3.99,-3.55,-0.01,-1.67,1.06
16.478,-0.23,-0.57,-0.32,0.94,4.14,-2.87,-0.01,-1.67,1.06
16.493,-0.23,-0.57,-0.32,1.23,4.2,-2.65,-0.01,-1.67,1.06
16.501,-0.23,-0.57,-0.32,1.23,4.2,-2.65,-0.16,-1.01,0.3
16.516,-0.23,-0.57,-0.32,1.07,4.03,-2.25,-0.16,-1.01,0.3
16.521,-0.21,-0.57,-0.25,1.07,4.03,-2.25,-0.16,-1.01,0.3
16.534,-0.21,-0.57,-0.25,0.59,3.88,-2.36,-0.16,-1.01,0.3
16.554,-0.21,-0.57,-0.25,0.3,3.64,-2.04,-0.16,-1.01,0.3
16.589,-0.21,-0.57,-0.25,0.3,3.64,-2.04,-0.33,-0.86,-0.19
16.59,-0.21,-0.57,-0.25,0.03,3.28,-1.78,-0.33,-0.86,-0.19
16.591,-0.32,-0.68,-0.21,0.03,3.28,-1.78,-0.33,-0.86,-0.19
16.596,-0.32,-0.68,-0.21,-0.11,2.66,-1.5,-0.33,-0.86,-0.19
16.613,-0.32,-0.68,-0.21,-0.28,2.11,-1.37,-0.33,-0.86,-0.19
16.634,-0.32,-0.68,-0.21,-0.52,1.19,-1.34,-0.33,-0.86,-0.19
16.636,-0.32,-0.68,-0.21,-0.52,1.19,-1.34,-0.28,-0.73,-0.54
16.653,-0.39,-0.96,-0.24,-0.52,1.19,-1.34,-0.28,-0.73,-0.54
16.656,-0.39,-0.96,-0.24,-0.86,0.04,-1.69,-0.28,-0.73,-0.54
16.686,-0.39,-0.96,-0.24,-1.26,-1.8,-2.08,-0.28,-0.73,-0.54
16.695,-0.39,-0.96,-0.24,-2.03,-3.37,-1.94,-0.28,-0.73,-0.54
16.698,-0.39,-0.96,-0.24,-2.03,-3.37,-1.94,-0.63,-0.47,-0.86
16.713,-0.39,-0.96,-0.24,-2.81,-3.08,-1.17,-0.63,-0.47,-0.86
16.716,-0.58,-1.25,-0.2,-2.81,-3.08,-1.17,-0.63,-0.47,-0.86
16.734,-0.58,-1.25,-0.2,-3.8,-1.8,-0.21,-0.63,-0.47,-0.86
16.753,-0.58,-1.25,-0.2,-4.1,-1.16,0.76,-0.63,-0.47,-0.86
16.777,-0.58,-1.25,-0.2,-4.1,-1.16,0.76,-0.68,-0.81,-0.16
16.779,-0.58,-1.25,-0.2,-3.67,-1.62,1.5,-0.68,-0.81,-0.16
16.785,-0.57,-1.21,0.02,-3.67,-1.62,1.5,-0.68,-0.81,-0.16
16.793,-0.57,-1.21,0.02,-2.09,-2.81,1.23,-0.68,-0.81,-0.16
16.814,-0.57,-1.21,0.02,-0.7,-3.16,0.07,-0.68,-0.81,-0.16
16.826,-0.57,-1.21,0.02,-0.7,-3.16,0.07,0.72,0.3,-0.14
16.834,-0.57,-1.21,0.02,-0.5,-3.24,-1.32,0.72,0.3,-0.14
16.85,-0.39,-1.27,-0.33,-0.5,-3.24,-1.32,0.72,0.3,-0.14
16.853,-0.39,-1.27,-0.33,-1.41,-2.72,-2.42,0.72,0.3,-0.14
16.882,-0.39,-1.27,-0.33,-2.57,-2.1,-2.71,0.72,0.3,-0.14
16.894,-0.39,-1.27,-0.33,-3.72,-1.63,-2.68,0.72,0.3,-0.14
16.895,-0.39,-1.27,-0.33,-3.72,-1.63,-2.68,0.26,2.17,-0.19
16.912,-0.75,-1.08,-0.36,-3.72,-1.63,-2.68,0.26,2.17,-0.19
16.914,-0.75,-1.08,-0.36,-4.6,-1.11,-2.29,0.26,2.17,-0.19
16.934,-0.75,-1.08,-0.36,-5.14,-0.65,-1.74,0.26,2.17,-0.19
16.953,-0.75,-1.08,-0.36,-4.55,-1.41,-0.95,0.26,2.17,-0.19
16.956,-0.75,-1.08,-0.36,-4.55,-1.41,-0.95,-0.75,1.79,1.29
16.977,-0.75,-1.08,-0.36,-3.3,-2.18,-0.3,-0.75,1.79,1.29
16.978,-0.63,-1.17,-0.2,-3.3,-2.18,-0.3,-0.75,1.79,1.29
16.994,-0.63,-1.17,-0.2,-2.31,-1.97,0.19,-0.75,1.79,1.29
17.013,-0.63,-1.17,-0.2,-1.77,-1.42,0.53,-0.75,1.79,1.29
17.024,-0.63,-1.17,-0.2,-1.77,-1.42,0.53,-1.1,1.46,1.89
17.034,-0.63,-1.17,-0.2,-1.25,-1.35,1.03,-1.1,1.46,1.89
17.041,-0.5,-1.04,-0.12,-1.25,-1.35,1.03,-1.1,1.46,1.89
17.053,-0.5,-1.04,-0.12,-0.52,-1.42,1.6,-1.1,1.46,1.89
17.08,-0.5,-1.04,-0.12,0.35,-1.49,2.13,-1.1,1.46,1.89
17.087,-0.5,-1.04,-0.12,0.35,-1.49,2.13,-1.32,1.3,2.02
17.102,-0.5,-1.04,-0.12,1.0,-1.44,2.77,-1.32,1.3,2.02
17.106,-0.35,-0.96,-0.01,1.0,-1.44,2.77,-1.32,1.3,2.02
17.116,-0.35,-0.96,-0.01,1.41,-1.25,3.08,-1.32,1.3,2.02
17.134,-0.35,-0.96,-0.01,1.74,-1.25,3.56,-1.32,1.3,2.02
17.153,-0.35,-0.96,-0.01,1.99,-1.05,3.68,-1.32,1.3,2.02
17.155,-0.35,-0.96,-0.01,1.99,-1.05,3.68,-1.12,1.09,1.58
17.172,-0.3,-0.89,0.03,1.99,-1.05,3.68,-1.12,1.09,1.58
17.176,-0.3,-0.89,0.03,2.34,-1.13,4.09,-1.12,1.09,1.58
17.193,-0.3,-0.89,0.03,2.48,-0.6,4.14,-1.12,1.09,1.58
17.213,-0.3,-0.89,0.03,2.57,-0.3,4.43,-1.12,1.09,1.58
17.216,-0.3,-0.89,0.03,2.57,-0.3,4.43,-0.82,0.91,1.14
17.235,-0.3,-0.89,0.03,2.52,-0.01,4.43,-0.82,0.91,1.14
17.236,-0.3,-0.75,0.06,2.52,-0.01,4.43,-0.82,0.91,1.14
17.253,-0.3,-0.75,0.06,2.72,0.06,4.65,-0.82,0.91,1.14
17.278,-0.3,-0.75,0.06,2.93,0.27,4.47,-0.82,0.91,1.14
17.286,-0.3,-0.75,0.06,2.93,0.27,4.47,-0.46,0.48,0.84
17.3,-0.3,-0.75,0.06,3.12,0.37,4.75,-0.46,0.48,0.84
17.301,-0.24,-0.67,0.08,3.12,0.37,4.75,-0.46,0.48,0.84
17.315,-0.24,-0.67,0.08,3.4,0.79,4.39,-0.46,0.48,0.84
17.333,-0.24,-0.67,0.08,3.73,0.22,4.15,-0.46,0.48,0.84
17.351,-0.24,-0.67,0.08,3.73,0.22,4.15,0.09,0.15,0.29
17.353,-0.24,-0.67,0.08,3.81,-0.19,3.61,0.09,0.15,0.29
17.387,-0.17,-0.83,-0.0,3.81,-0.19,3.61,0.09,0.15,0.29
17.389,-0.17,-0.83,-0.0,3.89,-0.88,3.5,0.09,0.15,0.29
17.395,-0.17,-0.83,-0.0,3.61,-0.82,3.22,0.09,0.15,0.29
17.413,-0.17,-0.83,-0.0,3.47,-0.61,2.88,0.09,0.15,0.29
17.414,-0.17,-0.83,-0.0,3.47,-0.61,2.88,0.54,-0.37,-0.65
17.432,-0.2,-0.88,-0.06,3.47,-0.61,2.88,0.54,-0.37,-0.65
17.436,-0.2,-0.88,-0.06,3.05,-0.48,2.29,0.54,-0.37,-0.65
17.453,-0.2,-0.88,-0.06,3.07,-1.58,1.81,0.54,-0.37,-0.65
17.482,-0.2,-0.88,-0.06,2.94,-3.05,1.18,0.54,-0.37,-0.65
17.484,-0.2,-0.88,-0.06,2.94,-3.05,1.18,0.84,-0.74,-1.7
17.494,-0.2,-0.88,-0.06,2.62,-4.34,0.55,0.84,-0.74,-1.7
17.496,-0.18,-1.36,-0.18,2.62,-4.34,0.55,0.84,-0.74,-1.7
17.514,-0.18,-1.36,-0.18,1.01,-4.39,0.15,0.84,-0.74,-1.7
17.534,-0.18,-1.36,-0.18,-1.03,-3.57,0.43,0.84,-0.74,-1.7
17.541,-0.18,-1.36,-0.18,-1.03,-3.57,0.43,0.93,-1.3,-2.91
17.554,-0.18,-1.36,-0.18,-2.58,-3.12,0.27,0.93,-1.3,-2.91
17.574,-0.6,-1.27,-0.13,-2.58,-3.12,0.27,0.93,-1.3,-2.91
17.575,-0.6,-1.27,-0.13,-3.7,-2.87,-0.08,0.93,-1.3,-2.91
17.594,-0.6,-1.27,-0.13,-4.28,-3.23,-0.91,0.93,-1.3,-2.91
17.606,-0.6,-1.27,-0.13,-4.28,-3.23,-0.91,2.02,-0.21,-2.08
17.613,-0.6,-1.27,-0.13,-4.9,-3.48,-2.23,2.02,-0.21,-2.08
17.626,-0.7,-1.34,-0.42,-4.9,-3.48,-2.23,2.02,-0.21,-2.08
17.633,-0.7,-1.34,-0.42,-5.53,-3.01,-3.94,2.02,-0.21,-2.08
17.654,-0.7,-1.34,-0.42,-6.46,-1.3,-5.28,2.02,-0.21,-2.08
17.673,-0.7,-1.34,-0.42,-6.24,0.68,-5.13,2.02,-0.21,-2.08
17.674,-0.7,-1.34,-0.42,-6.24,0.68,-5.13,1.21,0.28,-0.33
17.691,-0.7,-0.81,-0.44,-6.24,0.68,-5.13,1.21,0.28,-0.33
17.694,-0.7,-0.81,-0.44,-5.6,1.94,-4.38,1.21,0.28,-0.33
17.714,-0.7,-0.81,-0.44,-4.33,2.48,-3.43,1.21,0.28,-0.33
17.734,-0.7,-0.81,-0.44,-3.25,3.0,-3.03,1.21,0.28,-0.33
17.736,-0.7,-0.81,-0.44,-3.25,3.0,-3.03,0.15,-1.68,0.54
17.755,-0.7,-0.81,-0.44,-2.08,3.51,-2.74,0.15,-1.68,0.54
17.756,-0.4,-0.63,-0.3,-2.08,3.51,-2.74,0.15,-1.68,0.54
17.773,-0.4,-0.63,-0.3,-1.28,3.85,-2.86,0.15,-1.68,0.54
17.793,-0.4,-0.63,-0.3,-0.34,4.07,-2.53,0.15,-1.68,0.54
17.801,-0.4,-0.63,-0.3,-0.34,4.07,-2.53,-0.06,-1.35,0.49
17.814,-0.4,-0.63,-0.3,0.33,4.07,-2.31,-0.06,-1.35,0.49
17.821,-0.19,-0.57,-0.25,0.33,4.07,-2.31,-0.06,-1.35,0.49
17.835,-0.19,-0.57,-0.25,0.89,3.7,-1.84,-0.06,-1.35,0.49
17.855,-0.19,-0.57,-0.25,1.08,2.66,-1.75,-0.06,-1.35,0.49
17.88,-0.19,-0.57,-0.25,1.08,2.66,-1.75,0.02,-0.64,-0.59
17.882,-0.19,-0.57,-0.25,0.64,1.98,-1.6,0.02,-0.64,-0.59
17.888,-0.27,-0.76,-0.22,0.64,1.98,-1.6,0.02,-0.64,-0.59
17.9,-0.27,-0.76,-0.22,-0.51,2.31,-1.64,0.02,-0.64,-0.59
17.916,-0.27,-0.76,-0.22,-1.29,2.03,-1.77,0.02,-0.64,-0.59
17.934,-0.27,-0.76,-0.22,-2.13,1.72,-2.04,0.02,-0.64,-0.59
17.935,-0.27,-0.76,-0.22,-2.13,1.72,-2.04,0.28,-0.13,-1.17
17.951,-0.51,-0.8,-0.3,-2.13,1.72,-2.04,0.28,-0.13,-1.17
17.955,-0.51,-0.8,-0.3,-2.78,1.83,-2.18,0.28,-0.13,-1.17
17.975,-0.51,-0.8,-0.3,-3.68,1.53,-2.57,0.28,-0.13,-1.17
17.994,-0.51,-0.8,-0.3,-3.89,0.36,-2.85,0.28,-0.13,-1.17
17.997,-0.51,-0.8,-0.3,-3.89,0.36,-2.85,0.27,0.25,-0.68
18.014,-0.51,-0.8,-0.3,-3.9,-1.24,-3.2,0.27,0.25,-0.68
18.016,-0.59,-1.15,-0.41,-3.9,-1.24,-3.2,0.27,0.25,-0.68
18.035,-0.59,-1.15,-0.41,-4.01,-1.77,-3.16,0.27,0.25,-0.68
18.055,-0.59,-1.15,-0.41,-4.85,-1.06,-2.77,0.27,0.25,-0.68
18.079,-0.59,-1.15,-0.41,-4.85,-1.06,-2.77,-0.51,0.09,-0.13
18.08,-0.59,-1.15,-0.41,-5.32,-0.77,-1.79,-0.51,0.09,-0.13
18.081,-0.77,-1.11,-0.25,-5.32,-0.77,-1.79,-0.51,0.09,-0.13
18.094,-0.77,-1.11,-0.25,-5.14,-2.17,-0.75,-0.51,0.09,-0.13
18.115,-0.77,-1.11,-0.25,-3.74,-3.45,0.03,-0.51,0.09,-0.13
18.127,-0.77,-1.11,-0.25,-3.74,-3.45,0.03,-0.7,-1.08,0.74
18.134,-0.77,-1.11,-0.25,-2.55,-2.92,0.18,-0.7,-1.08,0.74
18.146,-0.47,-1.21,-0.15,-2.55,-2.92,0.18,-0.7,-1.08,0.74
18.154,-0.47,-1.21,-0.15,-1.79,-2.35,-0.17,-0.7,-1.08,0.74
18.175,-0.47,-1.21,-0.15,-1.52,-2.36,-0.45,-0.7,-1.08,0.74
18.204,-0.47,-1.21,-0.15,-1.24,-2.45,-0.37,-0.7,-1.08,0.74
18.206,-0.47,-1.21,-0.15,-1.24,-2.45,-0.37,-0.37,0.84,0.75
18.212,-0.44,-1.25,-0.18,-1.24,-2.45,-0.37,-0.37,0.84,0.75
18.219,-0.44,-1.25,-0.18,-1.13,-2.95,-0.2,-0.37,0.84,0.75
18.235,-0.44,-1.25,-0.18,-1.43,-3.76,0.2,-0.37,0.84,0.75
18.255,-0.44,-1.25,-0.18,-1.9,-3.93,0.81,-0.37,0.84,0.75
18.257,-0.44,-1.25,-0.18,-1.9,-3.93,0.81,-0.23,2.65,0.69
18.293,-0.44,-1.25,-0.18,-2.39,-3.33,1.09,-0.23,2.65,0.69
18.294,-0.6,-1.24,-0.1,-2.39,-3.33,1.09,-0.23,2.65,0.69
18.295,-0.6,-1.24,-0.1,-2.82,-1.98,1.05,-0.23,2.65,0.69
18.315,-0.6,-1.24,-0.1,-2.66,-1.16,0.98,-0.23,2.65,0.69
18.321,-0.6,-1.24,-0.1,-2.66,-1.16,0.98,-0.19,2.89,1.29
18.335,-0.6,-1.24,-0.1,-2.05,-0.61,1.06,-0.19,2.89,1.29
18.341,-0.55,-0.95,-0.14,-2.05,-0.61,1.06,-0.19,2.89,1.29
18.355,-0.55,-0.95,-0.14,-1.47,-0.16,1.22,-0.19,2.89,1.29
18.379,-0.55,-0.95,-0.14,-1.17,0.27,1.58,-0.19,2.89,1.29
18.386,-0.55,-0.95,-0.14,-1.17,0.27,1.58,-0.71,2.43,1.58
18.399,-0.55,-0.95,-0.14,-0.79,0.54,1.94,-0.71,2.43,1.58
18.406,-0.47,-0.81,-0.08,-0.79,0.54,1.94,-0.71,2.43,1.58
18.415,-0.47,-0.81,-0.08,-0.39,0.59,2.47,-0.71,2.43,1.58
18.434,-0.47,-0.81,-0.08,0.18,0.5,2.86,-0.71,2.43,1.58
18.453,-0.47,-0.81,-0.08,0.68,0.14,3.39,-0.71,2.43,1.58
18.454,-0.47,-0.81,-0.08,0.68,0.14,3.39,-1.17,1.6,1.62
18.472,-0.36,-0.84,-0.01,0.68,0.14,3.39,-1.17,1.6,1.62
18.481,-0.36,-0.84,-0.01,1.11,-0.23,3.71,-1.17,1.6,1.62
18.494,-0.36,-0.84,-0.01,1.41,-0.54,4.24,-1.17,1.6,1.62
18.514,-0.36,-0.84,-0.01,1.54,-0.45,4.51,-1.17,1.6,1.62
18.519,-0.36,-0.84,-0.01,1.54,-0.45,4.51,-1.26,0.85,1.21
18.534,-0.36,-0.84,-0.01,1.53,-0.41,5.01,-1.26,0.85,1.21
18.536,-0.36,-0.8,0.07,1.53,-0.41,5.01,-1.26,0.85,1.21
18.555,-0.36,-0.8,0.07,1.55,-0.25,4.96,-1.26,0.85,1.21
18.574,-0.36,-0.8,0.07,1.77,-0.35,5.22,-1.26,0.85,1.21
18.582,-0.36,-0.8,0.07,1.77,-0.35,5.22,-1.04,-0.05,1.05
18.601,-0.36,-0.8,0.07,2.2,-0.34,5.0,-1.04,-0.05,1.05
18.602,-0.29,-0.79,0.07,2.2,-0.34,5.0,-1.04,-0.05,1.05
18.617,-0.29,-0.79,0.07,2.96,-0.89,4.87,-1.04,-0.05,1.05
18.635,-0.29,-0.79,0.07,3.55,-1.12,4.09,-1.04,-0.05,1.05
18.653,-0.29,-0.79,0.07,3.55,-1.12,4.09,0.09,0.12,0.58
18.655,-0.29,-0.79,0.07,4.16,-1.41,2.99,0.09,0.12,0.58
18.686,-0.15,-0.89,-0.23,4.16,-1.41,2.99,0.09,0.12,0.58
18.688,-0.15,-0.89,-0.23,3.84,-1.4,1.39,0.09,0.12,0.58
18.694,-0.15,-0.89,-0.23,3.18,-1.01,0.58,0.09,0.12,0.58
18.713,-0.15,-0.89,-0.23,2.39,-1.35,0.8,0.09,0.12,0.58
18.716,-0.15,-0.89,-0.23,2.39,-1.35,0.8,-0.16,0.03,-0.42
18.732,-0.29,-1.03,-0.24,2.39,-1.35,0.8,-0.16,0.03,-0.42
18.736,-0.29,-1.03,-0.24,2.2,-2.56,1.7,-0.16,0.03,-0.42
18.755,-0.29,-1.03,-0.24,1.96,-3.35,2.05,-0.16,0.03,-0.42
18.775,-0.29,-1.03,-0.24,1.9,-4.13,2.23,-0.16,0.03,-0.42
18.777,-0.29,-1.03,-0.24,1.9,-4.13,2.23,0.22,-0.74,-1.12
18.794,-0.29,-1.03,-0.24,1.41,-3.97,2.39,0.22,-0.74,-1.12
18.796,-0.32,-1.23,-0.09,1.41,-3.97,2.39,0.22,-0.74,-1.12
18.815,-0.32,-1.23,-0.09,0.88,-3.27,2.83,0.22,-0.74,-1.12
18.833,-0.32,-1.23,-0.09,0.19,-2.43,2.11,0.22,-0.74,-1.12
18.849,-0.32,-1.23,-0.09,0.19,-2.43,2.11,1.4,-0.88,-1.61
18.854,-0.32,-1.23,-0.09,-0.33,-1.91,1.17,1.4,-0.88,-1.61
18.871,-0.43,-1.09,-0.22,-0.33,-1.91,1.17,1.4,-0.88,-1.61
18.873,-0.43,-1.09,-0.22,-0.77,-1.75,-0.23,1.4,-0.88,-1.61
18.894,-0.43,-1.09,-0.22,-1.06,-1.74,-1.18,1.4,-0.88,-1.61
18.906,-0.43,-1.09,-0.22,-1.06,-1.74,-1.18,2.06,0.55,-1.06
18.914,-0.43,-1.09,-0.22,-1.17,-2.1,-2.2,2.06,0.55,-1.06
18.927,-0.42,-1.18,-0.48,-1.17,-2.1,-2.2,2.06,0.55,-1.06
18.934,-0.42,-1.18,-0.48,-1.24,-1.88,-3.43,2.06,0.55,-1.06
18.953,-0.42,-1.18,-0.48,-1.7,0.12,-3.91,2.06,0.55,-1.06
18.974,-0.42,-1.18,-0.48,-2.19,2.06,-3.8,2.06,0.55,-1.06
18.975,-0.42,-1.18,-0.48,-2.19,2.06,-3.8,1.01,-1.17,-0.67
18.992,-0.48,-0.68,-0.46,-2.19,2.06,-3.8,1.01,-1.17,-0.67
18.995,-0.48,-0.68,-0.46,-2.02,2.9,-3.33,1.01,-1.17,-0.67
19.015,-0.48,-0.68,-0.46,-1.31,2.79,-2.97,1.01,-1.17,-0.67
19.034,-0.48,-0.68,-0.46,-0.65,2.79,-2.55,1.01,-1.17,-0.67
19.037,-0.48,-0.68,-0.46,-0.65,2.79,-2.55,0.14,-2.19,-0.29
19.055,-0.48,-0.68,-0.46,-0.21,3.29,-2.43,0.14,-2.19,-0.29
19.056,-0.29,-0.62,-0.35,-0.21,3.29,-2.43,0.14,-2.19,-0.29
19.074,-0.29,-0.62,-0.35,-0.0,3.73,-2.06,0.14,-2.19,-0.29
19.095,-0.29,-0.62,-0.35,-0.19,3.91,-1.69,0.14,-2.19,-0.29
19.102,-0.29,-0.62,-0.35,-0.19,3.91,-1.69,0.17,-0.95,-0.45
19.114,-0.29,-0.62,-0.35,-0.34,3.91,-1.08,0.17,-0.95,-0.45
19.121,-0.32,-0.57,-0.21,-0.34,3.91,-1.08,0.17,-0.95,-0.45
19.134,-0.32,-0.57,-0.21,-0.51,3.84,-0.65,0.17,-0.95,-0.45
19.155,-0.32,-0.57,-0.21,-0.41,3.61,-0.52,0.17,-0.95,-0.45
19.174,-0.32,-0.57,-0.21,-0.41,3.61,-0.52,0.65,-0.33,-0.59
19.176,-0.32,-0.57,-0.21,-0.55,2.98,-0.94,0.65,-0.33,-0.59
19.186,-0.35,-0.69,-0.23,-0.55,2.98,-0.94,0.65,-0.33,-0.59
19.199,-0.35,-0.69,-0.23,-0.84,2.87,-1.3,0.65,-0.33,-0.59
19.217,-0.35,-0.69,-0.23,-1.31,3.21,-1.48,0.65,-0.33,-0.59
19.235,-0.35,-0.69,-0.23,-1.38,3.24,-1.11,0.65,-0.33,-0.59
19.236,-0.35,-0.69,-0.23,-1.38,3.24,-1.11,0.59,-0.27,-0.63
19.251,-0.39,-0.73,-0.22,-1.38,3.24,-1.11,0.59,-0.27,-0.63
19.254,-0.39,-0.73,-0.22,-1.4,2.51,-1.33,0.59,-0.27,-0.63
19.275,-0.39,-0.73,-0.22,-1.26,1.19,-1.7,0.59,-0.27,-0.63
19.294,-0.39,-0.73,-0.22,-1.58,-0.28,-2.22,0.59,-0.27,-0.63
19.297,-0.39,-0.73,-0.22,-1.58,-0.28,-2.22,0.59,-0.4,-0.92
19.314,-0.39,-0.73,-0.22,-1.98,-1.97,-2.79,0.59,-0.4,-0.92
19.316,-0.44,-1.24,-0.37,-1.98,-1.97,-2.79,0.59,-0.4,-0.92
19.334,-0.44,-1.24,-0.37,-2.83,-3.36,-3.16,0.59,-0.4,-0.92
19.354,-0.44,-1.24,-0.37,-4.07,-2.91,-2.59,0.59,-0.4,-0.92
19.372,-0.44,-1.24,-0.37,-4.07,-2.91,-2.59,-0.28,-0.94,-1.16
19.379,-0.44,-1.24,-0.37,-5.34,-1.66,-1.65,-0.28,-0.94,-1.16
19.381,-0.75,-1.17,-0.19,-5.34,-1.66,-1.65,-0.28,-0.94,-1.16
19.393,-0.75,-1.17,-0.19,-5.44,-2.31,-0.58,-0.28,-0.94,-1.16
19.413,-0.75,-1.17,-0.19,-4.82,-3.71,-0.04,-0.28,-0.94,-1.16
19.426,-0.75,-1.17,-0.19,-4.82,-3.71,-0.04,0.2,-1.3,-0.15
19.433,-0.75,-1.17,-0.19,-3.62,-4.13,-0.53,0.2,-1.3,-0.15
19.446,-0.52,-1.37,-0.23,-3.62,-4.13,-0.53,0.2,-1.3,-0.15
19.453,-0.52,-1.37,-0.23,-3.23,-3.43,-1.92,0.2,-1.3,-0.15
19.474,-0.52,-1.37,-0.23,-3.17,-2.93,-2.93,0.2,-1.3,-0.15
19.493,-0.52,-1.37,-0.23,-3.57,-2.24,-3.4,0.2,-1.3,-0.15
19.495,-0.52,-1.37,-0.23,-3.57,-2.24,-3.4,0.42,1.2,0.15
19.511,-0.65,-1.14,-0.4,-3.57,-2.24,-3.4,0.42,1.2,0.15
19.514,-0.65,-1.14,-0.4,-4.14,-1.47,-3.17,0.42,1.2,0.15
19.533,-0.65,-1.14,-0.4,-4.69,-1.36,-2.93,0.42,1.2,0.15
19.553,-0.65,-1.14,-0.4,-4.34,-1.61,-2.18,0.42,1.2,0.15
19.556,-0.65,-1.14,-0.4,-4.34,-1.61,-2.18,-0.42,1.67,1.26
19.573,-0.65,-1.14,-0.4,-3.22,-1.9,-1.47,-0.42,1.67,1.26
19.575,-0.58,-1.16,-0.25,-3.22,-1.9,-1.47,-0.42,1.67,1.26
19.594,-0.58,-1.16,-0.25,-2.07,-1.87,-0.92,-0.42,1.67,1.26
19.613,-0.58,-1.16,-0.25,-1.7,-2.36,-0.83,-0.42,1.67,1.26
19.621,-0.58,-1.16,-0.25,-1.7,-2.36,-0.83,-0.86,1.68,1.62
19.633,-0.58,-1.16,-0.25,-1.85,-2.0,-0.3,-0.86,1.68,1.62
19.641,-0.57,-1.09,-0.17,-1.85,-2.0,-0.3,-0.86,1.68,1.62
19.653,-0.57,-1.09,-0.17,-1.77,-1.36,0.48,-0.86,1.68,1.62
19.684,-0.57,-1.09,-0.17,-1.15,-0.88,1.22,-0.86,1.68,1.62
19.686,-0.57,-1.09,-0.17,-1.15,-0.88,1.22,-1.43,1.16,2.22
19.723,-0.57,-1.09,-0.17,-0.22,-0.44,2.24,-1.43,1.16,2.22
19.725,-0.43,-0.88,0.01,-0.22,-0.44,2.24,-1.43,1.16,2.22
19.726,-0.43,-0.88,0.01,0.79,-0.29,2.73,-1.43,1.16,2.22
19.733,-0.43,-0.88,0.01,1.75,-0.77,3.12,-1.43,1.16,2.22
19.753,-0.43,-0.88,0.01,2.48,-0.55,3.12,-1.43,1.16,2.22
19.755,-0.43,-0.88,0.01,2.48,-0.55,3.12,-1.01,1.02,2.09
19.771,-0.25,-0.81,0.0,2.48,-0.55,3.12,-1.01,1.02,2.09
19.813,-0.25,-0.81,0.0,3.11,-0.33,3.13,-1.01,1.02,2.09
19.815,-0.25,-0.81,0.0,3.34,-0.03,3.14,-1.01,1.02,2.09
19.816,-0.25,-0.81,0.0,3.45,-0.4,3.43,-1.01,1.02,2.09
19.817,-0.25,-0.81,0.0,3.45,-0.4,3.43,-0.93,1.43,1.45
19.834,-0.25,-0.81,0.0,3.2,-0.43,3.56,-0.93,1.43,1.45
19.836,-0.27,-0.78,0.01,3.2,-0.43,3.56,-0.93,1.43,1.45
19.853,-0.27,-0.78,0.01,2.98,-0.32,4.32,-0.93,1.43,1.45
19.874,-0.27,-0.78,0.01,2.76,-0.18,4.53,-0.93,1.43,1.45
19.881,-0.27,-0.78,0.01,2.76,-0.18,4.53,-0.86,0.91,1.02
19.895,-0.27,-0.78,0.01,2.96,-0.39,4.97,-0.86,0.91,1.02
19.901,-0.3,-0.75,0.12,2.96,-0.39,4.97,-0.86,0.91,1.02
19.913,-0.3,-0.75,0.12,3.1,-0.43,4.99,-0.86,0.91,1.02
19.934,-0.3,-0.75,0.12,3.62,-0.71,5.2,-0.86,0.91,1.02
19.946,-0.3,-0.75,0.12,3.62,-0.71,5.2,-0.34,0.06,0.59
19.953,-0.3,-0.75,0.12,4.05,-0.89,4.72,-0.34,0.06,0.59
19.966,-0.17,-0.88,0.09,4.05,-0.89,4.72,-0.34,0.06,0.59
19.986,-0.17,-0.88,0.09,4.42,-1.77,4.52,-0.34,0.06,0.59
19.994,-0.17,-0.88,0.09,4.13,-2.25,4.24,-0.34,0.06,0.59
20.013,-0.17,-0.88,0.09,3.81,-2.64,4.25,-0.34,0.06,0.59
20.015,-0.17,-0.88,0.09,3.81,-2.64,4.25,0.37,-0.17,-0.4
20.031,-0.23,-1.04,0.08,3.81,-2.64,4.25,0.37,-0.17,-0.4
20.034,-0.23,-1.04,0.08,3.3,-2.54,3.81,0.37,-0.17,-0.4
20.053,-0.23,-1.04,0.08,3.13,-2.73,2.88,0.37,-0.17,-0.4
20.073,-0.23,-1.04,0.08,2.88,-3.37,1.67,0.37,-0.17,-0.4
20.076,-0.23,-1.04,0.08,2.88,-3.37,1.67,1.21,-0.81,-1.35
20.094,-0.23,-1.04,0.08,2.83,-3.94,0.5,1.21,-0.81,-1.35
20.096,-0.22,-1.27,-0.2,2.83,-3.94,0.5,1.21,-0.81,-1.35
20.113,-0.22,-1.27,-0.2,1.98,-4.51,-0.46,1.21,-0.81,-1.35
20.134,-0.22,-1.27,-0.2,0.72,-4.75,-0.85,1.21,-0.81,-1.35
20.141,-0.22,-1.27,-0.2,0.72,-4.75,-0.85,1.15,-1.15,-2.62
20.153,-0.22,-1.27,-0.2,-0.8,-4.16,-0.8,1.15,-1.15,-2.62
20.163,-0.51,-1.34,-0.22,-0.8,-4.16,-0.8,1.15,-1.15,-2.62
20.185,-0.51,-1.34,-0.22,-2.18,-3.56,-1.07,1.15,-1.15,-2.62
20.193,-0.51,-1.34,-0.22,-3.23,-2.92,-1.62,1.15,-1.15,-2.62
20.206,-0.51,-1.34,-0.22,-3.23,-2.92,-1.62,1.78,0.42,-1.98
20.215,-0.51,-1.34,-0.22,-4.53,-2.64,-2.83,1.78,0.42,-1.98
20.226,-0.75,-1.25,-0.37,-4.53,-2.64,-2.83,1.78,0.42,-1.98
20.234,-0.75,-1.25,-0.37,-5.04,-2.55,-3.14,1.78,0.42,-1.98
20.253,-0.75,-1.25,-0.37,-4.52,-2.68,-3.08,1.78,0.42,-1.98
20.274,-0.75,-1.25,-0.37,-3.2,-1.19,-2.94,1.78,0.42,-1.98
20.276,-0.75,-1.25,-0.37,-3.2,-1.19,-2.94,1.86,1.46,-0.08
20.295,-0.4,-0.96,-0.33,-3.2,-1.19,-2.94,1.86,1.46,-0.08
20.296,-0.4,-0.96,-0.33,-1.87,0.36,-3.46,1.86,1.46,-0.08
20.313,-0.4,-0.96,-0.33,-0.73,1.71,-3.65,1.86,1.46,-0.08
20.333,-0.4,-0.96,-0.33,-0.56,2.47,-4.1,1.86,1.46,-0.08
20.336,-0.4,-0.96,-0.33,-0.56,2.47,-4.1,0.72,-1.79,-0.52
20.353,-0.4,-0.96,-0.33,-0.8,3.12,-4.3,0.72,-1.79,-0.52
20.356,-0.31,-0.68,-0.41,-0.8,3.12,-4.3,0.72,-1.79,-0.52
20.374,-0.31,-0.68,-0.41,-1.82,3.51,-3.88,0.72,-1.79,-0.52
20.394,-0.31,-0.68,-0.41,-1.93,4.06,-3.04,0.72,-1.79,-0.52
20.401,-0.31,-0.68,-0.41,-1.93,4.06,-3.04,0.25,-0.9,-0.21
20.413,-0.31,-0.68,-0.41,-1.95,4.12,-2.86,0.25,-0.9,-0.21
20.42,-0.4,-0.56,-0.25,-1.95,4.12,-2.86,0.25,-0.9,-0.21
20.434,-0.4,-0.56,-0.25,-1.48,4.25,-2.61,0.25,-0.9,-0.21
20.453,-0.4,-0.56,-0.25,-1.37,4.08,-2.67,0.25,-0.9,-0.21
20.467,-0.4,-0.56,-0.25,-1.37,4.08,-2.67,0.02,-1.27,-0.13
20.493,-0.4,-0.56,-0.25,-1.28,4.1,-2.46,0.02,-1.27,-0.13
20.495,-0.39,-0.58,-0.25,-1.28,4.1,-2.46,0.02,-1.27,-0.13
20.495,-0.39,-0.58,-0.25,-1.38,3.93,-2.6,0.02,-1.27,-0.13
20.514,-0.39,-0.58,-0.25,-1.22,3.79,-2.62,0.02,-1.27,-0.13
20.534,-0.39,-0.58,-0.25,-1.3,3.81,-2.73,0.02,-1.27,-0.13
20.535,-0.39,-0.58,-0.25,-1.3,3.81,-2.73,-0.34,-1.6,-0.16
20.551,-0.39,-0.57,-0.27,-1.3,3.81,-2.73,-0.34,-1.6,-0.16
20.554,-0.39,-0.57,-0.27,-1.15,4.02,-2.29,-0.34,-1.6,-0.16
20.575,-0.39,-0.57,-0.27,-1.04,3.44,-1.89,-0.34,-1.6,-0.16
20.594,-0.39,-0.57,-0.27,-0.83,2.28,-1.38,-0.34,-1.6,-0.16
20.597,-0.39,-0.57,-0.27,-0.83,2.28,-1.38,-0.6,-1.55,-0.23
20.615,-0.39,-0.57,-0.27,-0.88,0.99,-1.42,-0.6,-1.55,-0.23
20.617,-0.38,-0.92,-0.21,-0.88,0.99,-1.42,-0.6,-1.55,-0.23
20.635,-0.38,-0.92,-0.21,-0.95,-0.68,-1.65,-0.6,-1.55,-0.23
20.655,-0.38,-0.92,-0.21,-1.2,-2.06,-1.96,-0.6,-1.55,-0.23
20.666,-0.38,-0.92,-0.21,-1.2,-2.06,-1.96,-0.72,-1.41,-0.87
20.696,-0.38,-0.92,-0.21,-1.93,-2.58,-1.91,-0.72,-1.41,-0.87
20.697,-0.52,-1.24,-0.27,-1.93,-2.58,-1.91,-0.72,-1.41,-0.87
20.698,-0.52,-1.24,-0.27,-3.15,-2.53,-1.32,-0.72,-1.41,-0.87
20.713,-0.52,-1.24,-0.27,-4.08,-2.76,-0.24,-0.72,-1.41,-0.87
20.726,-0.52,-1.24,-0.27,-4.08,-2.76,-0.24,-1.0,-1.56,-0.73
20.733,-0.52,-1.24,-0.27,-4.41,-3.27,0.81,-1.0,-1.56,-0.73
20.746,-0.66,-1.33,-0.0,-4.41,-3.27,0.81,-1.0,-1.56,-0.73
20.753,-0.66,-1.33,-0.0,-3.94,-3.43,1.24,-1.0,-1.56,-0.73
20.774,-0.66,-1.33,-0.0,-3.32,-3.55,0.37,-1.0,-1.56,-0.73
20.793,-0.66,-1.33,-0.0,-2.83,-3.41,-1.11,-1.0,-1.56,-0.73
20.794,-0.66,-1.33,-0.0,-2.83,-3.41,-1.11,0.63,0.29,0.09
20.811,-0.55,-1.28,-0.35,-2.83,-3.41,-1.11,0.63,0.29,0.09
20.814,-0.55,-1.28,-0.35,-2.87,-2.98,-2.32,0.63,0.29,0.09
20.833,-0.55,-1.28,-0.35,-3.13,-2.52,-2.86,0.63,0.29,0.09
20.853,-0.55,-1.28,-0.35,-3.98,-3.0,-3.09,0.63,0.29,0.09
20.863,-0.55,-1.28,-0.35,-3.98,-3.0,-3.09,0.32,2.58,0.76
20.89,-0.55,-1.28,-0.35,-4.74,-2.35,-2.71,0.32,2.58,0.76
20.891,-0.8,-1.19,-0.4,-4.74,-2.35,-2.71,0.32,2.58,0.76
20.897,-0.8,-1.19,-0.4,-4.81,-1.99,-1.83,0.32,2.58,0.76
20.914,-0.8,-1.19,-0.4,-3.26,-1.78,-0.49,0.32,2.58,0.76
20.921,-0.8,-1.19,-0.4,-3.26,-1.78,-0.49,-0.77,1.21,1.96
20.933,-0.8,-1.19,-0.4,-1.58,-1.55,0.17,-0.77,1.21,1.96
20.944,-0.48,-1.09,-0.15,-1.58,-1.55,0.17,-0.77,1.21,1.96
20.953,-0.48,-1.09,-0.15,-0.39,-1.71,0.63,-0.77,1.21,1.96
20.983,-0.48,-1.09,-0.15,0.44,-1.39,1.1,-0.77,1.21,1.96
20.987,-0.48,-1.09,-0.15,0.44,-1.39,1.1,-0.86,1.22,1.85
21.011,-0.48,-1.09,-0.15,0.86,-0.76,1.5,-0.86,1.22,1.85
21.013,-0.37,-0.89,-0.06,0.86,-0.76,1.5,-0.86,1.22,1.85
21.014,-0.37,-0.89,-0.06,1.18,-0.14,1.96,-0.86,1.22,1.85
21.033,-0.37,-0.89,-0.06,1.49,0.28,2.38,-0.86,1.22,1.85
21.053,-0.37,-0.89,-0.06,1.84,0.21,2.96,-0.86,1.22,1.85
21.055,-0.37,-0.89,-0.06,1.84,0.21,2.96,-0.84,1.67,1.67
21.071,-0.31,-0.82,0.03,1.84,0.21,2.96,-0.84,1.67,1.67
21.09,-0.31,-0.82,0.03,2.15,-0.01,3.19,-0.84,1.67,1.67
21.098,-0.31,-0.82,0.03,2.39,-0.25,3.4,-0.84,1.67,1.67
21.114,-0.31,-0.82,0.03,2.35,-0.03,3.36,-0.84,1.67,1.67
21.116,-0.31,-0.82,0.03,2.35,-0.03,3.36,-0.54,1.88,1.26
21.133,-0.31,-0.82,0.03,2.14,-0.01,3.48,-0.54,1.88,1.26
21.136,-0.34,-0.78,0.0,2.14,-0.01,3.48,-0.54,1.88,1.26
21.153,-0.34,-0.78,0.0,2.05,0.02,3.47,-0.54,1.88,1.26
21.175,-0.34,-0.78,0.0,2.06,-0.26,3.71,-0.54,1.88,1.26
21.182,-0.34,-0.78,0.0,2.06,-0.26,3.71,-0.54,1.49,1.02
21.214,-0.34,-0.78,0.0,2.15,-0.28,3.74,-0.54,1.49,1.02
21.216,-0.34,-0.78,0.01,2.15,-0.28,3.74,-0.54,1.49,1.02
21.217,-0.34,-0.78,0.01,2.16,-0.4,4.03,-0.54,1.49,1.02
21.234,-0.34,-0.78,0.01,2.26,-0.49,3.98,-0.54,1.49,1.02
21.246,-0.34,-0.78,0.01,2.26,-0.49,3.98,-0.38,0.65,0.76
21.253,-0.34,-0.78,0.01,2.54,-0.82,4.02,-0.38,0.65,0.76
21.266,-0.3,-0.84,-0.0,2.54,-0.82,4.02,-0.38,0.65,0.76
21.3,-0.3,-0.84,-0.0,2.61,-0.96,3.77,-0.38,0.65,0.76
21.301,-0.3,-0.84,-0.0,2.53,-1.71,3.8,-0.38,0.65,0.76
21.314,-0.3,-0.84,-0.0,2.43,-1.99,3.7,-0.38,0.65,0.76
21.316,-0.3,-0.84,-0.0,2.43,-1.99,3.7,-0.22,-0.34,0.34
21.331,-0.28,-0.96,0.02,2.43,-1.99,3.7,-0.22,-0.34,0.34
21.333,-0.28,-0.96,0.02,2.81,-2.04,3.87,-0.22,-0.34,0.34
21.354,-0.28,-0.96,0.02,3.29,-2.08,3.43,-0.22,-0.34,0.34
21.374,-0.28,-0.96,0.02,3.97,-2.97,3.03,-0.22,-0.34,0.34
21.376,-0.28,-0.96,0.02,3.97,-2.97,3.03,0.49,-0.9,-0.37
21.393,-0.28,-0.96,0.02,4.14,-3.31,2.22,0.49,-0.9,-0.37
21.396,-0.11,-1.17,-0.09,4.14,-3.31,2.22,0.49,-0.9,-0.37
21.414,-0.11,-1.17,-0.09,4.06,-3.6,1.74,0.49,-0.9,-0.37
21.434,-0.11,-1.17,-0.09,2.79,-3.53,0.79,0.49,-0.9,-0.37
21.442,-0.11,-1.17,-0.09,2.79,-3.53,0.79,1.2,-0.74,-1.77
21.454,-0.11,-1.17,-0.09,1.79,-3.94,-0.69,1.2,-0.74,-1.77
21.465,-0.31,-1.29,-0.35,1.79,-3.94,-0.69,1.2,-0.74,-1.77
21.495,-0.31,-1.29,-0.35,0.71,-3.57,-2.0,1.2,-0.74,-1.77
21.497,-0.31,-1.29,-0.35,-0.02,-2.59,-2.26,1.2,-0.74,-1.77
21.506,-0.31,-1.29,-0.35,-0.02,-2.59,-2.26,-0.08,-2.23,-2.05
21.513,-0.31,-1.29,-0.35,-0.27,-2.58,-1.14,-0.08,-2.23,-2.05
21.526,-0.38,-1.3,-0.22,-0.27,-2.58,-1.14,-0.08,-2.23,-2.05
21.533,-0.38,-1.3,-0.22,-0.57,-3.73,-0.35,-0.08,-2.23,-2.05
21.554,-0.38,-1.3,-0.22,-1.22,-3.68,-0.16,-0.08,-2.23,-2.05
21.573,-0.38,-1.3,-0.22,-2.27,-2.34,-0.5,-0.08,-2.23,-2.05
21.574,-0.38,-1.3,-0.22,-2.27,-2.34,-0.5,0.76,-1.02,-2.0
21.591,-0.55,-1.05,-0.23,-2.27,-2.34,-0.5,0.76,-1.02,-2.0
21.595,-0.55,-1.05,-0.23,-3.18,-0.69,-1.06,0.76,-1.02,-2.0
21.613,-0.55,-1.05,-0.23,-3.74,0.81,-1.48,0.76,-1.02,-2.0
21.633,-0.55,-1.05,-0.23,-3.56,2.03,-1.61,0.76,-1.02,-2.0
21.636,-0.55,-1.05,-0.23,-3.56,2.03,-1.61,0.76,-0.96,-1.24
21.653,-0.55,-1.05,-0.23,-3.46,3.3,-1.77,0.76,-0.96,-1.24
21.662,-0.51,-0.64,-0.27,-3.46,3.3,-1.77,0.76,-0.96,-1.24
21.688,-0.51,-0.64,-0.27,-3.02,4.15,-1.83,0.76,-0.96,-1.24
21.695,-0.51,-0.64,-0.27,-3.06,4.5,-1.78,0.76,-0.96,-1.24
21.701,-0.51,-0.64,-0.27,-3.06,4.5,-1.78,0.4,-0.5,-0.6
21.714,-0.51,-0.64,-0.27,-2.76,4.52,-1.58,0.4,-0.5,-0.6
21.721,-0.46,-0.54,-0.25,-2.76,4.52,-1.58,0.4,-0.5,-0.6
21.733,-0.46,-0.54,-0.25,-2.8,4.47,-1.37,0.4,-0.5,-0.6
21.753,-0.46,-0.54,-0.25,-2.77,4.01,-1.07,0.4,-0.5,-0.6
21.767,-0.46,-0.54,-0.25,-2.77,4.01,-1.07,0.18,-0.77,-0.15
21.773,-0.46,-0.54,-0.25,-2.79,3.63,-1.19,0.18,-0.77,-0.15
21.786,-0.46,-0.66,-0.22,-2.79,3.63,-1.19,0.18,-0.77,-0.15
21.799,-0.46,-0.66,-0.22,-2.24,3.17,-1.26,0.18,-0.77,-0.15
21.813,-0.46,-0.66,-0.22,-1.85,2.89,-1.24,0.18,-0.77,-0.15
21.834,-0.46,-0.66,-0.22,-1.42,2.82,-1.03,0.18,-0.77,-0.15
21.836,-0.46,-0.66,-0.22,-1.42,2.82,-1.03,0.06,-1.13,-0.03
21.851,-0.37,-0.7,-0.21,-1.42,2.82,-1.03,0.06,-1.13,-0.03
21.862,-0.37,-0.7,-0.21,-1.26,2.76,-1.11,0.06,-1.13,-0.03
21.893,-0.37,-0.7,-0.21,-0.96,2.61,-1.39,0.06,-1.13,-0.03
21.895,-0.37,-0.7,-0.21,-0.76,1.67,-1.74,0.06,-1.13,-0.03
21.9,-0.37,-0.7,-0.21,-0.76,1.67,-1.74,0.19,-0.91,-0.23
21.915,-0.37,-0.7,-0.21,-0.73,-0.32,-2.2,0.19,-0.91,-0.23
21.917,-0.33,-1.07,-0.34,-0.73,-0.32,-2.2,0.19,-0.91,-0.23
21.933,-0.33,-1.07,-0.34,-1.06,-2.23,-2.75,0.19,-0.91,-0.23
21.964,-0.33,-1.07,-0.34,-2.14,-2.98,-2.8,0.19,-0.91,-0.23
21.966,-0.33,-1.07,-0.34,-2.14,-2.98,-2.8,-0.4,-1.12,-0.93
22.0,-0.33,-1.07,-0.34,-3.53,-2.18,-1.93,-0.4,-1.12,-0.93
22.001,-0.62,-1.18,-0.24,-3.53,-2.18,-1.93,-0.4,-1.12,-0.93
22.002,-0.62,-1.18,-0.24,-3.74,-1.67,-0.68,-0.4,-1.12,-0.93
22.013,-0.62,-1.18,-0.24,-3.28,-2.61,0.54,-0.4,-1.12,-0.93
22.027,-0.62,-1.18,-0.24,-3.28,-2.61,0.54,-0.01,-1.55,-0.55
22.033,-0.62,-1.18,-0.24,-2.0,-4.01,-0.24,-0.01,-1.55,-0.55
22.046,-0.45,-1.39,-0.23,-2.0,-4.01,-0.24,-0.01,-1.55,-0.55
22.061,-0.45,-1.39,-0.23,-2.54,-3.76,-1.47,-0.01,-1.55,-0.55
22.086,-0.45,-1.39,-0.23,-1.42,-3.03,-2.78,-0.01,-1.55,-0.55
22.094,-0.45,-1.39,-0.23,-4.33,-1.16,-2.84,-0.01,-1.55,-0.55
22.096,-0.45,-1.39,-0.23,-4.33,-1.16,-2.84,0.52,0.22,-0.73
22.111,-0.65,-1.09,-0.39,-4.33,-1.16,-2.84,0.52,0.22,-0.73
22.115,-0.65,-1.09,-0.39,-4.5,-0.99,-2.77,0.52,0.22,-0.73
22.134,-0.65,-1.09,-0.39,-5.24,-0.71,-2.66,0.52,0.22,-0.73
22.16,-0.65,-1.09,-0.39,-5.06,-1.13,-2.49,0.52,0.22,-0.73
22.162,-0.65,-1.09,-0.39,-5.06,-1.13,-2.49,-0.25,1.39,0.55
22.186,-0.65,-1.09,-0.39,-5.0,-0.97,-2.1,-0.25,1.39,0.55
22.188,-0.71,-1.07,-0.33,-5.0,-0.97,-2.1,-0.25,1.39,0.55
22.194,-0.71,-1.07,-0.33,-4.07,-1.16,-1.37,-0.25,1.39,0.55
22.214,-0.71,-1.07,-0.33,-3.39,-1.73,-0.73,-0.25,1.39,0.55
22.222,-0.71,-1.07,-0.33,-3.39,-1.73,-0.73,-0.95,1.27,1.55
22.233,-0.71,-1.07,-0.33,-2.8,-1.16,-0.02,-0.95,1.27,1.55
22.241,-0.56,-1.03,-0.17,-2.8,-1.16,-0.02,-0.95,1.27,1.55
22.262,-0.56,-1.03,-0.17,-2.19,-0.4,0.72,-0.95,1.27,1.55
22.275,-0.56,-1.03,-0.17,-1.35,0.17,1.43,-0.95,1.27,1.55
22.287,-0.56,-1.03,-0.17,-1.35,0.17,1.43,-1.17,1.58,2.06
22.325,-0.56,-1.03,-0.17,-0.63,-0.05,2.12,-1.17,1.58,2.06
22.327,-0.44,-0.98,-0.02,-0.63,-0.05,2.12,-1.17,1.58,2.06
22.328,-0.44,-0.98,-0.02,-0.23,-1.02,2.51,-1.17,1.58,2.06
22.335,-0.44,-0.98,-0.02,0.09,-0.48,2.66,-1.17,1.58,2.06
22.367,-0.44,-0.98,-0.02,0.16,0.05,2.1,-1.17,1.58,2.06
22.369,-0.44,-0.98,-0.02,0.16,0.05,2.1,-0.68,1.71,2.02
22.398,-0.42,-0.84,-0.17,0.16,0.05,2.1,-0.68,1.71,2.02
22.4,-0.42,-0.84,-0.17,0.66,-0.09,1.63,-0.68,1.71,2.02
22.401,-0.42,-0.84,-0.17,1.33,-0.38,1.64,-0.68,1.71,2.02
22.414,-0.42,-0.84,-0.17,1.97,-0.69,2.26,-0.68,1.71,2.02
22.416,-0.42,-0.84,-0.17,1.97,-0.69,2.26,-1.26,0.81,1.76
22.433,-0.42,-0.84,-0.17,2.35,-0.5,2.84,-1.26,0.81,1.76
22.435,-0.29,-0.82,-0.08,2.35,-0.5,2.84,-1.26,0.81,1.76
22.461,-0.29,-0.82,-0.08,2.65,-0.51,3.22,-1.26,0.81,1.76
22.489,-0.29,-0.82,-0.08,2.8,-0.76,3.32,-1.26,0.81,1.76
22.491,-0.29,-0.82,-0.08,2.8,-0.76,3.32,-0.98,0.81,1.25
22.496,-0.29,-0.82,-0.08,3.0,-0.95,3.62,-0.98,0.81,1.25
22.501,-0.25,-0.81,-0.06,3.0,-0.95,3.62,-0.98,0.81,1.25
22.515,-0.25,-0.81,-0.06,3.13,-0.76,3.6,-0.98,0.81,1.25
22.535,-0.25,-0.81,-0.06,3.23,-1.13,3.99,-0.98,0.81,1.25
22.547,-0.25,-0.81,-0.06,3.23,-1.13,3.99,-0.76,0.78,0.66
22.565,-0.25,-0.81,-0.06,3.05,-1.28,4.31,-0.76,0.78,0.66
22.567,-0.27,-0.88,0.02,3.05,-1.28,4.31,-0.76,0.78,0.66
22.597,-0.27,-0.88,0.02,2.84,-1.71,4.78,-0.76,0.78,0.66
22.599,-0.27,-0.88,0.02,2.46,-1.78,4.69,-0.76,0.78,0.66
22.613,-0.27,-0.88,0.02,2.47,-2.08,4.65,-0.76,0.78,0.66
22.615,-0.27,-0.88,0.02,2.47,-2.08,4.65,-0.19,0.26,0.09
22.631,-0.27,-0.96,0.01,2.47,-2.08,4.65,-0.19,0.26,0.09
22.634,-0.27,-0.96,0.01,2.7,-2.09,4.18,-0.19,0.26,0.09
22.659,-0.27,-0.96,0.01,2.63,-2.29,4.01,-0.19,0.26,0.09
22.686,-0.27,-0.96,0.01,2.16,-2.74,2.84,-0.19,0.26,0.09
22.687,-0.27,-0.96,0.01,2.16,-2.74,2.84,0.68,0.13,-0.49
22.693,-0.27,-0.96,0.01,2.0,-3.51,1.98,0.68,0.13,-0.49
22.695,-0.31,-1.17,-0.21,2.0,-3.51,1.98,0.68,0.13,-0.49
22.713,-0.31,-1.17,-0.21,1.72,-3.89,1.29,0.68,0.13,-0.49
22.733,-0.31,-1.17,-0.21,1.42,-4.12,1.8,0.68,0.13,-0.49
22.743,-0.31,-1.17,-0.21,1.42,-4.12,1.8,0.41,-0.79,-1.18
22.759,-0.31,-1.17,-0.21,0.45,-3.24,2.32,0.41,-0.79,-1.18
22.761,-0.44,-1.15,-0.06,0.45,-3.24,2.32,0.41,-0.79,-1.18
22.781,-0.44,-1.15,-0.06,-0.32,-2.42,2.37,0.41,-0.79,-1.18
22.794,-0.44,-1.15,-0.06,-0.35,-1.55,1.47,0.41,-0.79,-1.18
22.816,-0.44,-1.15,-0.06,-0.35,-1.55,1.47,1.21,-1.19,-1.1
22.817,-0.44,-1.15,-0.06,-0.49,-1.47,0.73,1.21,-1.19,-1.1
22.827,-0.45,-1.11,-0.24,-0.49,-1.47,0.73,1.21,-1.19,-1.1
22.833,-0.45,-1.11,-0.24,-0.58,-2.04,-0.58,1.21,-1.19,-1.1
22.862,-0.45,-1.11,-0.24,-0.68,-2.28,-1.39,1.21,-1.19,-1.1
22.887,-0.45,-1.11,-0.24,-0.69,-1.54,-1.69,1.21,-1.19,-1.1
22.888,-0.45,-1.11,-0.24,-0.69,-1.54,-1.69,1.34,-0.2,-0.72
22.893,-0.43,-1.0,-0.27,-0.69,-1.54,-1.69,1.34,-0.2,-0.72
22.895,-0.43,-1.0,-0.27,-0.85,-0.55,-1.19,1.34,-0.2,-0.72
22.913,-0.43,-1.0,-0.27,-1.04,-0.01,-0.87,1.34,-0.2,-0.72
22.933,-0.43,-1.0,-0.27,-0.21,0.14,-1.63,1.34,-0.2,-0.72
22.937,-0.43,-1.0,-0.27,-0.21,0.14,-1.63,1.46,-0.42,-0.92
22.954,-0.43,-1.0,-0.27,1.01,1.18,-2.67,1.46,-0.42,-0.92
22.956,-0.15,-0.85,-0.39,1.01,1.18,-2.67,1.46,-0.42,-0.92
22.974,-0.15,-0.85,-0.39,0.31,1.69,-2.18,1.46,-0.42,-0.92
22.995,-0.15,-0.85,-0.39,-1.94,2.3,-1.48,1.46,-0.42,-0.92
23.001,-0.15,-0.85,-0.39,-1.94,2.3,-1.48,1.51,0.94,-0.79
23.032,-0.15,-0.85,-0.39,-2.12,2.64,-1.46,1.51,0.94,-0.79
23.036,-0.38,-0.71,-0.22,-2.12,2.64,-1.46,1.51,0.94,-0.79
23.038,-0.38,-0.71,-0.22,-1.1,2.78,-1.97,1.51,0.94,-0.79
23.064,-0.38,-0.71,-0.22,-0.97,3.15,-2.52,1.51,0.94,-0.79
23.067,-0.38,-0.71,-0.22,-0.97,3.15,-2.52,1.28,-0.57,-0.22
23.092,-0.38,-0.71,-0.22,-0.96,3.08,-2.67,1.28,-0.57,-0.22
23.093,-0.34,-0.67,-0.27,-0.96,3.08,-2.67,1.28,-0.57,-0.22
23.094,-0.34,-0.67,-0.27,-1.04,3.1,-2.89,1.28,-0.57,-0.22
23.114,-0.34,-0.67,-0.27,-0.75,3.05,-2.99,1.28,-0.57,-0.22
23.133,-0.34,-0.67,-0.27,-0.4,2.88,-3.53,1.28,-0.57,-0.22
23.134,-0.34,-0.67,-0.27,-0.4,2.88,-3.53,0.91,-1.72,-0.15
23.152,-0.25,-0.7,-0.36,-0.4,2.88,-3.53,0.91,-1.72,-0.15
23.161,-0.25,-0.7,-0.36,-0.09,2.8,-3.81,0.91,-1.72,-0.15
23.182,-0.25,-0.7,-0.36,-0.21,2.64,-4.31,0.91,-1.72,-0.15
23.194,-0.25,-0.7,-0.36,-0.6,1.92,-4.21,0.91,-1.72,-0.15
23.197,-0.25,-0.7,-0.36,-0.6,1.92,-4.21,0.18,-1.27,-0.93
23.213,-0.25,-0.7,-0.36,-1.34,0.99,-3.99,0.18,-1.27,-0.93
23.215,-0.35,-0.93,-0.36,-1.34,0.99,-3.99,0.18,-1.27,-0.93
23.233,-0.35,-0.93,-0.36,-1.97,-0.43,-3.45,0.18,-1.27,-0.93
23.259,-0.35,-0.93,-0.36,-2.54,-2.06,-3.12,0.18,-1.27,-0.93
23.262,-0.35,-0.93,-0.36,-2.54,-2.06,-3.12,-0.71,-1.67,-1.4
23.281,-0.35,-0.93,-0.36,-3.03,-3.19,-2.47,-0.71,-1.67,-1.4
23.283,-0.5,-1.32,-0.23,-3.03,-3.19,-2.47,-0.71,-1.67,-1.4
23.295,-0.5,-1.32,-0.23,-4.13,-2.71,-1.76,-0.71,-1.67,-1.4
23.313,-0.5,-1.32,-0.23,-5.05,-2.07,-1.02,-0.71,-1.67,-1.4
23.327,-0.5,-1.32,-0.23,-5.05,-2.07,-1.02,-0.85,-1.66,-1.22
23.333,-0.5,-1.32,-0.23,-5.88,-2.17,-0.31,-0.85,-1.66,-1.22
23.346,-0.68,-1.27,-0.06,-5.88,-2.17,-0.31,-0.85,-1.66,-1.22
23.359,-0.68,-1.27,-0.06,-5.64,-2.73,0.01,-0.85,-1.66,-1.22
23.379,-0.68,-1.27,-0.06,-5.22,-2.62,-0.91,-0.85,-1.66,-1.22
23.394,-0.68,-1.27,-0.06,-4.92,-1.93,-2.12,-0.85,-1.66,-1.22
23.396,-0.68,-1.27,-0.06,-4.92,-1.93,-2.12,0.18,-0.8,-0.41
23.412,-0.62,-1.13,-0.39,-4.92,-1.93,-2.12,0.18,-0.8,-0.41
23.414,-0.62,-1.13,-0.39,-5.15,-1.2,-3.17,0.18,-0.8,-0.41
23.433,-0.62,-1.13,-0.39,-5.22,-1.19,-3.32,0.18,-0.8,-0.41
23.459,-0.62,-1.13,-0.39,-5.86,-1.65,-2.99,0.18,-0.8,-0.41
23.46,-0.62,-1.13,-0.39,-5.86,-1.65,-2.99,-0.47,1.14,0.54
23.478,-0.62,-1.13,-0.39,-6.1,-1.79,-2.36,-0.47,1.14,0.54
23.48,-0.8,-1.18,-0.35,-6.1,-1.79,-2.36,-0.47,1.14,0.54
23.494,-0.8,-1.18,-0.35,-6.02,-1.77,-1.53,-0.47,1.14,0.54
23.514,-0.8,-1.18,-0.35,-4.6,-1.76,-0.56,-0.47,1.14,0.54
23.521,-0.8,-1.18,-0.35,-4.6,-1.76,-0.56,-0.98,1.48,2.1
23.533,-0.8,-1.18,-0.35,-3.18,-2.14,-0.15,-0.98,1.48,2.1
23.541,-0.56,-1.26,-0.21,-3.18,-2.14,-0.15,-0.98,1.48,2.1
23.56,-0.56,-1.26,-0.21,-2.23,-3.95,-0.15,-0.98,1.48,2.1
23.579,-0.56,-1.26,-0.21,-2.03,-3.76,0.18,-0.98,1.48,2.1
23.587,-0.56,-1.26,-0.21,-2.03,-3.76,0.18,-1.33,1.38,2.32
23.594,-0.56,-1.26,-0.21,-2.15,-2.94,0.73,-1.33,1.38,2.32
23.606,-0.6,-1.17,-0.15,-2.15,-2.94,0.73,-1.33,1.38,2.32
23.614,-0.6,-1.17,-0.15,-1.71,-2.91,1.56,-1.33,1.38,2.32
23.633,-0.6,-1.17,-0.15,-0.95,-4.18,2.03,-1.33,1.38,2.32
23.662,-0.6,-1.17,-0.15,-0.19,-4.37,2.86,-1.33,1.38,2.32
23.666,-0.6,-1.17,-0.15,-0.19,-4.37,2.86,-1.9,0.51,2.86
23.686,-0.49,-1.18,-0.02,-0.19,-4.37,2.86,-1.9,0.51,2.86
23.688,-0.49,-1.18,-0.02,0.42,-3.83,3.36,-1.9,0.51,2.86
23.694,-0.49,-1.18,-0.02,1.23,-3.87,4.12,-1.9,0.51,2.86
23.713,-0.49,-1.18,-0.02,2.32,-3.51,4.46,-1.9,0.51,2.86
23.716,-0.49,-1.18,-0.02,2.32,-3.51,4.46,-1.68,0.22,3.16
23.733,-0.49,-1.18,-0.02,3.66,-3.16,5.04,-1.68,0.22,3.16
23.741,-0.24,-0.97,0.11,3.66,-3.16,5.04,-1.68,0.22,3.16
23.753,-0.24,-0.97,0.11,4.67,-2.26,5.1,-1.68,0.22,3.16
23.776,-0.24,-0.97,0.11,4.93,-1.71,5.69,-1.68,0.22,3.16
23.781,-0.24,-0.97,0.11,4.93,-1.71,5.69,-0.95,-0.3,2.19
23.803,-0.24,-0.97,0.11,4.38,-0.77,5.23,-0.95,-0.3,2.19
23.805,-0.27,-0.67,0.14,4.38,-0.77,5.23,-0.95,-0.3,2.19
23.813,-0.27,-0.67,0.14,4.41,-0.68,5.12,-0.95,-0.3,2.19
23.834,-0.27,-0.67,0.14,4.41,-0.45,4.89,-0.95,-0.3,2.19
23.846,-0.27,-0.67,0.14,4.41,-0.45,4.89,-0.32,-0.03,1.28
23.858,-0.27,-0.67,0.14,4.92,-1.3,4.87,-0.32,-0.03,1.28
23.865,-0.26,-0.72,0.12,4.92,-1.3,4.87,-0.32,-0.03,1.28
23.888,-0.26,-0.72,0.12,4.77,-1.12,3.99,-0.32,-0.03,1.28
23.895,-0.26,-0.72,0.12,4.18,-0.88,3.51,-0.32,-0.03,1.28
23.913,-0.26,-0.72,0.12,3.53,-0.67,3.26,-0.32,-0.03,1.28
23.914,-0.26,-0.72,0.12,3.53,-0.67,3.26,0.61,1.71,0.62
23.932,-0.39,-0.74,0.0,3.53,-0.67,3.26,0.61,1.71,0.62
23.94,-0.39,-0.74,0.0,3.51,-1.36,3.26,0.61,1.71,0.62
23.956,-0.39,-0.74,0.0,4.13,-1.25,2.81,0.61,1.71,0.62
23.973,-0.39,-0.74,0.0,4.85,-0.75,2.2,0.61,1.71,0.62
23.976,-0.39,-0.74,0.0,4.85,-0.75,2.2,1.25,0.36,-0.12
23.994,-0.39,-0.74,0.0,5.15,-0.68,1.25,1.25,0.36,-0.12
23.996,-0.14,-0.78,-0.22,5.15,-0.68,1.25,1.25,0.36,-0.12
24.025,-0.14,-0.78,-0.22,5.6,-1.69,-0.03,1.25,0.36,-0.12
24.033,-0.14,-0.78,-0.22,5.43,-2.61,-0.98,1.25,0.36,-0.12
24.041,-0.14,-0.78,-0.22,5.43,-2.61,-0.98,1.09,-0.18,-1.7
24.056,-0.14,-0.78,-0.22,5.12,-3.81,-0.94,1.09,-0.18,-1.7
24.06,-0.14,-1.19,-0.34,5.12,-3.81,-0.94,1.09,-0.18,-1.7
24.074,-0.14,-1.19,-0.34,3.02,-3.52,-0.07,1.09,-0.18,-1.7
24.093,-0.14,-1.19,-0.34,0.58,-3.17,1.0,1.09,-0.18,-1.7
24.123,-0.14,-1.19,-0.34,0.58,-3.17,1.0,0.53,-2.66,-3.2
24.125,-0.14,-1.19,-0.34,-1.04,-3.42,0.89,0.53,-2.66,-3.2
24.126,-0.57,-1.34,-0.13,-1.04,-3.42,0.89,0.53,-2.66,-3.2
24.133,-0.57,-1.34,-0.13,-1.81,-4.48,0.1,0.53,-2.66,-3.2
24.162,-0.57,-1.34,-0.13,-2.19,-5.21,-0.98,0.53,-2.66,-3.2
24.201,-0.57,-1.34,-0.13,-2.79,-5.34,-2.07,0.53,-2.66,-3.2
24.202,-0.57,-1.34,-0.13,-2.79,-5.34,-2.07,1.0,-0.87,-2.68
24.203,-0.65,-1.41,-0.35,-2.79,-5.34,-2.07,1.0,-0.87,-2.68
24.204,-0.65,-1.41,-0.35,-3.79,-4.24,-2.38,1.0,-0.87,-2.68
24.213,-0.65,-1.41,-0.35,-4.99,-2.35,-1.98,1.0,-0.87,-2.68
24.233,-0.65,-1.41,-0.35,-5.39,-0.35,-1.56,1.0,-0.87,-2.68
24.236,-0.65,-1.41,-0.35,-5.39,-0.35,-1.56,0.86,-0.1,-1.64
24.253,-0.65,-1.41,-0.35,-5.47,1.32,-1.4,0.86,-0.1,-1.64
24.256,-0.71,-0.83,-0.21,-5.47,1.32,-1.4,0.86,-0.1,-1.64
24.275,-0.71,-0.83,-0.21,-4.53,2.32,-1.44,0.86,-0.1,-1.64
24.294,-0.71,-0.83,-0.21,-3.69,2.95,-1.71,0.86,-0.1,-1.64
24.319,-0.71,-0.83,-0.21,-3.69,2.95,-1.71,0.69,-0.82,-0.64
24.322,-0.71,-0.83,-0.21,-2.65,3.31,-1.89,0.69,-0.82,-0.64
24.322,-0.41,-0.66,-0.26,-2.65,3.31,-1.89,0.69,-0.82,-0.64
24.333,-0.41,-0.66,-0.26,-2.22,3.39,-2.16,0.69,-0.82,-0.64
24.361,-0.41,-0.66,-0.26,-1.99,3.72,-1.98,0.69,-0.82,-0.64
24.367,-0.41,-0.66,-0.26,-1.99,3.72,-1.98,0.39,-0.39,-0.71
24.394,-0.41,-0.66,-0.26,-2.21,4.03,-1.84,0.39,-0.39,-0.71
24.395,-0.39,-0.6,-0.22,-2.21,4.03,-1.84,0.39,-0.39,-0.71
24.396,-0.39,-0.6,-0.22,-2.19,3.79,-1.64,0.39,-0.39,-0.71
24.413,-0.39,-0.6,-0.22,-2.43,3.56,-1.71,0.39,-0.39,-0.71
24.433,-0.39,-0.6,-0.22,-2.46,3.32,-1.51,0.39,-0.39,-0.71
24.434,-0.39,-0.6,-0.22,-2.46,3.32,-1.51,0.14,-0.63,-0.85
24.457,-0.45,-0.67,-0.19,-2.46,3.32,-1.51,0.14,-0.63,-0.85
24.459,-0.45,-0.67,-0.19,-2.93,3.32,-1.39,0.14,-0.63,-0.85
24.476,-0.45,-0.67,-0.19,-2.9,3.17,-1.13,0.14,-0.63,-0.85
24.494,-0.45,-0.67,-0.19,-3.16,2.61,-1.35,0.14,-0.63,-0.85
24.497,-0.45,-0.67,-0.19,-3.16,2.61,-1.35,0.05,-1.08,-0.85
24.513,-0.45,-0.67,-0.19,-3.14,1.83,-1.44,0.05,-1.08,-0.85
24.516,-0.48,-0.83,-0.22,-3.14,1.83,-1.44,0.05,-1.08,-0.85
24.535,-0.48,-0.83,-0.22,-3.4,1.11,-1.78,0.05,-1.08,-0.85
24.554,-0.48,-0.83,-0.22,-3.48,-0.09,-1.84,0.05,-1.08,-0.85
24.561,-0.48,-0.83,-0.22,-3.48,-0.09,-1.84,-0.1,-0.86,-0.85
24.575,-0.48,-0.83,-0.22,-3.94,-1.58,-1.9,-0.1,-0.86,-0.85
24.581,-0.56,-1.23,-0.27,-3.94,-1.58,-1.9,-0.1,-0.86,-0.85
24.595,-0.56,-1.23,-0.27,-4.35,-2.53,-1.73,-0.1,-0.86,-0.85
24.614,-0.56,-1.23,-0.27,-5.08,-1.52,-1.25,-0.1,-0.86,-0.85
24.626,-0.56,-1.23,-0.27,-5.08,-1.52,-1.25,-0.44,-0.81,-0.59
24.635,-0.56,-1.23,-0.27,-5.52,-0.58,-0.59,-0.44,-0.81,-0.59
24.646,-0.73,-1.07,-0.09,-5.52,-0.58,-0.59,-0.44,-0.81,-0.59
24.655,-0.73,-1.07,-0.09,-5.74,-0.82,0.23,-0.44,-0.81,-0.59
24.68,-0.73,-1.07,-0.09,-4.54,-2.25,0.52,-0.44,-0.81,-0.59
24.709,-0.73,-1.07,-0.09,-3.35,-2.42,-0.5,-0.44,-0.81,-0.59
24.711,-0.73,-1.07,-0.09,-3.35,-2.42,-0.5,0.5,-0.7,0.21
24.712,-0.52,-1.18,-0.29,-3.35,-2.42,-0.5,0.5,-0.7,0.21
24.716,-0.52,-1.18,-0.29,-3.16,-1.85,-1.93,0.5,-0.7,0.21
24.734,-0.52,-1.18,-0.29,-3.54,-1.67,-2.84,0.5,-0.7,0.21
24.753,-0.52,-1.18,-0.29,-3.23,-1.66,-2.68,0.5,-0.7,0.21
24.756,-0.52,-1.18,-0.29,-3.23,-1.66,-2.68,0.19,1.03,0.52
24.775,-0.52,-1.18,-0.29,-3.37,-1.62,-2.29,0.19,1.03,0.52
24.777,-0.59,-1.14,-0.32,-3.37,-1.62,-2.29,0.19,1.03,0.52
24.798,-0.59,-1.14,-0.32,-3.69,-1.27,-2.18,0.19,1.03,0.52
24.815,-0.59,-1.14,-0.32,-3.98,-1.14,-2.33,0.19,1.03,0.52
24.821,-0.59,-1.14,-0.32,-3.98,-1.14,-2.33,-0.05,2.16,1.33
24.836,-0.59,-1.14,-0.32,-3.16,-1.37,-1.96,-0.05,2.16,1.33
24.841,-0.59,-1.14,-0.31,-3.16,-1.37,-1.96,-0.05,2.16,1.33
24.855,-0.59,-1.14,-0.31,-2.51,-2.72,-1.8,-0.05,2.16,1.33
24.878,-0.59,-1.14,-0.31,-2.62,-4.28,-1.57,-0.05,2.16,1.33
24.907,-0.59,-1.14,-0.31,-2.62,-4.28,-1.57,-0.93,1.79,1.74
24.909,-0.59,-1.14,-0.31,-3.19,-2.91,-0.99,-0.93,1.79,1.74
24.91,-0.71,-1.15,-0.21,-3.19,-2.91,-0.99,-0.93,1.79,1.74
24.914,-0.71,-1.15,-0.21,-2.85,-2.22,0.25,-0.93,1.79,1.74
24.934,-0.71,-1.15,-0.21,-1.8,-1.78,1.45,-0.93,1.79,1.74
24.954,-0.71,-1.15,-0.21,-0.33,-1.38,2.29,-0.93,1.79,1.74
24.956,-0.71,-1.15,-0.21,-0.33,-1.38,2.29,-1.58,0.48,2.69
24.975,-0.39,-0.98,0.0,-0.33,-1.38,2.29,-1.58,0.48,2.69
24.977,-0.39,-0.98,0.0,1.33,-1.46,2.74,-1.58,0.48,2.69
25.008,-0.39,-0.98,0.0,2.28,-2.4,2.76,-1.58,0.48,2.69
25.015,-0.39,-0.98,0.0,2.76,-2.23,3.01,-1.58,0.48,2.69
25.026,-0.39,-0.98,0.0,2.76,-2.23,3.01,-0.81,1.17,2.3
25.041,-0.39,-0.98,0.0,2.42,-1.52,2.73,-0.81,1.17,2.3
25.043,-0.36,-0.9,-0.04,2.42,-1.52,2.73,-0.81,1.17,2.3
25.058,-0.36,-0.9,-0.04,2.6,-1.26,2.99,-0.81,1.17,2.3
25.074,-0.36,-0.9,-0.04,3.23,-1.38,3.39,-0.81,1.17,2.3
25.081,-0.36,-0.9,-0.04,3.23,-1.38,3.39,-0.9,1.65,2.26
25.094,-0.36,-0.9,-0.04,4.02,-1.68,4.12,-0.9,1.65,2.26
25.102,-0.21,-0.82,0.06,4.02,-1.68,4.12,-0.9,1.65,2.26
25.115,-0.21,-0.82,0.06,4.59,-0.91,4.64,-0.9,1.65,2.26
25.134,-0.21,-0.82,0.06,5.12,-0.33,5.19,-0.9,1.65,2.26
25.146,-0.21,-0.82,0.06,5.12,-0.33,5.19,-0.56,0.65,1.2
25.155,-0.21,-0.82,0.06,5.33,0.18,4.99,-0.56,0.65,1.2
25.166,-0.09,-0.68,0.08,5.33,0.18,4.99,-0.56,0.65,1.2
25.174,-0.09,-0.68,0.08,5.68,-0.39,4.65,-0.56,0.65,1.2
25.194,-0.09,-0.68,0.08,5.49,-0.78,4.04,-0.56,0.65,1.2
25.213,-0.09,-0.68,0.08,5.02,-1.46,3.87,-0.56,0.65,1.2
25.215,-0.09,-0.68,0.08,5.02,-1.46,3.87,-0.19,0.24,-0.22
25.231,-0.24,-0.86,-0.01,5.02,-1.46,3.87,-0.19,0.24,-0.22
25.235,-0.24,-0.86,-0.01,3.74,-1.44,3.57,-0.19,0.24,-0.22
25.254,-0.24,-0.86,-0.01,2.58,-2.03,3.31,-0.19,0.24,-0.22
25.274,-0.24,-0.86,-0.01,1.87,-1.93,2.77,-0.19,0.24,-0.22
25.276,-0.24,-0.86,-0.01,1.87,-1.93,2.77,-0.0,-0.55,-0.83
25.305,-0.24,-0.86,-0.01,1.84,-1.63,2.37,-0.0,-0.55,-0.83
25.307,-0.39,-0.94,-0.12,1.84,-1.63,2.37,-0.0,-0.55,-0.83
25.313,-0.39,-0.94,-0.12,1.86,-2.13,1.83,-0.0,-0.55,-0.83
25.334,-0.39,-0.94,-0.12,2.22,-2.92,1.66,-0.0,-0.55,-0.83
25.342,-0.39,-0.94,-0.12,2.22,-2.92,1.66,0.09,-1.3,-1.62
25.355,-0.39,-0.94,-0.12,1.97,-4.11,1.32,0.09,-1.3,-1.62
25.361,-0.31,-1.31,-0.14,1.97,-4.11,1.32,0.09,-1.3,-1.62
25.374,-0.31,-1.31,-0.14,1.45,-4.58,1.25,0.09,-1.3,-1.62
25.403,-0.31,-1.31,-0.14,-0.18,-3.33,1.06,0.09,-1.3,-1.62
25.411,-0.31,-1.31,-0.14,-0.18,-3.33,1.06,0.94,-0.64,-2.51
25.413,-0.31,-1.31,-0.14,-1.56,-2.53,0.86,0.94,-0.64,-2.51
25.426,-0.6,-1.16,-0.16,-1.56,-2.53,0.86,0.94,-0.64,-2.51
25.438,-0.6,-1.16,-0.16,-2.39,-2.34,0.17,0.94,-0.64,-2.51
25.458,-0.6,-1.16,-0.16,-3.1,-2.5,-0.88,0.94,-0.64,-2.51
25.475,-0.6,-1.16,-0.16,-3.43,-2.82,-2.13,0.94,-0.64,-2.51
25.477,-0.6,-1.16,-0.16,-3.43,-2.82,-2.13,1.95,0.19,-1.9
25.494,-0.65,-1.24,-0.43,-3.43,-2.82,-2.13,1.95,0.19,-1.9
25.496,-0.65,-1.24,-0.43,-3.9,-2.55,-3.16,1.95,0.19,-1.9
25.529,-0.65,-1.24,-0.43,-4.09,-1.15,-3.42,1.95,0.19,-1.9
25.537,-0.65,-1.24,-0.43,-4.1,0.62,-2.89,1.95,0.19,-1.9
25.538,-0.65,-1.24,-0.43,-4.1,0.62,-2.89,0.94,-0.46,-1.02
25.559,-0.65,-1.24,-0.43,-3.42,1.76,-1.98,0.94,-0.46,-1.02
25.56,-0.55,-0.79,-0.24,-3.42,1.76,-1.98,0.94,-0.46,-1.02
25.596,-0.55,-0.79,-0.24,-2.92,2.11,-1.6,0.94,-0.46,-1.02
25.597,-0.55,-0.79,-0.24,-2.49,1.68,-1.97,0.94,-0.46,-1.02
25.603,-0.55,-0.79,-0.24,-2.49,1.68,-1.97,1.11,0.04,-0.39
25.613,-0.55,-0.79,-0.24,-2.46,2.82,-2.2,1.11,0.04,-0.39
25.621,-0.47,-0.66,-0.26,-2.46,2.82,-2.2,1.11,0.04,-0.39
25.635,-0.47,-0.66,-0.26,-2.42,3.61,-2.16,1.11,0.04,-0.39
25.655,-0.47,-0.66,-0.26,-2.33,3.99,-2.21,1.11,0.04,-0.39
25.675,-0.47,-0.66,-0.26,-2.33,3.99,-2.21,0.8,-0.49,0.02
25.677,-0.47,-0.66,-0.26,-1.71,3.91,-2.18,0.8,-0.49,0.02
25.703,-0.39,-0.6,-0.26,-1.71,3.91,-2.18,0.8,-0.49,0.02
25.704,-0.39,-0.6,-0.26,-1.32,3.79,-2.58,0.8,-0.49,0.02
25.713,-0.39,-0.6,-0.26,-0.86,3.8,-2.61,0.8,-0.49,0.02
25.734,-0.39,-0.6,-0.26,-0.65,3.81,-2.87,0.8,-0.49,0.02
25.736,-0.39,-0.6,-0.26,-0.65,3.81,-2.87,0.4,-1.1,-0.14
25.752,-0.32,-0.61,-0.31,-0.65,3.81,-2.87,0.4,-1.1,-0.14
25.757,-0.32,-0.61,-0.31,-0.49,3.62,-2.85,0.4,-1.1,-0.14
25.776,-0.32,-0.61,-0.31,-0.71,3.58,-3.08,0.4,-1.1,-0.14
25.802,-0.32,-0.61,-0.31,-0.92,3.42,-2.82,0.4,-1.1,-0.14
25.803,-0.32,-0.61,-0.31,-0.92,3.42,-2.82,0.04,-0.91,-0.34
25.813,-0.32,-0.61,-0.31,-1.14,2.64,-2.78,0.04,-0.91,-0.34
25.824,-0.39,-0.74,-0.31,-1.14,2.64,-2.78,0.04,-0.91,-0.34
25.838,-0.39,-0.74,-0.31,-1.08,1.27,-2.82,0.04,-0.91,-0.34
25.855,-0.39,-0.74,-0.31,-1.33,-0.62,-3.01,0.04,-0.91,-0.34
25.861,-0.39,-0.74,-0.31,-1.33,-0.62,-3.01,-0.68,-1.58,-0.79
25.874,-0.39,-0.74,-0.31,-1.8,-2.76,-2.76,-0.68,-1.58,-0.79
25.881,-0.47,-1.34,-0.32,-1.8,-2.76,-2.76,-0.68,-1.58,-0.79
25.895,-0.47,-1.34,-0.32,-2.48,-3.57,-1.9,-0.68,-1.58,-0.79
25.92,-0.47,-1.34,-0.32,-3.31,-2.14,-0.58,-0.68,-1.58,-0.79
25.928,-0.47,-1.34,-0.32,-3.31,-2.14,-0.58,-1.16,-2.32,-0.98
25.94,-0.47,-1.34,-0.32,-4.17,-1.08,0.15,-1.16,-2.32,-0.98
25.946,-0.66,-1.15,-0.05,-4.17,-1.08,0.15,-1.16,-2.32,-0.98
25.955,-0.66,-1.15,-0.05,-4.12,-2.05,0.61,-1.16,-2.32,-0.98
25.973,-0.66,-1.15,-0.05,-3.27,-3.09,0.63,-1.16,-2.32,-0.98
25.993,-0.66,-1.15,-0.05,-2.23,-3.12,-0.18,-1.16,-2.32,-0.98
25.995,-0.66,-1.15,-0.05,-2.23,-3.12,-0.18,0.27,-0.99,-0.29
26.022,-0.46,-1.24,-0.25,-2.23,-3.12,-0.18,0.27,-0.99,-0.29
26.024,-0.46,-1.24,-0.25,-2.22,-2.54,-1.5,0.27,-0.99,-0.29
26.034,-0.46,-1.24,-0.25,-2.53,-2.11,-2.34,0.27,-0.99,-0.29
26.055,-0.46,-1.24,-0.25,-3.16,-1.84,-2.96,0.27,-0.99,-0.29
26.057,-0.46,-1.24,-0.25,-3.16,-1.84,-2.96,0.58,1.52,-0.19
26.076,-0.46,-1.24,-0.25,-3.63,-1.31,-3.01,0.58,1.52,-0.19
26.078,-0.64,-1.09,-0.41,-3.63,-1.31,-3.01,0.58,1.52,-0.19
26.099,-0.64,-1.09,-0.41,-4.47,-0.49,-2.95,0.58,1.52,-0.19
26.113,-0.64,-1.09,-0.41,-4.73,-0.56,-2.58,0.58,1.52,-0.19
26.123,-0.64,-1.09,-0.41,-4.73,-0.56,-2.58,-0.2,2.19,0.93
26.138,-0.64,-1.09,-0.41,-4.62,-0.82,-2.21,-0.2,2.19,0.93
26.141,-0.71,-1.06,-0.34,-4.62,-0.82,-2.21,-0.2,2.19,0.93
26.154,-0.71,-1.06,-0.34,-3.32,-1.14,-1.55,-0.2,2.19,0.93
26.174,-0.71,-1.06,-0.34,-2.42,-1.02,-1.04,-0.2,2.19,0.93
26.191,-0.71,-1.06,-0.34,-2.42,-1.02,-1.04,-1.11,1.26,1.66
26.194,-0.71,-1.06,-0.34,-1.71,-1.38,-0.48,-1.11,1.26,1.66
26.222,-0.53,-1.12,-0.23,-1.71,-1.38,-0.48,-1.11,1.26,1.66
26.223,-0.53,-1.12,-0.23,-1.41,-1.96,0.1,-1.11,1.26,1.66
26.234,-0.53,-1.12,-0.23,-1.04,-1.7,0.83,-1.11,1.26,1.66
26.255,-0.53,-1.12,-0.23,-0.6,-1.3,1.72,-1.11,1.26,1.66
26.256,-0.53,-1.12,-0.23,-0.6,-1.3,1.72,-1.79,0.21,1.89
26.272,-0.47,-0.96,-0.03,-0.6,-1.3,1.72,-1.79,0.21,1.89
26.275,-0.47,-0.96,-0.03,0.1,-1.02,2.48,-1.79,0.21,1.89
26.297,-0.47,-0.96,-0.03,0.85,-1.1,3.08,-1.79,0.21,1.89
26.313,-0.47,-0.96,-0.03,1.64,-1.47,3.24,-1.79,0.21,1.89
26.317,-0.47,-0.96,-0.03,1.64,-1.47,3.24,-1.4,0.23,1.99
26.334,-0.47,-0.96,-0.03,2.31,-1.67,3.5,-1.4,0.23,1.99
26.336,-0.31,-0.94,0.03,2.31,-1.67,3.5,-1.4,0.23,1.99
26.354,-0.31,-0.94,0.03,2.72,-1.22,3.52,-1.4,0.23,1.99
26.374,-0.31,-0.94,0.03,3.06,-0.76,3.8,-1.4,0.23,1.99
26.381,-0.31,-0.94,0.03,3.06,-0.76,3.8,-0.76,0.98,1.65
26.394,-0.31,-0.94,0.03,3.11,-0.06,3.47,-0.76,0.98,1.65
26.419,-0.28,-0.74,-0.02,3.11,-0.06,3.47,-0.76,0.98,1.65
26.421,-0.28,-0.74,-0.02,3.36,0.08,2.91,-0.76,0.98,1.65
26.435,-0.28,-0.74,-0.02,3.4,0.52,2.3,-0.76,0.98,1.65
26.446,-0.28,-0.74,-0.02,3.4,0.52,2.3,-0.75,0.88,1.21
26.455,-0.28,-0.74,-0.02,3.63,0.69,2.43,-0.75,0.88,1.21
26.476,-0.24,-0.65,-0.12,3.63,0.69,2.43,-0.75,0.88,1.21
26.478,-0.24,-0.65,-0.12,3.74,0.44,2.84,-0.75,0.88,1.21
26.501,-0.24,-0.65,-0.12,3.98,-0.54,3.53,-0.75,0.88,1.21
26.513,-0.24,-0.65,-0.12,3.93,-1.35,3.41,-0.75,0.88,1.21
26.515,-0.24,-0.65,-0.12,3.93,-1.35,3.41,-0.88,-0.09,0.34
26.532,-0.22,-0.86,-0.08,3.93,-1.35,3.41,-0.88,-0.09,0.34
26.535,-0.22,-0.86,-0.08,3.87,-1.71,3.36,-0.88,-0.09,0.34
26.555,-0.22,-0.86,-0.08,3.21,-1.89,3.39,-0.88,-0.09,0.34
26.575,-0.22,-0.86,-0.08,3.07,-2.29,3.85,-0.88,-0.09,0.34
26.577,-0.22,-0.86,-0.08,3.07,-2.29,3.85,-0.42,-0.74,-0.39
26.6,-0.22,-0.86,-0.08,3.12,-2.07,3.37,-0.42,-0.74,-0.39
26.602,-0.26,-0.96,-0.05,3.12,-2.07,3.37,-0.42,-0.74,-0.39
26.613,-0.26,-0.96,-0.05,3.68,-2.55,2.43,-0.42,-0.74,-0.39
26.634,-0.26,-0.96,-0.05,3.69,-3.48,1.62,-0.42,-0.74,-0.39
26.641,-0.26,-0.96,-0.05,3.69,-3.48,1.62,0.39,-0.69,-1.26
26.655,-0.26,-0.96,-0.05,3.66,-4.92,1.2,0.39,-0.69,-1.26
26.661,-0.18,-1.39,-0.23,3.66,-4.92,1.2,0.39,-0.69,-1.26
26.675,-0.18,-1.39,-0.23,2.47,-6.17,0.56,0.39,-0.69,-1.26
26.694,-0.18,-1.39,-0.23,0.69,-5.63,-0.17,0.39,-0.69,-1.26
26.707,-0.18,-1.39,-0.23,0.69,-5.63,-0.17,1.1,-0.48,-2.42
26.716,-0.18,-1.39,-0.23,-1.13,-4.0,-0.55,1.1,-0.48,-2.42
26.726,-0.59,-1.19,-0.33,-1.13,-4.0,-0.55,1.1,-0.48,-2.42
26.733,-0.59,-1.19,-0.33,-2.15,-2.57,-0.78,1.1,-0.48,-2.42
26.754,-0.59,-1.19,-0.33,-2.31,-2.28,-1.29,1.1,-0.48,-2.42
26.775,-0.59,-1.19,-0.33,-1.91,-2.1,-2.0,1.1,-0.48,-2.42
26.776,-0.59,-1.19,-0.33,-1.91,-2.1,-2.0,1.26,-0.45,-1.58
26.791,-0.45,-1.12,-0.45,-1.91,-2.1,-2.0,1.26,-0.45,-1.58
26.793,-0.45,-1.12,-0.45,-1.54,-1.6,-2.47,1.26,-0.45,-1.58
26.815,-0.45,-1.12,-0.45,-1.71,-0.55,-2.33,1.26,-0.45,-1.58
26.834,-0.45,-1.12,-0.45,-2.19,0.35,-1.65,1.26,-0.45,-1.58
26.836,-0.45,-1.12,-0.45,-2.19,0.35,-1.65,0.8,-0.47,-1.53
26.854,-0.45,-1.12,-0.45,-2.82,1.22,-1.06,0.8,-0.47,-1.53
26.857,-0.52,-0.83,-0.27,-2.82,1.22,-1.06,0.8,-0.47,-1.53
26.877,-0.52,-0.83,-0.27,-2.95,2.14,-0.9,0.8,-0.47,-1.53
26.905,-0.52,-0.83,-0.27,-2.92,3.22,-1.13,0.8,-0.47,-1.53
26.907,-0.52,-0.83,-0.27,-2.92,3.22,-1.13,0.77,-0.94,-1.05
26.913,-0.52,-0.83,-0.27,-2.55,3.99,-1.24,0.77,-0.94,-1.05
26.923,-0.46,-0.53,-0.27,-2.55,3.99,-1.24,0.77,-0.94,-1.05
26.935,-0.46,-0.53,-0.27,-2.46,4.68,-1.37,0.77,-0.94,-1.05
26.953,-0.46,-0.53,-0.27,-2.08,4.83,-1.31,0.77,-0.94,-1.05
26.972,-0.46,-0.53,-0.27,-2.08,4.83,-1.31,0.5,-0.48,-0.63
26.973,-0.46,-0.53,-0.27,-2.06,5.01,-1.23,0.5,-0.48,-0.63
26.992,-0.41,-0.52,-0.26,-2.06,5.01,-1.23,0.5,-0.48,-0.63
26.994,-0.41,-0.52,-0.26,-1.87,4.34,-1.18,0.5,-0.48,-0.63
27.013,-0.41,-0.52,-0.26,-2.19,4.08,-0.99,0.5,-0.48,-0.63
27.033,-0.41,-0.52,-0.26,-2.04,3.81,-0.69,0.5,-0.48,-0.63
27.034,-0.41,-0.52,-0.26,-2.04,3.81,-0.69,0.13,-0.86,-0.52
27.051,-0.43,-0.64,-0.2,-2.04,3.81,-0.69,0.13,-0.86,-0.52
27.054,-0.43,-0.64,-0.2,-2.02,3.35,-0.59,0.13,-0.86,-0.52
27.074,-0.43,-0.64,-0.2,-1.95,2.83,-0.46,0.13,-0.86,-0.52
27.095,-0.43,-0.64,-0.2,-2.32,2.56,-0.46,0.13,-0.86,-0.52
27.097,-0.43,-0.64,-0.2,-2.32,2.56,-0.46,-0.05,-1.45,-0.65
27.113,-0.43,-0.64,-0.2,-2.32,2.01,-0.41,-0.05,-1.45,-0.65
27.116,-0.47,-0.81,-0.18,-2.32,2.01,-0.41,-0.05,-1.45,-0.65
27.134,-0.47,-0.81,-0.18,-2.43,0.64,-0.61,-0.05,-1.45,-0.65
27.153,-0.47,-0.81,-0.18,-2.8,-0.89,-0.9,-0.05,-1.45,-0.65
27.161,-0.47,-0.81,-0.18,-2.8,-0.89,-0.9,-0.01,-1.18,-0.67
27.175,-0.47,-0.81,-0.18,-3.58,-2.14,-1.23,-0.01,-1.18,-0.67
27.196,-0.63,-1.24,-0.26,-3.58,-2.14,-1.23,-0.01,-1.18,-0.67
27.198,-0.63,-1.24,-0.26,-4.24,-2.71,-1.37,-0.01,-1.18,-0.67
27.214,-0.63,-1.24,-0.26,-4.8,-1.91,-1.1,-0.01,-1.18,-0.67
27.227,-0.63,-1.24,-0.26,-4.8,-1.91,-1.1,-0.08,-1.0,0.22
27.233,-0.63,-1.24,-0.26,-4.36,-1.55,-0.53,-0.08,-1.0,0.22
27.245,-0.61,-1.27,-0.14,-4.36,-1.55,-0.53,-0.08,-1.0,0.22
27.255,-0.61,-1.27,-0.14,-3.06,-3.22,-0.24,-0.08,-1.0,0.22
27.273,-0.61,-1.27,-0.14,-1.49,-4.18,-0.61,-0.08,-1.0,0.22
27.294,-0.61,-1.27,-0.14,-0.75,-3.17,-1.29,-0.08,-1.0,0.22
27.296,-0.61,-1.27,-0.14,-0.75,-3.17,-1.29,0.58,-0.87,0.1
27.311,-0.38,-1.18,-0.33,-0.75,-3.17,-1.29,0.58,-0.87,0.1
27.316,-0.38,-1.18,-0.33,-0.91,-2.08,-2.28,0.58,-0.87,0.1
27.334,-0.38,-1.18,-0.33,-1.63,-1.45,-3.08,0.58,-0.87,0.1
27.353,-0.38,-1.18,-0.33,-1.99,-1.17,-2.88,0.58,-0.87,0.1
27.356,-0.38,-1.18,-0.33,-1.99,-1.17,-2.88,0.29,1.14,0.1
27.373,-0.38,-1.18,-0.33,-2.48,-1.67,-2.47,0.29,1.14,0.1
27.376,-0.56,-1.15,-0.34,-2.48,-1.67,-2.47,0.29,1.14,0.1
27.395,-0.56,-1.15,-0.34,-2.95,-2.03,-2.27,0.29,1.14,0.1
27.413,-0.56,-1.15,-0.34,-3.49,-1.71,-2.43,0.29,1.14,0.1
27.421,-0.56,-1.15,-0.34,-3.49,-1.71,-2.43,0.07,1.77,0.73
27.433,-0.56,-1.15,-0.34,-3.34,-1.35,-2.21,0.07,1.77,0.73
27.441,-0.65,-1.07,-0.34,-3.34,-1.35,-2.21,0.07,1.77,0.73
27.453,-0.65,-1.07,-0.34,-2.68,-1.01,-1.92,0.07,1.77,0.73
27.473,-0.65,-1.07,-0.34,-1.97,-1.26,-1.52,0.07,1.77,0.73
27.496,-0.65,-1.07,-0.34,-1.97,-1.26,-1.52,-0.63,1.75,1.45
27.499,-0.65,-1.07,-0.34,-1.79,-1.4,-1.07,-0.63,1.75,1.45
27.506,-0.57,-1.02,-0.24,-1.79,-1.4,-1.07,-0.63,1.75,1.45
27.515,-0.57,-1.02,-0.24,-1.57,-0.92,-0.2,-0.63,1.75,1.45
27.533,-0.57,-1.02,-0.24,-1.04,-0.47,0.67,-0.63,1.75,1.45
27.553,-0.57,-1.02,-0.24,-0.18,-0.04,1.5,-0.63,1.75,1.45
27.555,-0.57,-1.02,-0.24,-0.18,-0.04,1.5,-1.17,1.3,1.98
27.571,-0.4,-0.85,-0.05,-0.18,-0.04,1.5,-1.17,1.3,1.98
27.574,-0.4,-0.85,-0.05,0.74,0.1,2.21,-1.17,1.3,1.98
27.593,-0.4,-0.85,-0.05,1.62,-0.08,2.45,-1.17,1.3,1.98
27.613,-0.4,-0.85,-0.05,2.29,-0.34,2.67,-1.17,1.3,1.98
27.616,-0.4,-0.85,-0.05,2.29,-0.34,2.67,-0.89,1.44,1.71
27.633,-0.4,-0.85,-0.05,2.54,-0.13,2.68,-0.89,1.44,1.71
27.635,-0.27,-0.82,-0.05,2.54,-0.13,2.68,-0.89,1.44,1.71
27.653,-0.27,-0.82,-0.05,2.63,-0.1,2.94,-0.89,1.44,1.71
27.673,-0.27,-0.82,-0.05,2.42,-0.11,3.16,-0.89,1.44,1.71
27.687,-0.27,-0.82,-0.05,2.42,-0.11,3.16,-0.83,1.66,1.13
27.693,-0.27,-0.82,-0.05,2.27,-0.39,3.71,-0.83,1.66,1.13
27.7,-0.32,-0.8,0.0,2.27,-0.39,3.71,-0.83,1.66,1.13
27.714,-0.32,-0.8,0.0,2.05,-0.19,3.83,-0.83,1.66,1.13
27.733,-0.32,-0.8,0.0,1.96,-0.15,4.31,-0.83,1.66,1.13
27.746,-0.32,-0.8,0.0,1.96,-0.15,4.31,-0.81,0.81,0.78
27.753,-0.32,-0.8,0.0,1.98,0.06,4.41,-0.81,0.81,0.78
27.775,-0.33,-0.78,0.06,1.98,0.06,4.41,-0.81,0.81,0.78
27.777,-0.33,-0.78,0.06,2.32,-0.48,4.65,-0.81,0.81,0.78
27.802,-0.33,-0.78,0.06,2.55,-0.92,4.39,-0.81,0.81,0.78
27.814,-0.33,-0.78,0.06,2.76,-1.37,4.31,-0.81,0.81,0.78
27.816,-0.33,-0.78,0.06,2.76,-1.37,4.31,-0.49,-0.02,0.31
27.832,-0.28,-0.92,-0.0,2.76,-1.37,4.31,-0.49,-0.02,0.31
27.834,-0.28,-0.92,-0.0,2.63,-1.54,3.77,-0.49,-0.02,0.31
27.855,-0.28,-0.92,-0.0,2.45,-2.14,3.68,-0.49,-0.02,0.31
27.875,-0.28,-0.92,-0.0,2.35,-2.04,3.56,-0.49,-0.02,0.31
27.877,-0.28,-0.92,-0.0,2.35,-2.04,3.56,-0.22,-0.61,-0.21
27.899,-0.28,-0.92,-0.0,2.5,-1.68,3.56,-0.22,-0.61,-0.21
27.901,-0.28,-0.96,-0.0,2.5,-1.68,3.56,-0.22,-0.61,-0.21
27.914,-0.28,-0.96,-0.0,2.68,-2.07,2.79,-0.22,-0.61,-0.21
27.933,-0.28,-0.96,-0.0,3.06,-3.46,2.14,-0.22,-0.61,-0.21
27.941,-0.28,-0.96,-0.0,3.06,-3.46,2.14,0.29,-0.98,-1.04
27.953,-0.28,-0.96,-0.0,3.09,-4.6,1.7,0.29,-0.98,-1.04
27.961,-0.18,-1.32,-0.12,3.09,-4.6,1.7,0.29,-0.98,-1.04
27.973,-0.18,-1.32,-0.12,2.48,-4.34,1.51,0.29,-0.98,-1.04
28.0,-0.18,-1.32,-0.12,0.64,-2.64,1.56,0.29,-0.98,-1.04
28.008,-0.18,-1.32,-0.12,0.64,-2.64,1.56,0.76,-1.09,-2.11
28.021,-0.18,-1.32,-0.12,-0.81,-1.9,1.71,0.76,-1.09,-2.11
28.026,-0.52,-1.14,-0.06,-0.81,-1.9,1.71,0.76,-1.09,-2.11
28.036,-0.52,-1.14,-0.06,-1.52,-2.25,1.0,0.76,-1.09,-2.11
28.055,-0.52,-1.14,-0.06,-1.86,-2.97,0.14,0.76,-1.09,-2.11
28.074,-0.52,-1.14,-0.06,-2.07,-2.98,-0.92,0.76,-1.09,-2.11
28.076,-0.52,-1.14,-0.06,-2.07,-2.98,-0.92,2.06,0.02,-1.57
28.115,-0.55,-1.23,-0.36,-2.07,-2.98,-0.92,2.06,0.02,-1.57
28.116,-0.55,-1.23,-0.36,-2.64,-2.49,-2.46,2.06,0.02,-1.57
28.117,-0.55,-1.23,-0.36,-3.01,-1.25,-3.26,2.06,0.02,-1.57
28.134,-0.55,-1.23,-0.36,-3.54,0.51,-3.59,2.06,0.02,-1.57
28.137,-0.55,-1.23,-0.36,-3.54,0.51,-3.59,1.44,0.05,-0.81
28.153,-0.55,-1.23,-0.36,-3.34,1.78,-3.19,1.44,0.05,-0.81
28.156,-0.59,-0.78,-0.37,-3.34,1.78,-3.19,1.44,0.05,-0.81
28.175,-0.59,-0.78,-0.37,-2.99,2.54,-2.84,1.44,0.05,-0.81
28.197,-0.59,-0.78,-0.37,-2.17,3.01,-2.53,1.44,0.05,-0.81
28.204,-0.59,-0.78,-0.37,-2.17,3.01,-2.53,0.56,-1.37,-0.25
28.22,-0.59,-0.78,-0.37,-1.52,3.43,-2.7,0.56,-1.37,-0.25
28.221,-0.39,-0.62,-0.31,-1.52,3.43,-2.7,0.56,-1.37,-0.25
28.235,-0.39,-0.62,-0.31,-0.91,3.74,-2.56,0.56,-1.37,-0.25
28.254,-0.39,-0.62,-0.31,-0.6,3.9,-2.46,0.56,-1.37,-0.25
28.271,-0.39,-0.62,-0.31,-0.6,3.9,-2.46,0.16,-1.02,-0.29
28.273,-0.39,-0.62,-0.31,-0.37,3.59,-2.2,0.16,-1.02,-0.29
28.305,-0.31,-0.64,-0.26,-0.37,3.59,-2.2,0.16,-1.02,-0.29
28.307,-0.31,-0.64,-0.26,-0.34,3.26,-2.01,0.16,-1.02,-0.29
28.314,-0.31,-0.64,-0.26,-0.34,3.07,-1.71,0.16,-1.02,-0.29
28.333,-0.31,-0.64,-0.26,-0.69,2.75,-1.81,0.16,-1.02,-0.29
28.335,-0.31,-0.64,-0.26,-0.69,2.75,-1.81,0.26,-0.64,-0.71
28.352,-0.36,-0.71,-0.27,-0.69,2.75,-1.81,0.26,-0.64,-0.71
28.355,-0.36,-0.71,-0.27,-0.99,2.61,-1.97,0.26,-0.64,-0.71
28.373,-0.36,-0.71,-0.27,-1.61,2.81,-2.36,0.26,-0.64,-0.71
28.399,-0.36,-0.71,-0.27,-1.97,2.63,-2.5,0.26,-0.64,-0.71
28.401,-0.36,-0.71,-0.27,-1.97,2.63,-2.5,0.31,-0.33,-0.8
28.414,-0.36,-0.71,-0.27,-2.56,2.15,-2.95,0.31,-0.33,-0.8
28.417,-0.51,-0.79,-0.38,-2.56,2.15,-2.95,0.31,-0.33,-0.8
28.433,-0.51,-0.79,-0.38,-2.85,1.05,-3.02,0.31,-0.33,-0.8
28.453,-0.51,-0.79,-0.38,-3.19,-0.15,-2.94,0.31,-0.33,-0.8
28.461,-0.51,-0.79,-0.38,-3.19,-0.15,-2.94,-0.34,-0.62,-0.49
28.475,-0.51,-0.79,-0.38,-3.12,-1.59,-2.42,-0.34,-0.62,-0.49
28.494,-0.56,-1.22,-0.31,-3.12,-1.59,-2.42,-0.34,-0.62,-0.49
28.497,-0.56,-1.22,-0.31,-3.29,-2.51,-1.68,-0.34,-0.62,-0.49
28.513,-0.56,-1.22,-0.31,-3.58,-1.59,-0.66,-0.34,-0.62,-0.49
28.526,-0.56,-1.22,-0.31,-3.58,-1.59,-0.66,-0.72,-0.65,-0.17
28.534,-0.56,-1.22,-0.31,-3.93,-0.69,0.34,-0.72,-0.65,-0.17
28.546,-0.64,-1.1,-0.04,-3.93,-0.69,0.34,-0.72,-0.65,-0.17
28.554,-0.64,-1.1,-0.04,-3.57,-1.68,1.09,-0.72,-0.65,-0.17
28.575,-0.64,-1.1,-0.04,-2.6,-3.11,0.95,-0.72,-0.65,-0.17
28.593,-0.64,-1.1,-0.04,-1.55,-3.09,0.15,-0.72,-0.65,-0.17
28.594,-0.64,-1.1,-0.04,-1.55,-3.09,0.15,0.34,0.1,0.39
28.611,-0.43,-1.24,-0.23,-1.55,-3.09,0.15,0.34,0.1,0.39
28.615,-0.43,-1.24,-0.23,-1.35,-2.67,-0.98,0.34,0.1,0.39
28.634,-0.43,-1.24,-0.23,-1.61,-2.01,-1.73,0.34,0.1,0.39
28.654,-0.43,-1.24,-0.23,-2.07,-1.55,-2.07,0.34,0.1,0.39
28.656,-0.43,-1.24,-0.23,-2.07,-1.55,-2.07,0.04,1.28,0.32
28.675,-0.43,-1.24,-0.23,-2.38,-1.52,-1.73,0.04,1.28,0.32
28.676,-0.57,-1.11,-0.31,-2.38,-1.52,-1.73,0.04,1.28,0.32
28.693,-0.57,-1.11,-0.31,-2.73,-1.67,-1.3,0.04,1.28,0.32
28.714,-0.57,-1.11,-0.31,-2.85,-2.31,-0.85,0.04,1.28,0.32
28.721,-0.57,-1.11,-0.31,-2.85,-2.31,-0.85,-0.59,1.44,0.79
28.734,-0.57,-1.11,-0.31,-3.11,-2.71,-0.54,-0.59,1.44,0.79
28.741,-0.67,-1.19,-0.22,-3.11,-2.71,-0.54,-0.59,1.44,0.79
28.753,-0.67,-1.19,-0.22,-3.02,-2.29,0.15,-0.59,1.44,0.79
28.775,-0.67,-1.19,-0.22,-2.59,-1.85,0.93,-0.59,1.44,0.79
28.806,-0.67,-1.19,-0.22,-2.59,-1.85,0.93,-1.0,0.88,1.51
28.808,-0.67,-1.19,-0.22,-1.7,-1.74,1.45,-1.0,0.88,1.51
28.809,-0.53,-1.06,-0.07,-1.7,-1.74,1.45,-1.0,0.88,1.51
28.816,-0.53,-1.06,-0.07,-0.89,-1.6,1.86,-1.0,0.88,1.51
28.835,-0.53,-1.06,-0.07,-0.28,-1.48,2.07,-1.0,0.88,1.51
28.855,-0.53,-1.06,-0.07,0.1,-1.14,2.25,-1.0,0.88,1.51
28.857,-0.53,-1.06,-0.07,0.1,-1.14,2.25,-0.73,1.41,1.87
28.876,-0.45,-0.91,-0.05,0.1,-1.14,2.25,-0.73,1.41,1.87
28.878,-0.45,-0.91,-0.05,0.37,-0.71,2.38,-0.73,1.41,1.87
28.905,-0.45,-0.91,-0.05,0.7,-0.52,2.64,-0.73,1.41,1.87
28.914,-0.45,-0.91,-0.05,1.11,-0.63,2.9,-0.73,1.41,1.87
28.917,-0.45,-0.91,-0.05,1.11,-0.63,2.9,-0.75,1.56,2.1
28.933,-0.45,-0.91,-0.05,1.73,-0.86,3.32,-0.75,1.56,2.1
28.936,-0.36,-0.87,0.01,1.73,-0.86,3.32,-0.75,1.56,2.1
28.954,-0.36,-0.87,0.01,2.26,-0.73,3.51,-0.75,1.56,2.1
28.975,-0.36,-0.87,0.01,2.89,-0.56,3.84,-0.75,1.56,2.1
28.997,-0.36,-0.87,0.01,2.89,-0.56,3.84,-0.47,1.23,1.82
28.999,-0.36,-0.87,0.01,3.29,-0.18,3.7,-0.47,1.23,1.82
29.004,-0.24,-0.75,0.01,3.29,-0.18,3.7,-0.47,1.23,1.82
29.02,-0.24,-0.75,0.01,3.71,-0.15,3.75,-0.47,1.23,1.82
29.037,-0.24,-0.75,0.01,3.9,-0.0,3.65,-0.47,1.23,1.82
29.053,-0.24,-0.75,0.01,3.9,-0.0,3.65,-0.17,0.89,1.17
29.055,-0.24,-0.75,0.01,4.18,0.0,3.71,-0.17,0.89,1.17
29.066,-0.17,-0.7,-0.02,4.18,0.0,3.71,-0.17,0.89,1.17
29.074,-0.17,-0.7,-0.02,4.37,0.22,3.36,-0.17,0.89,1.17
29.095,-0.17,-0.7,-0.02,4.61,-0.48,3.2,-0.17,0.89,1.17
29.115,-0.17,-0.7,-0.02,4.51,-0.81,3.05,-0.17,0.89,1.17
29.117,-0.17,-0.7,-0.02,4.51,-0.81,3.05,-0.21,0.3,0.16
29.131,-0.14,-0.9,-0.05,4.51,-0.81,3.05,-0.21,0.3,0.16
29.135,-0.14,-0.9,-0.05,4.38,-1.55,3.26,-0.21,0.3,0.16
29.155,-0.14,-0.9,-0.05,3.66,-1.44,3.33,-0.21,0.3,0.16
29.175,-0.14,-0.9,-0.05,3.02,-1.26,3.41,-0.21,0.3,0.16
29.178,-0.14,-0.9,-0.05,3.02,-1.26,3.41,0.05,-0.71,-0.87
29.197,-0.14,-0.9,-0.05,2.51,-0.76,2.94,0.05,-0.71,-0.87
29.199,-0.28,-0.89,-0.04,2.51,-0.76,2.94,0.05,-0.71,-0.87
29.214,-0.28,-0.89,-0.04,2.67,-1.11,2.27,0.05,-0.71,-0.87
29.234,-0.28,-0.89,-0.04,2.74,-1.79,1.38,0.05,-0.71,-0.87
29.241,-0.28,-0.89,-0.04,2.74,-1.79,1.38,0.5,-0.85,-1.49
29.254,-0.28,-0.89,-0.04,2.67,-3.29,0.71,0.5,-0.85,-1.49
29.261,-0.22,-1.25,-0.23,2.67,-3.29,0.71,0.5,-0.85,-1.49
29.275,-0.22,-1.25,-0.23,1.66,-4.1,0.17,0.5,-0.85,-1.49
29.298,-0.22,-1.25,-0.23,0.22,-3.94,0.19,0.5,-0.85,-1.49
29.306,-0.22,-1.25,-0.23,0.22,-3.94,0.19,0.42,-1.1,-2.44
29.32,-0.22,-1.25,-0.23,-1.27,-2.94,0.6,0.42,-1.1,-2.44
29.326,-0.54,-1.2,-0.12,-1.27,-2.94,0.6,0.42,-1.1,-2.44
29.335,-0.54,-1.2,-0.12,-2.38,-2.37,0.85,0.42,-1.1,-2.44
29.354,-0.54,-1.2,-0.12,-2.87,-2.37,0.56,0.42,-1.1,-2.44
29.373,-0.54,-1.2,-0.12,-3.17,-2.84,-0.15,0.42,-1.1,-2.44
29.375,-0.54,-1.2,-0.12,-3.17,-2.84,-0.15,1.14,-0.73,-1.85
29.404,-0.57,-1.26,-0.27,-3.17,-2.84,-0.15,1.14,-0.73,-1.85
29.406,-0.57,-1.26,-0.27,-3.29,-2.7,-1.27,1.14,-0.73,-1.85
29.414,-0.57,-1.26,-0.27,-3.8,-1.88,-2.2,1.14,-0.73,-1.85
29.434,-0.57,-1.26,-0.27,-4.21,-0.45,-2.72,1.14,-0.73,-1.85
29.437,-0.57,-1.26,-0.27,-4.21,-0.45,-2.72,1.21,0.06,-1.0
29.454,-0.57,-1.26,-0.27,-4.77,1.12,-2.71,1.21,0.06,-1.0
29.456,-0.67,-0.85,-0.36,-4.77,1.12,-2.71,1.21,0.06,-1.0
29.474,-0.67,-0.85,-0.36,-4.36,2.08,-2.17,1.21,0.06,-1.0
29.502,-0.67,-0.85,-0.36,-3.71,2.74,-1.8,1.21,0.06,-1.0
29.504,-0.67,-0.85,-0.36,-3.71,2.74,-1.8,0.28,-1.64,-0.04
29.514,-0.67,-0.85,-0.36,-2.6,3.24,-1.61,0.28,-1.64,-0.04
29.521,-0.44,-0.64,-0.26,-2.6,3.24,-1.61,0.28,-1.64,-0.04
29.533,-0.44,-0.64,-0.26,-1.75,3.64,-1.7,0.28,-1.64,-0.04
29.554,-0.44,-0.64,-0.26,-0.89,3.94,-1.63,0.28,-1.64,-0.04
29.57,-0.44,-0.64,-0.26,-0.89,3.94,-1.63,0.14,-1.39,0.1
29.573,-0.44,-0.64,-0.26,-0.41,4.17,-1.63,0.14,-1.39,0.1
29.593,-0.28,-0.56,-0.25,-0.41,4.17,-1.63,0.14,-1.39,0.1
29.595,-0.28,-0.56,-0.25,-0.08,4.03,-1.44,0.14,-1.39,0.1
29.613,-0.28,-0.56,-0.25,-0.07,3.76,-1.36,0.14,-1.39,0.1
29.634,-0.28,-0.56,-0.25,-0.25,3.18,-1.25,0.14,-1.39,0.1
29.636,-0.28,-0.56,-0.25,-0.25,3.18,-1.25,0.05,-0.85,-0.33
29.652,-0.35,-0.68,-0.24,-0.25,3.18,-1.25,0.05,-0.85,-0.33
29.656,-0.35,-0.68,-0.24,-0.78,2.9,-1.31,0.05,-0.85,-0.33
29.673,-0.35,-0.68,-0.24,-1.21,2.71,-1.33,0.05,-0.85,-0.33
29.696,-0.35,-0.68,-0.24,-1.67,2.34,-1.21,0.05,-0.85,-0.33
29.697,-0.35,-0.68,-0.24,-1.67,2.34,-1.21,-0.15,-1.22,-0.49
29.714,-0.35,-0.68,-0.24,-1.68,1.99,-0.83,-0.15,-1.22,-0.49
29.716,-0.46,-0.78,-0.2,-1.68,1.99,-0.83,-0.15,-1.22,-0.49
29.735,-0.46,-0.78,-0.2,-1.74,1.34,-0.94,-0.15,-1.22,-0.49
29.753,-0.46,-0.78,-0.2,-1.69,0.72,-1.23,-0.15,-1.22,-0.49
29.77,-0.46,-0.78,-0.2,-1.69,0.72,-1.23,0.01,-1.32,-0.42
29.774,-0.46,-0.78,-0.2,-1.71,-0.2,-1.74,0.01,-1.32,-0.42
29.802,-0.45,-1.06,-0.31,-1.71,-0.2,-1.74,0.01,-1.32,-0.42
29.804,-0.45,-1.06,-0.31,-1.63,-1.71,-2.05,0.01,-1.32,-0.42
29.815,-0.45,-1.06,-0.31,-1.88,-2.8,-2.13,0.01,-1.32,-0.42
29.826,-0.45,-1.06,-0.31,-1.88,-2.8,-2.13,-0.19,-0.84,-0.6
29.834,-0.45,-1.06,-0.31,-2.66,-2.09,-1.49,-0.19,-0.84,-0.6
29.846,-0.61,-1.09,-0.22,-2.66,-2.09,-1.49,-0.19,-0.84,-0.6
29.853,-0.61,-1.09,-0.22,-3.49,-1.04,-0.95,-0.19,-0.84,-0.6
29.873,-0.61,-1.09,-0.22,-3.38,-1.48,-0.46,-0.19,-0.84,-0.6
29.894,-0.61,-1.09,-0.22,-2.2,-2.29,-0.5,-0.19,-0.84,-0.6
29.897,-0.61,-1.09,-0.22,-2.2,-2.29,-0.5,-0.05,-1.13,-0.07
29.911,-0.42,-1.27,-0.25,-2.2,-2.29,-0.5,-0.05,-1.13,-0.07
29.914,-0.42,-1.27,-0.25,-1.26,-2.92,-1.33,-0.05,-1.13,-0.07
29.935,-0.42,-1.27,-0.25,-1.62,-3.11,-2.22,-0.05,-1.13,-0.07
29.953,-0.42,-1.27,-0.25,-2.36,-2.75,-2.23,-0.05,-1.13,-0.07
29.956,-0.42,-1.27,-0.25,-2.36,-2.75,-2.23,-0.02,0.26,-0.32
29.975,-0.42,-1.27,-0.25,-2.98,-2.18,-1.77,-0.02,0.26,-0.32
29.977,-0.59,-1.18,-0.28,-2.98,-2.18,-1.77,-0.02,0.26,-0.32
30.0,-0.59,-1.18,-0.28,-3.29,-1.74,-1.24,-0.02,0.26,-0.32
30.014,-0.59,-1.18,-0.28,-3.75,-1.21,-1.19,-0.02,0.26,-0.32
30.025,-0.59,-1.18,-0.28,-3.75,-1.21,-1.19,0.22,1.59,0.41
30.033,-0.59,-1.18,-0.28,-3.83,-0.75,-1.3,0.22,1.59,0.41
30.04,-0.67,-1.02,-0.31,-3.83,-0.75,-1.3,0.22,1.59,0.41
30.055,-0.67,-1.02,-0.31,-3.23,-0.52,-1.93,0.22,1.59,0.41
30.075,-0.67,-1.02,-0.31,-2.04,-0.68,-1.97,0.22,1.59,0.41
30.092,-0.67,-1.02,-0.31,-2.04,-0.68,-1.97,-0.25,2.72,1.32
30.095,-0.67,-1.02,-0.31,-1.76,-0.98,-1.89,-0.25,2.72,1.32
30.106,-0.55,-1.05,-0.33,-1.76,-0.98,-1.89,-0.25,2.72,1.32
30.115,-0.55,-1.05,-0.33,-1.88,-1.14,-1.0,-0.25,2.72,1.32
30.135,-0.55,-1.05,-0.33,-2.06,-0.97,-0.14,-0.25,2.72,1.32
30.155,-0.55,-1.05,-0.33,-1.61,-1.12,0.74,-0.25,2.72,1.32
30.156,-0.55,-1.05,-0.33,-1.61,-1.12,0.74,-1.27,1.57,1.65
30.171,-0.51,-1.01,-0.12,-1.61,-1.12,0.74,-1.27,1.57,1.65
30.174,-0.51,-1.01,-0.12,-0.91,-1.25,1.68,-1.27,1.57,1.65
30.193,-0.51,-1.01,-0.12,-0.23,-1.3,2.39,-1.27,1.57,1.65
30.214,-0.51,-1.01,-0.12,0.4,-1.32,2.91,-1.27,1.57,1.65
30.216,-0.51,-1.01,-0.12,0.4,-1.32,2.91,-1.46,0.36,1.71
30.234,-0.51,-1.01,-0.12,0.96,-1.13,3.07,-1.46,0.36,1.71
30.237,-0.38,-0.94,-0.02,0.96,-1.13,3.07,-1.46,0.36,1.71
30.255,-0.38,-0.94,-0.02,1.5,-0.95,3.37,-1.46,0.36,1.71
30.275,-0.38,-0.94,-0.02,1.98,-0.59,3.33,-1.46,0.36,1.71
30.291,-0.38,-0.94,-0.02,1.98,-0.59,3.33,-1.1,0.59,1.63
30.298,-0.38,-0.94,-0.02,2.45,-0.41,3.65,-1.1,0.59,1.63
30.301,-0.28,-0.79,0.0,2.45,-0.41,3.65,-1.1,0.59,1.63
30.314,-0.28,-0.79,0.0,2.74,-0.02,3.67,-1.1,0.59,1.63
30.335,-0.28,-0.79,0.0,3.06,0.09,4.14,-1.1,0.59,1.63
30.347,-0.28,-0.79,0.0,3.06,0.09,4.14,-0.67,1.09,1.36
30.354,-0.28,-0.79,0.0,3.23,0.47,4.2,-0.67,1.09,1.36
30.367,-0.23,-0.67,0.06,3.23,0.47,4.2,-0.67,1.09,1.36
30.374,-0.23,-0.67,0.06,3.45,0.67,4.67,-0.67,1.09,1.36
30.394,-0.23,-0.67,0.06,3.63,0.93,4.35,-0.67,1.09,1.36
30.414,-0.23,-0.67,0.06,4.07,0.48,4.2,-0.67,1.09,1.36
30.416,-0.23,-0.67,0.06,4.07,0.48,4.2,-0.11,0.57,0.74
30.432,-0.15,-0.75,-0.01,4.07,0.48,4.2,-0.11,0.57,0.74
30.434,-0.15,-0.75,-0.01,4.13,-0.01,3.65,-0.11,0.57,0.74
30.453,-0.15,-0.75,-0.01,3.96,-0.85,3.54,-0.11,0.57,0.74
30.473,-0.15,-0.75,-0.01,3.37,-0.94,3.17,-0.11,0.57,0.74
30.476,-0.15,-0.75,-0.01,3.37,-0.94,3.17,0.27,0.16,-0.26
30.494,-0.15,-0.75,-0.01,3.06,-0.98,3.02,0.27,0.16,-0.26
30.496,-0.25,-0.88,-0.06,3.06,-0.98,3.02,0.27,0.16,-0.26
30.513,-0.25,-0.88,-0.06,2.51,-0.87,2.51,0.27,0.16,-0.26
30.533,-0.25,-0.88,-0.06,2.25,-1.48,1.83,0.27,0.16,-0.26
30.541,-0.25,-0.88,-0.06,2.25,-1.48,1.83,0.67,-0.43,-1.13
30.554,-0.25,-0.88,-0.06,1.85,-2.89,0.89,0.67,-0.43,-1.13
30.567,-0.3,-1.19,-0.23,1.85,-2.89,0.89,0.67,-0.43,-1.13
30.574,-0.3,-1.19,-0.23,1.47,-3.46,0.37,0.67,-0.43,-1.13
30.594,-0.3,-1.19,-0.23,0.58,-3.92,0.1,0.67,-0.43,-1.13
30.607,-0.3,-1.19,-0.23,0.58,-3.92,0.1,0.27,-1.12,-2.08
30.614,-0.3,-1.19,-0.23,-0.66,-4.07,0.23,0.27,-1.12,-2.08
30.628,-0.55,-1.23,-0.17,-0.66,-4.07,0.23,0.27,-1.12,-2.08
30.633,-0.55,-1.23,-0.17,-1.93,-2.67,0.7,0.27,-1.12,-2.08
30.654,-0.55,-1.23,-0.17,-2.81,-1.71,1.23,0.27,-1.12,-2.08
30.675,-0.55,-1.23,-0.17,-2.72,-1.43,1.31,0.27,-1.12,-2.08
30.676,-0.55,-1.23,-0.17,-2.72,-1.43,1.31,0.22,-1.98,-1.63
30.691,-0.54,-1.15,-0.06,-2.72,-1.43,1.31,0.22,-1.98,-1.63
30.695,-0.54,-1.15,-0.06,-2.34,-1.92,1.27,0.22,-1.98,-1.63
30.714,-0.54,-1.15,-0.06,-1.82,-2.14,0.34,0.22,-1.98,-1.63
30.733,-0.54,-1.15,-0.06,-1.7,-1.82,-0.59,0.22,-1.98,-1.63
30.736,-0.54,-1.15,-0.06,-1.7,-1.82,-0.59,1.26,-0.5,-1.17
30.754,-0.54,-1.15,-0.06,-2.05,-0.92,-1.21,1.26,-0.5,-1.17
30.756,-0.48,-1.04,-0.26,-2.05,-0.92,-1.21,1.26,-0.5,-1.17
30.775,-0.48,-1.04,-0.26,-2.61,0.32,-1.68,1.26,-0.5,-1.17
30.793,-0.48,-1.04,-0.26,-2.85,1.41,-2.15,1.26,-0.5,-1.17
30.802,-0.48,-1.04,-0.26,-2.85,1.41,-2.15,1.45,-0.08,-0.65
30.814,-0.48,-1.04,-0.26,-3.04,2.3,-2.66,1.45,-0.08,-0.65
30.821,-0.53,-0.71,-0.36,-3.04,2.3,-2.66,1.45,-0.08,-0.65
30.834,-0.53,-0.71,-0.36,-2.61,3.06,-2.71,1.45,-0.08,-0.65
30.853,-0.53,-0.71,-0.36,-2.01,3.57,-2.81,1.45,-0.08,-0.65
30.875,-0.53,-0.71,-0.36,-2.01,3.57,-2.81,0.82,-0.93,-0.04
30.878,-0.53,-0.71,-0.36,-1.01,3.88,-2.76,0.82,-0.93,-0.04
30.902,-0.32,-0.58,-0.35,-1.01,3.88,-2.76,0.82,-0.93,-0.04
30.904,-0.32,-0.58,-0.35,-0.36,3.98,-2.95,0.82,-0.93,-0.04
30.913,-0.32,-0.58,-0.35,-0.0,3.86,-2.71,0.82,-0.93,-0.04
30.933,-0.32,-0.58,-0.35,-0.21,3.93,-2.76,0.82,-0.93,-0.04
30.935,-0.32,-0.58,-0.35,-0.21,3.93,-2.76,0.43,-0.74,-0.44
30.951,-0.33,-0.59,-0.33,-0.21,3.93,-2.76,0.43,-0.74,-0.44
30.953,-0.33,-0.59,-0.33,-0.5,3.83,-2.6,0.43,-0.74,-0.44
30.973,-0.33,-0.59,-0.33,-0.83,3.66,-2.59,0.43,-0.74,-0.44
30.994,-0.33,-0.59,-0.33,-1.04,2.99,-2.41,0.43,-0.74,-0.44
30.997,-0.33,-0.59,-0.33,-1.04,2.99,-2.41,0.14,-0.82,-0.67
31.015,-0.33,-0.59,-0.33,-1.61,2.78,-2.4,0.14,-0.82,-0.67
31.016,-0.44,-0.7,-0.31,-1.61,2.78,-2.4,0.14,-0.82,-0.67
31.034,-0.44,-0.7,-0.31,-1.94,2.71,-2.14,0.14,-0.82,-0.67
31.053,-0.44,-0.7,-0.31,-2.21,2.34,-2.07,0.14,-0.82,-0.67
31.061,-0.44,-0.7,-0.31,-2.21,2.34,-2.07,-0.07,-0.94,-0.5
31.074,-0.44,-0.7,-0.31,-1.91,1.14,-1.89,-0.07,-0.94,-0.5
31.085,-0.46,-0.96,-0.29,-1.91,1.14,-1.89,-0.07,-0.94,-0.5
31.105,-0.46,-0.96,-0.29,-1.83,-1.04,-2.24,-0.07,-0.94,-0.5
31.114,-0.46,-0.96,-0.29,-2.12,-3.05,-2.65,-0.07,-0.94,-0.5
31.128,-0.46,-0.96,-0.29,-2.12,-3.05,-2.65,-0.11,-0.32,-0.67
31.135,-0.46,-0.96,-0.29,-3.18,-3.67,-2.87,-0.11,-0.32,-0.67
31.147,-0.66,-1.26,-0.34,-3.18,-3.67,-2.87,-0.11,-0.32,-0.67
31.155,-0.66,-1.26,-0.34,-4.17,-2.31,-2.16,-0.11,-0.32,-0.67
31.175,-0.66,-1.26,-0.34,-5.0,-1.58,-1.28,-0.11,-0.32,-0.67
31.194,-0.66,-1.26,-0.34,-4.35,-2.89,-0.22,-0.11,-0.32,-0.67
31.197,-0.66,-1.26,-0.34,-4.35,-2.89,-0.22,-0.65,-1.09,0.26
31.211,-0.58,-1.34,-0.14,-4.35,-2.89,-0.22,-0.65,-1.09,0.26
31.215,-0.58,-1.34,-0.14,-2.91,-3.61,-0.08,-0.65,-1.09,0.26
31.235,-0.58,-1.34,-0.14,-1.71,-3.43,-0.98,-0.65,-1.09,0.26
31.254,-0.58,-1.34,-0.14,-1.46,-2.72,-1.95,-0.65,-1.09,0.26
31.257,-0.58,-1.34,-0.14,-1.46,-2.72,-1.95,-0.04,-0.11,0.3
31.275,-0.58,-1.34,-0.14,-1.67,-1.68,-2.18,-0.04,-0.11,0.3
31.276,-0.5,-1.11,-0.36,-1.67,-1.68,-2.18,-0.04,-0.11,0.3
31.295,-0.5,-1.11,-0.36,-2.1,-1.35,-1.76,-0.04,-0.11,0.3
31.315,-0.5,-1.11,-0.36,-2.39,-2.18,-1.05,-0.04,-0.11,0.3
31.321,-0.5,-1.11,-0.36,-2.39,-2.18,-1.05,-0.42,1.53,0.73
31.334,-0.5,-1.11,-0.36,-2.67,-2.76,-0.56,-0.42,1.53,0.73
31.341,-0.63,-1.24,-0.23,-2.67,-2.76,-0.56,-0.42,1.53,0.73
31.354,-0.63,-1.24,-0.23,-2.63,-3.12,-0.34,-0.42,1.53,0.73
31.375,-0.63,-1.24,-0.23,-2.45,-3.15,-0.2,-0.42,1.53,0.73
31.392,-0.63,-1.24,-0.23,-2.45,-3.15,-0.2,-0.69,1.68,1.35
31.4,-0.63,-1.24,-0.23,-2.01,-2.85,0.08,-0.69,1.68,1.35
31.407,-0.59,-1.16,-0.2,-2.01,-2.85,0.08,-0.69,1.68,1.35
31.42,-0.59,-1.16,-0.2,-1.76,-2.46,0.58,-0.69,1.68,1.35
31.435,-0.59,-1.16,-0.2,-1.31,-2.04,1.13,-0.69,1.68,1.35
31.454,-0.59,-1.16,-0.2,-0.78,-1.97,1.7,-0.69,1.68,1.35
31.455,-0.59,-1.16,-0.2,-0.78,-1.97,1.7,-1.07,1.71,1.95
31.472,-0.47,-1.03,-0.09,-0.78,-1.97,1.7,-1.07,1.71,1.95
31.475,-0.47,-1.03,-0.09,-0.08,-1.76,2.18,-1.07,1.71,1.95
31.495,-0.47,-1.03,-0.09,0.44,-1.69,2.71,-1.07,1.71,1.95
31.513,-0.47,-1.03,-0.09,0.94,-1.55,3.03,-1.07,1.71,1.95
31.518,-0.47,-1.03,-0.09,0.94,-1.55,3.03,-1.17,1.44,2.0
31.534,-0.47,-1.03,-0.09,1.41,-1.47,3.45,-1.17,1.44,2.0
31.536,-0.37,-0.94,-0.02,1.41,-1.47,3.45,-1.17,1.44,2.0
31.553,-0.37,-0.94,-0.02,1.82,-1.23,3.69,-1.17,1.44,2.0
31.574,-0.37,-0.94,-0.02,2.31,-1.24,4.06,-1.17,1.44,2.0
31.581,-0.37,-0.94,-0.02,2.31,-1.24,4.06,-1.1,1.02,1.69
31.598,-0.37,-0.94,-0.02,2.59,-0.82,4.27,-1.1,1.02,1.69
31.601,-0.28,-0.81,0.04,2.59,-0.82,4.27,-1.1,1.02,1.69
31.614,-0.28,-0.81,0.04,2.86,-0.59,4.67,-1.1,1.02,1.69
31.634,-0.28,-0.81,0.04,3.05,-0.11,4.68,-1.1,1.02,1.69
31.647,-0.28,-0.81,0.04,3.05,-0.11,4.68,-0.76,0.61,1.24
31.654,-0.28,-0.81,0.04,3.32,-0.09,4.91,-0.76,0.61,1.24
31.667,-0.23,-0.7,0.07,3.32,-0.09,4.91,-0.76,0.61,1.24
31.674,-0.23,-0.7,0.07,3.54,0.3,4.78,-0.76,0.61,1.24
31.695,-0.23,-0.7,0.07,3.82,0.53,4.9,-0.76,0.61,1.24
31.713,-0.23,-0.7,0.07,3.77,0.81,4.23,-0.76,0.61,1.24
31.714,-0.23,-0.7,0.07,3.77,0.81,4.23,-0.18,0.31,0.76
31.731,-0.2,-0.68,-0.03,3.77,0.81,4.23,-0.18,0.31,0.76
31.733,-0.2,-0.68,-0.03,3.95,0.28,3.72,-0.18,0.31,0.76
31.753,-0.2,-0.68,-0.03,4.05,0.27,3.26,-0.18,0.31,0.76
31.773,-0.2,-0.68,-0.03,4.43,-0.35,3.14,-0.18,0.31,0.76
31.783,-0.2,-0.68,-0.03,4.43,-0.35,3.14,-0.02,-0.08,0.11
31.803,-0.2,-0.68,-0.03,4.44,-0.84,3.12,-0.02,-0.08,0.11
31.804,-0.12,-0.86,-0.05,4.44,-0.84,3.12,-0.02,-0.08,0.11
31.813,-0.12,-0.86,-0.05,4.37,-1.37,3.55,-0.02,-0.08,0.11
31.833,-0.12,-0.86,-0.05,3.8,-0.82,3.39,-0.02,-0.08,0.11
31.841,-0.12,-0.86,-0.05,3.8,-0.82,3.39,0.4,-1.08,-1.14
31.853,-0.12,-0.86,-0.05,3.49,-0.43,2.93,0.4,-1.08,-1.14
31.861,-0.17,-0.87,-0.06,3.49,-0.43,2.93,0.4,-1.08,-1.14
31.873,-0.17,-0.87,-0.06,3.23,-0.76,1.93,0.4,-1.08,-1.14
31.893,-0.17,-0.87,-0.06,3.27,-1.96,1.27,0.4,-1.08,-1.14
31.906,-0.17,-0.87,-0.06,3.27,-1.96,1.27,0.75,-1.17,-2.45
31.913,-0.17,-0.87,-0.06,2.59,-3.63,0.58,0.75,-1.17,-2.45
31.926,-0.22,-1.38,-0.2,2.59,-3.63,0.58,0.75,-1.17,-2.45
31.933,-0.22,-1.38,-0.2,1.13,-4.7,0.13,0.75,-1.17,-2.45
31.953,-0.22,-1.38,-0.2,-0.95,-4.67,-0.15,0.75,-1.17,-2.45
31.973,-0.22,-1.38,-0.2,-2.84,-4.16,0.02,0.75,-1.17,-2.45
31.974,-0.22,-1.38,-0.2,-2.84,-4.16,0.02,0.87,-1.2,-3.48
31.991,-0.62,-1.41,-0.15,-2.84,-4.16,0.02,0.87,-1.2,-3.48
31.994,-0.62,-1.41,-0.15,-4.09,-4.2,-0.07,0.87,-1.2,-3.48
32.013,-0.62,-1.41,-0.15,-4.95,-4.79,-0.33,0.87,-1.2,-3.48
32.033,-0.62,-1.41,-0.15,-5.69,-5.14,-1.6,0.87,-1.2,-3.48
32.036,-0.62,-1.41,-0.15,-5.69,-5.14,-1.6,2.02,-0.01,-2.78
32.053,-0.62,-1.41,-0.15,-6.96,-4.42,-3.24,2.02,-0.01,-2.78
32.056,-0.8,-1.41,-0.45,-6.96,-4.42,-3.24,2.02,-0.01,-2.78
32.073,-0.8,-1.41,-0.45,-7.96,-2.3,-4.37,2.02,-0.01,-2.78
32.093,-0.8,-1.41,-0.45,-8.76,0.12,-4.51,2.02,-0.01,-2.78
32.101,-0.8,-1.41,-0.45,-8.76,0.12,-4.51,1.13,-0.18,-0.67
32.113,-0.8,-1.41,-0.45,-7.84,1.76,-3.75,1.13,-0.18,-0.67
32.12,-0.77,-0.81,-0.37,-7.84,1.76,-3.75,1.13,-0.18,-0.67
32.133,-0.77,-0.81,-0.37,-6.35,2.12,-3.08,1.13,-0.18,-0.67
32.153,-0.77,-0.81,-0.37,-4.7,2.49,-2.51,1.13,-0.18,-0.67
32.166,-0.77,-0.81,-0.37,-4.7,2.49,-2.51,0.28,-1.25,0.55
32.173,-0.77,-0.81,-0.37,-3.59,2.77,-2.09,0.28,-1.25,0.55
32.186,-0.41,-0.72,-0.24,-3.59,2.77,-2.09,0.28,-1.25,0.55
32.197,-0.41,-0.72,-0.24,-2.64,2.83,-1.94,0.28,-1.25,0.55
32.213,-0.41,-0.72,-0.24,-2.37,3.41,-2.1,0.28,-1.25,0.55
32.233,-0.41,-0.72,-0.24,-1.93,3.91,-1.91,0.28,-1.25,0.55
32.234,-0.41,-0.72,-0.24,-1.93,3.91,-1.91,0.26,-0.9,0.62
32.251,-0.34,-0.57,-0.23,-1.93,3.91,-1.91,0.26,-0.9,0.62
32.253,-0.34,-0.57,-0.23,-1.44,4.18,-1.91,0.26,-0.9,0.62
32.273,-0.34,-0.57,-0.23,-0.74,4.25,-1.76,0.26,-0.9,0.62
32.293,-0.34,-0.57,-0.23,-0.22,4.14,-1.95,0.26,-0.9,0.62
32.296,-0.34,-0.57,-0.23,-0.22,4.14,-1.95,0.11,-1.15,0.33
32.313,-0.34,-0.57,-0.23,0.16,3.83,-1.99,0.11,-1.15,0.33
32.315,-0.24,-0.6,-0.27,0.16,3.83,-1.99,0.11,-1.15,0.33
32.333,-0.24,-0.6,-0.27,-0.01,3.63,-2.3,0.11,-1.15,0.33
32.353,-0.24,-0.6,-0.27,-0.53,3.94,-1.98,0.11,-1.15,0.33
32.361,-0.24,-0.6,-0.27,-0.53,3.94,-1.98,-0.27,-1.15,-0.23
32.373,-0.24,-0.6,-0.27,-0.92,3.71,-1.58,-0.27,-1.15,-0.23
32.381,-0.37,-0.64,-0.22,-0.92,3.71,-1.58,-0.27,-1.15,-0.23
32.397,-0.37,-0.64,-0.22,-0.76,2.62,-1.09,-0.27,-1.15,-0.23
32.413,-0.37,-0.64,-0.22,-0.81,0.74,-1.07,-0.27,-1.15,-0.23
32.426,-0.37,-0.64,-0.22,-0.81,0.74,-1.07,-0.26,-1.02,-0.57
32.433,-0.37,-0.64,-0.22,-1.03,-1.33,-1.25,-0.26,-1.02,-0.57
32.446,-0.42,-1.21,-0.25,-1.03,-1.33,-1.25,-0.26,-1.02,-0.57
32.453,-0.42,-1.21,-0.25,-1.6,-2.47,-1.51,-0.26,-1.02,-0.57
32.473,-0.42,-1.21,-0.25,-2.66,-2.23,-1.27,-0.26,-1.02,-0.57
32.493,-0.42,-1.21,-0.25,-4.08,-1.64,-0.86,-0.26,-1.02,-0.57
32.494,-0.42,-1.21,-0.25,-4.08,-1.64,-0.86,-0.33,-0.34,-0.72
32.511,-0.76,-1.22,-0.16,-4.08,-1.64,-0.86,-0.33,-0.34,-0.72
32.514,-0.76,-1.22,-0.16,-4.88,-2.4,-0.44,-0.33,-0.34,-0.72
32.533,-0.76,-1.22,-0.16,-4.75,-3.97,-0.23,-0.33,-0.34,-0.72
32.553,-0.76,-1.22,-0.16,-3.37,-4.31,-0.62,-0.33,-0.34,-0.72
32.556,-0.76,-1.22,-0.16,-3.37,-4.31,-0.62,0.24,-0.5,0.5
32.573,-0.76,-1.22,-0.16,-2.53,-2.95,-1.51,0.24,-0.5,0.5
32.582,-0.54,-1.25,-0.28,-2.53,-2.95,-1.51,0.24,-0.5,0.5
32.608,-0.54,-1.25,-0.28,-2.03,-2.29,-2.04,0.24,-0.5,0.5
32.615,-0.54,-1.25,-0.28,-1.43,-1.97,-2.04,0.24,-0.5,0.5
32.621,-0.54,-1.25,-0.28,-1.43,-1.97,-2.04,0.01,0.63,0.75
32.633,-0.54,-1.25,-0.28,-0.84,-2.39,-1.79,0.01,0.63,0.75
32.646,-0.4,-1.21,-0.3,-0.84,-2.39,-1.79,0.01,0.63,0.75
32.653,-0.4,-1.21,-0.3,-0.74,-2.74,-1.95,0.01,0.63,0.75
32.673,-0.4,-1.21,-0.3,-1.59,-3.04,-2.13,0.01,0.63,0.75
32.686,-0.4,-1.21,-0.3,-1.59,-3.04,-2.13,-0.27,1.96,0.73
32.693,-0.4,-1.21,-0.3,-2.61,-2.6,-2.11,-0.27,1.96,0.73
32.705,-0.65,-1.15,-0.32,-2.61,-2.6,-2.11,-0.27,1.96,0.73
32.713,-0.65,-1.15,-0.32,-2.8,-2.0,-1.26,-0.27,1.96,0.73
32.733,-0.65,-1.15,-0.32,-2.23,-1.62,-0.09,-0.27,1.96,0.73
32.753,-0.65,-1.15,-0.32,-1.18,-1.59,0.91,-0.27,1.96,0.73
32.754,-0.65,-1.15,-0.32,-1.18,-1.59,0.91,-1.04,1.34,1.43
32.771,-0.45,-1.09,-0.1,-1.18,-1.59,0.91,-1.04,1.34,1.43
32.781,-0.45,-1.09,-0.1,-0.4,-1.87,1.43,-1.04,1.34,1.43
32.8,-0.45,-1.09,-0.1,-0.11,-2.68,1.46,-1.04,1.34,1.43
32.813,-0.45,-1.09,-0.1,-0.25,-1.63,1.85,-1.04,1.34,1.43
32.816,-0.45,-1.09,-0.1,-0.25,-1.63,1.85,-1.0,1.31,1.37
32.833,-0.45,-1.09,-0.1,-0.21,-0.87,2.18,-1.0,1.31,1.37
32.835,-0.47,-0.94,-0.06,-0.21,-0.87,2.18,-1.0,1.31,1.37
32.853,-0.47,-0.94,-0.06,0.11,-0.46,2.8,-1.0,1.31,1.37
32.881,-0.47,-0.94,-0.06,0.78,-0.18,3.25,-1.0,1.31,1.37
32.882,-0.47,-0.94,-0.06,0.78,-0.18,3.25,-1.1,1.18,1.65
32.901,-0.47,-0.94,-0.06,1.48,-0.18,3.62,-1.1,1.18,1.65
32.902,-0.31,-0.82,0.04,1.48,-0.18,3.62,-1.1,1.18,1.65
32.913,-0.31,-0.82,0.04,2.09,-0.01,3.89,-1.1,1.18,1.65
32.933,-0.31,-0.82,0.04,2.42,0.15,4.1,-1.1,1.18,1.65
32.946,-0.31,-0.82,0.04,2.42,0.15,4.1,-0.65,1.44,1.16
32.953,-0.31,-0.82,0.04,2.27,0.4,3.87,-0.65,1.44,1.16
32.966,-0.32,-0.74,0.02,2.27,0.4,3.87,-0.65,1.44,1.16
32.973,-0.32,-0.74,0.02,1.99,0.32,4.12,-0.65,1.44,1.16
32.993,-0.32,-0.74,0.02,2.05,0.44,4.2,-0.65,1.44,1.16
33.013,-0.32,-0.74,0.02,2.27,0.39,4.53,-0.65,1.44,1.16
33.015,-0.32,-0.74,0.02,2.27,0.39,4.53,-0.51,1.16,0.92
33.031,-0.29,-0.7,0.06,2.27,0.39,4.53,-0.51,1.16,0.92
33.033,-0.29,-0.7,0.06,2.44,0.63,4.45,-0.51,1.16,0.92
33.053,-0.29,-0.7,0.06,2.62,0.45,4.63,-0.51,1.16,0.92
33.079,-0.29,-0.7,0.06,2.77,0.3,4.33,-0.51,1.16,0.92
33.081,-0.29,-0.7,0.06,2.77,0.3,4.33,-0.18,0.41,0.46
33.097,-0.29,-0.7,0.06,2.91,-0.15,4.14,-0.18,0.41,0.46
33.098,-0.24,-0.79,0.02,2.91,-0.15,4.14,-0.18,0.41,0.46
33.113,-0.24,-0.79,0.02,2.75,-0.31,3.66,-0.18,0.41,0.46
33.133,-0.24,-0.79,0.02,2.63,-0.77,3.58,-0.18,0.41,0.46
33.142,-0.24,-0.79,0.02,2.63,-0.77,3.58,0.18,-0.31,-0.16
33.153,-0.24,-0.79,0.02,2.51,-0.78,3.33,0.18,-0.31,-0.16
33.161,-0.25,-0.9,0.0,2.51,-0.78,3.33,0.18,-0.31,-0.16
33.179,-0.25,-0.9,0.0,2.8,-0.97,3.3,0.18,-0.31,-0.16
33.197,-0.25,-0.9,0.0,2.97,-1.09,2.85,0.18,-0.31,-0.16
33.206,-0.25,-0.9,0.0,2.97,-1.09,2.85,0.79,-0.65,-0.96
33.213,-0.25,-0.9,0.0,3.19,-2.18,2.12,0.79,-0.65,-0.96
33.226,-0.15,-1.2,-0.1,3.19,-2.18,2.12,0.79,-0.65,-0.96
33.233,-0.15,-1.2,-0.1,2.78,-3.42,1.29,0.79,-0.65,-0.96
33.253,-0.15,-1.2,-0.1,1.95,-4.04,0.59,0.79,-0.65,-0.96
33.28,-0.15,-1.2,-0.1,0.36,-3.55,0.2,0.79,-0.65,-0.96
33.282,-0.15,-1.2,-0.1,0.36,-3.55,0.2,1.28,-0.54,-2.32
33.3,-0.46,-1.19,-0.15,0.36,-3.55,0.2,1.28,-0.54,-2.32
33.302,-0.46,-1.19,-0.15,-1.3,-2.33,0.1,1.28,-0.54,-2.32
33.313,-0.46,-1.19,-0.15,-2.52,-2.15,-0.34,1.28,-0.54,-2.32
33.333,-0.46,-1.19,-0.15,-3.45,-2.66,-1.12,1.28,-0.54,-2.32
33.336,-0.46,-1.19,-0.15,-3.45,-2.66,-1.12,1.76,-0.21,-2.02
33.353,-0.46,-1.19,-0.15,-3.96,-2.67,-1.92,1.76,-0.21,-2.02
33.356,-0.64,-1.26,-0.28,-3.96,-2.67,-1.92,1.76,-0.21,-2.02
33.379,-0.64,-1.26,-0.28,-4.43,-2.57,-2.73,1.76,-0.21,-2.02
33.397,-0.64,-1.26,-0.28,-4.25,-2.78,-3.7,1.76,-0.21,-2.02
33.401,-0.64,-1.26,-0.28,-4.25,-2.78,-3.7,1.86,0.66,-0.7
33.413,-0.64,-1.26,-0.28,-4.2,-2.37,-4.29,1.86,0.66,-0.7
33.42,-0.61,-1.17,-0.44,-4.2,-2.37,-4.29,1.86,0.66,-0.7
33.433,-0.61,-1.17,-0.44,-4.06,-0.92,-4.19,1.86,0.66,-0.7
33.453,-0.61,-1.17,-0.44,-3.94,0.22,-4.18,1.86,0.66,-0.7
33.466,-0.61,-1.17,-0.44,-3.94,0.22,-4.18,1.0,-1.09,0.04
33.48,-0.61,-1.17,-0.44,-3.52,1.43,-4.29,1.0,-1.09,0.04
33.486,-0.53,-0.77,-0.46,-3.52,1.43,-4.29,1.0,-1.09,0.04
33.5,-0.53,-0.77,-0.46,-2.95,2.41,-4.71,1.0,-1.09,0.04
33.513,-0.53,-0.77,-0.46,-2.09,3.32,-4.9,1.0,-1.09,0.04
33.533,-0.53,-0.77,-0.46,-1.22,3.76,-5.16,1.0,-1.09,0.04
33.534,-0.53,-0.77,-0.46,-1.22,3.76,-5.16,-0.02,-1.87,0.59
33.551,-0.28,-0.6,-0.45,-1.22,3.76,-5.16,-0.02,-1.87,0.59
33.553,-0.28,-0.6,-0.45,-0.03,3.76,-4.26,-0.02,-1.87,0.59
33.58,-0.28,-0.6,-0.45,0.33,3.95,-3.56,-0.02,-1.87,0.59
33.603,-0.28,-0.6,-0.45,0.51,4.13,-2.66,-0.02,-1.87,0.59
33.605,-0.28,-0.6,-0.45,0.51,4.13,-2.66,-0.39,-0.88,0.37
33.613,-0.28,-0.6,-0.45,0.62,4.12,-2.22,-0.39,-0.88,0.37
33.616,-0.25,-0.55,-0.26,0.62,4.12,-2.22,-0.39,-0.88,0.37
33.633,-0.25,-0.55,-0.26,0.72,3.88,-1.59,-0.39,-0.88,0.37
33.653,-0.25,-0.55,-0.26,0.6,3.42,-1.33,-0.39,-0.88,0.37
33.661,-0.25,-0.55,-0.26,0.6,3.42,-1.33,-0.31,-0.64,-0.04
33.68,-0.25,-0.55,-0.26,0.33,3.04,-1.06,-0.31,-0.64,-0.04
33.682,-0.32,-0.65,-0.2,0.33,3.04,-1.06,-0.31,-0.64,-0.04
33.699,-0.32,-0.65,-0.2,0.0,2.98,-1.03,-0.31,-0.64,-0.04
33.713,-0.32,-0.65,-0.2,-0.23,2.7,-0.88,-0.31,-0.64,-0.04
33.726,-0.32,-0.65,-0.2,-0.23,2.7,-0.88,-0.31,-0.7,-0.2
33.733,-0.32,-0.65,-0.2,-0.36,2.09,-0.87,-0.31,-0.7,-0.2
33.746,-0.38,-0.81,-0.21,-0.36,2.09,-0.87,-0.31,-0.7,-0.2
33.753,-0.38,-0.81,-0.21,-0.33,1.05,-0.85,-0.31,-0.7,-0.2
33.78,-0.38,-0.81,-0.21,-0.22,-0.42,-0.98,-0.31,-0.7,-0.2
33.798,-0.38,-0.81,-0.21,-0.29,-2.15,-1.11,-0.31,-0.7,-0.2
33.8,-0.38,-0.81,-0.21,-0.29,-2.15,-1.11,-0.34,-0.53,-0.48
33.811,-0.41,-1.24,-0.24,-0.29,-2.15,-1.11,-0.34,-0.53,-0.48
33.814,-0.41,-1.24,-0.24,-0.8,-2.83,-1.06,-0.34,-0.53,-0.48
33.833,-0.41,-1.24,-0.24,-1.68,-1.97,-0.52,-0.34,-0.53,-0.48
33.853,-0.41,-1.24,-0.24,-2.65,-1.8,-0.08,-0.34,-0.53,-0.48
33.857,-0.41,-1.24,-0.24,-2.65,-1.8,-0.08,-0.51,-0.6,-0.56
33.874,-0.41,-1.24,-0.24,-2.53,-3.29,0.48,-0.51,-0.6,-0.56
33.876,-0.56,-1.33,-0.08,-2.53,-3.29,0.48,-0.51,-0.6,-0.56
33.893,-0.56,-1.33,-0.08,-1.71,-4.22,0.74,-0.51,-0.6,-0.56
33.914,-0.56,-1.33,-0.08,-1.09,-3.87,0.15,-0.51,-0.6,-0.56
33.921,-0.56,-1.33,-0.08,-1.09,-3.87,0.15,0.47,-0.03,-0.61
33.934,-0.56,-1.33,-0.08,-1.61,-3.04,-1.12,0.47,-0.03,-0.61
33.941,-0.5,-1.24,-0.3,-1.61,-3.04,-1.12,0.47,-0.03,-0.61
33.953,-0.5,-1.24,-0.3,-2.36,-2.52,-2.1,0.47,-0.03,-0.61
33.98,-0.5,-1.24,-0.3,-3.24,-2.26,-2.66,0.47,-0.03,-0.61
33.986,-0.5,-1.24,-0.3,-3.24,-2.26,-2.66,0.13,1.9,-0.07
34.001,-0.5,-1.24,-0.3,-3.74,-1.95,-2.49,0.13,1.9,-0.07
34.007,-0.69,-1.15,-0.35,-3.74,-1.95,-2.49,0.13,1.9,-0.07
34.013,-0.69,-1.15,-0.35,-4.11,-1.81,-1.8,0.13,1.9,-0.07
34.033,-0.69,-1.15,-0.35,-3.97,-2.53,-1.0,0.13,1.9,-0.07
34.053,-0.69,-1.15,-0.35,-3.68,-2.83,-0.19,0.13,1.9,-0.07
34.054,-0.69,-1.15,-0.35,-3.68,-2.83,-0.19,-0.76,1.39,0.83
34.071,-0.63,-1.18,-0.16,-3.68,-2.83,-0.19,-0.76,1.39,0.83
34.081,-0.63,-1.18,-0.16,-3.03,-2.28,0.49,-0.76,1.39,0.83
34.1,-0.63,-1.18,-0.16,-2.63,-1.4,1.04,-0.76,1.39,0.83
34.113,-0.63,-1.18,-0.16,-1.92,-0.7,1.5,-0.76,1.39,0.83
34.116,-0.63,-1.18,-0.16,-1.92,-0.7,1.5,-0.98,1.14,1.51
34.133,-0.63,-1.18,-0.16,-1.11,-0.35,2.02,-0.98,1.14,1.51
34.136,-0.47,-0.93,-0.05,-1.11,-0.35,2.02,-0.98,1.14,1.51
34.153,-0.47,-0.93,-0.05,-0.18,-0.16,2.27,-0.98,1.14,1.51
34.178,-0.47,-0.93,-0.05,0.43,-0.13,2.56,-0.98,1.14,1.51
34.181,-0.47,-0.93,-0.05,0.43,-0.13,2.56,-0.76,1.65,1.62
34.2,-0.47,-0.93,-0.05,0.77,0.43,2.68,-0.76,1.65,1.62
34.202,-0.36,-0.8,-0.03,0.77,0.43,2.68,-0.76,1.65,1.62
34.213,-0.36,-0.8,-0.03,0.91,0.6,2.84,-0.76,1.65,1.62
34.233,-0.36,-0.8,-0.03,1.1,0.7,3.05,-0.76,1.65,1.62
34.246,-0.36,-0.8,-0.03,1.1,0.7,3.05,-0.75,1.68,1.44
34.253,-0.36,-0.8,-0.03,1.42,0.7,3.39,-0.75,1.68,1.44
34.266,-0.32,-0.76,-0.0,1.42,0.7,3.39,-0.75,1.68,1.44
34.278,-0.32,-0.76,-0.0,1.6,0.67,3.46,-0.75,1.68,1.44
34.296,-0.32,-0.76,-0.0,1.69,0.71,3.73,-0.75,1.68,1.44
34.313,-0.32,-0.76,-0.0,1.73,0.8,3.69,-0.75,1.68,1.44
34.314,-0.32,-0.76,-0.0,1.73,0.8,3.69,-0.7,1.32,1.11
34.331,-0.32,-0.73,0.02,1.73,0.8,3.69,-0.7,1.32,1.11
34.333,-0.32,-0.73,0.02,1.8,0.55,4.1,-0.7,1.32,1.11
34.353,-0.32,-0.73,0.02,1.93,0.34,4.04,-0.7,1.32,1.11
34.379,-0.32,-0.73,0.02,2.15,-0.05,4.29,-0.7,1.32,1.11
34.381,-0.32,-0.73,0.02,2.15,-0.05,4.29,-0.5,0.83,0.86
34.4,-0.32,-0.73,0.02,2.31,-0.04,4.13,-0.5,0.83,0.86
34.401,-0.27,-0.79,0.02,2.31,-0.04,4.13,-0.5,0.83,0.86
34.413,-0.27,-0.79,0.02,2.52,-0.58,4.02,-0.5,0.83,0.86
34.433,-0.27,-0.79,0.02,2.45,-1.07,3.8,-0.5,0.83,0.86
34.441,-0.27,-0.79,0.02,2.45,-1.07,3.8,-0.26,0.25,0.37
34.453,-0.27,-0.79,0.02,2.4,-1.96,3.77,-0.26,0.25,0.37
34.461,-0.27,-1.01,-0.01,2.4,-1.96,3.77,-0.26,0.25,0.37
34.478,-0.27,-1.01,-0.01,2.3,-2.32,3.65,-0.26,0.25,0.37
34.496,-0.27,-1.01,-0.01,2.46,-2.03,3.84,-0.26,0.25,0.37
34.506,-0.27,-1.01,-0.01,2.46,-2.03,3.84,0.13,-0.92,-0.35
34.513,-0.27,-1.01,-0.01,2.51,-1.56,3.54,0.13,-0.92,-0.35
34.526,-0.22,-1.01,0.0,2.51,-1.56,3.54,0.13,-0.92,-0.35
34.533,-0.22,-1.01,0.0,2.8,-2.05,3.14,0.13,-0.92,-0.35
34.553,-0.22,-1.01,0.0,3.08,-2.44,2.24,0.13,-0.92,-0.35
34.579,-0.22,-1.01,0.0,3.29,-3.0,1.53,0.13,-0.92,-0.35
34.58,-0.22,-1.01,0.0,3.29,-3.0,1.53,0.96,-0.81,-1.39
34.595,-0.18,-1.24,-0.17,3.29,-3.0,1.53,0.96,-0.81,-1.39
34.597,-0.18,-1.24,-0.17,2.3,-3.39,0.69,0.96,-0.81,-1.39
34.613,-0.18,-1.24,-0.17,0.61,-3.15,0.1,0.96,-0.81,-1.39
34.633,-0.18,-1.24,-0.17,-0.94,-2.54,-0.31,0.96,-0.81,-1.39
34.636,-0.18,-1.24,-0.17,-0.94,-2.54,-0.31,1.41,-0.48,-2.1
34.653,-0.18,-1.24,-0.17,-2.06,-1.73,-0.7,1.41,-0.48,-2.1
34.656,-0.53,-1.12,-0.23,-2.06,-1.73,-0.7,1.41,-0.48,-2.1
34.673,-0.53,-1.12,-0.23,-2.48,-1.47,-1.22,1.41,-0.48,-2.1
34.695,-0.53,-1.12,-0.23,-2.89,-2.25,-2.04,1.41,-0.48,-2.1
34.701,-0.53,-1.12,-0.23,-2.89,-2.25,-2.04,1.77,0.04,-1.44
34.713,-0.53,-1.12,-0.23,-3.2,-2.62,-3.09,1.77,0.04,-1.44
34.721,-0.59,-1.23,-0.44,-3.2,-2.62,-3.09,1.77,0.04,-1.44
34.733,-0.59,-1.23,-0.44,-3.96,-1.92,-3.82,1.77,0.04,-1.44
34.753,-0.59,-1.23,-0.44,-4.38,-0.57,-3.88,1.77,0.04,-1.44
34.766,-0.59,-1.23,-0.44,-4.38,-0.57,-3.88,1.03,-0.45,-0.28
34.778,-0.59,-1.23,-0.44,-4.29,1.01,-3.74,1.03,-0.45,-0.28
34.786,-0.6,-0.82,-0.4,-4.29,1.01,-3.74,1.03,-0.45,-0.28
34.794,-0.6,-0.82,-0.4,-3.37,1.84,-3.28,1.03,-0.45,-0.28
34.813,-0.6,-0.82,-0.4,-2.2,2.3,-3.12,1.03,-0.45,-0.28
34.833,-0.6,-0.82,-0.4,-1.25,2.82,-2.91,1.03,-0.45,-0.28
34.834,-0.6,-0.82,-0.4,-1.25,2.82,-2.91,0.35,-1.7,0.42
34.851,-0.33,-0.62,-0.37,-1.25,2.82,-2.91,0.35,-1.7,0.42
34.853,-0.33,-0.62,-0.37,-0.63,3.54,-3.12,0.35,-1.7,0.42
34.879,-0.33,-0.62,-0.37,0.06,3.93,-2.89,0.35,-1.7,0.42
34.899,-0.33,-0.62,-0.37,0.49,4.12,-2.76,0.35,-1.7,0.42
34.9,-0.33,-0.62,-0.37,0.49,4.12,-2.76,0.01,-1.05,0.38
34.913,-0.33,-0.62,-0.37,0.85,4.02,-2.16,0.01,-1.05,0.38
34.916,-0.23,-0.55,-0.29,0.85,4.02,-2.16,0.01,-1.05,0.38
34.933,-0.23,-0.55,-0.29,0.93,4.05,-1.92,0.01,-1.05,0.38
34.953,-0.23,-0.55,-0.29,0.97,3.94,-1.52,0.01,-1.05,0.38
34.961,-0.23,-0.55,-0.29,0.97,3.94,-1.52,-0.1,-0.9,-0.16
34.978,-0.23,-0.55,-0.29,0.82,3.61,-1.52,-0.1,-0.9,-0.16
34.981,-0.26,-0.62,-0.25,0.82,3.61,-1.52,-0.1,-0.9,-0.16
35.001,-0.26,-0.62,-0.25,0.61,3.04,-1.32,-0.1,-0.9,-0.16
35.013,-0.26,-0.62,-0.25,0.31,2.77,-1.09,-0.1,-0.9,-0.16
35.026,-0.26,-0.62,-0.25,0.31,2.77,-1.09,-0.08,-0.69,-0.63
35.033,-0.26,-0.62,-0.25,-0.11,2.38,-0.9,-0.08,-0.69,-0.63
35.046,-0.37,-0.74,-0.2,-0.11,2.38,-0.9,-0.08,-0.69,-0.63
35.053,-0.37,-0.74,-0.2,-0.75,2.0,-1.0,-0.08,-0.69,-0.63
35.077,-0.37,-0.74,-0.2,-1.15,1.14,-1.25,-0.08,-0.69,-0.63
35.095,-0.37,-0.74,-0.2,-1.49,-0.12,-1.54,-0.08,-0.69,-0.63
35.097,-0.37,-0.74,-0.2,-1.49,-0.12,-1.54,-0.09,-0.72,-0.78
35.111,-0.47,-1.14,-0.29,-1.49,-0.12,-1.54,-0.09,-0.72,-0.78
35.113,-0.47,-1.14,-0.29,-1.7,-1.74,-1.69,-0.09,-0.72,-0.78
35.133,-0.47,-1.14,-0.29,-2.28,-2.74,-1.58,-0.09,-0.72,-0.78
35.153,-0.47,-1.14,-0.29,-3.04,-1.76,-0.94,-0.09,-0.72,-0.78
35.156,-0.47,-1.14,-0.29,-3.04,-1.76,-0.94,-0.4,-0.4,-0.81
35.173,-0.47,-1.14,-0.29,-4.06,-0.77,-0.32,-0.4,-0.4,-0.81
35.176,-0.7,-1.04,-0.15,-4.06,-0.77,-0.32,-0.4,-0.4,-0.81
35.195,-0.7,-1.04,-0.15,-4.38,-1.19,0.12,-0.4,-0.4,-0.81
35.213,-0.7,-1.04,-0.15,-4.23,-2.63,0.27,-0.4,-0.4,-0.81
35.223,-0.7,-1.04,-0.15,-4.23,-2.63,0.27,-0.08,-0.65,0.29
35.233,-0.7,-1.04,-0.15,-3.07,-3.27,-0.33,-0.08,-0.65,0.29
35.241,-0.58,-1.31,-0.22,-3.07,-3.27,-0.33,-0.08,-0.65,0.29
35.253,-0.58,-1.31,-0.22,-2.45,-3.3,-1.19,-0.08,-0.65,0.29
35.277,-0.58,-1.31,-0.22,-2.04,-2.93,-1.64,-0.08,-0.65,0.29
35.286,-0.58,-1.31,-0.22,-2.04,-2.93,-1.64,-0.24,-0.13,0.44
35.293,-0.58,-1.31,-0.22,-1.89,-2.48,-1.68,-0.24,-0.13,0.44
35.306,-0.53,-1.19,-0.28,-1.89,-2.48,-1.68,-0.24,-0.13,0.44
35.313,-0.53,-1.19,-0.28,-2.03,-2.41,-1.17,-0.24,-0.13,0.44
35.333,-0.53,-1.19,-0.28,-2.27,-2.61,-0.5,-0.24,-0.13,0.44
35.353,-0.53,-1.19,-0.28,-2.12,-2.98,-0.11,-0.24,-0.13,0.44
35.355,-0.53,-1.19,-0.28,-2.12,-2.98,-0.11,-0.23,1.14,0.93
35.377,-0.56,-1.25,-0.17,-2.12,-2.98,-0.11,-0.23,1.14,0.93
35.378,-0.56,-1.25,-0.17,-1.83,-3.16,-0.04,-0.23,1.14,0.93
35.398,-0.56,-1.25,-0.17,-1.43,-2.72,-0.19,-0.23,1.14,0.93
35.413,-0.56,-1.25,-0.17,-1.15,-1.95,-0.23,-0.23,1.14,0.93
35.416,-0.56,-1.25,-0.17,-1.15,-1.95,-0.23,-0.11,2.12,1.42
35.433,-0.56,-1.25,-0.17,-0.72,-1.51,0.12,-0.11,2.12,1.42
35.435,-0.48,-1.05,-0.19,-0.72,-1.51,0.12,-0.11,2.12,1.42
35.454,-0.48,-1.05,-0.19,-0.24,-1.28,0.53,-0.11,2.12,1.42
35.473,-0.48,-1.05,-0.19,0.32,-1.01,0.93,-0.11,2.12,1.42
35.481,-0.48,-1.05,-0.19,0.32,-1.01,0.93,-0.34,2.24,1.57
35.496,-0.48,-1.05,-0.19,0.73,-0.71,1.29,-0.34,2.24,1.57
35.501,-0.38,-0.91,-0.12,0.73,-0.71,1.29,-0.34,2.24,1.57
35.522,-0.38,-0.91,-0.12,0.87,-0.12,1.6,-0.34,2.24,1.57
35.533,-0.38,-0.91,-0.12,0.97,0.41,1.81,-0.34,2.24,1.57
35.548,-0.38,-0.91,-0.12,0.97,0.41,1.81,-0.54,1.61,1.36
35.553,-0.38,-0.91,-0.12,1.2,0.64,2.0,-0.54,1.61,1.36
35.566,-0.35,-0.75,-0.09,1.2,0.64,2.0,-0.54,1.61,1.36
35.579,-0.35,-0.75,-0.09,1.58,0.8,2.32,-0.54,1.61,1.36
35.593,-0.35,-0.75,-0.09,2.06,0.9,2.46,-0.54,1.61,1.36
35.613,-0.35,-0.75,-0.09,2.3,0.82,3.0,-0.54,1.61,1.36
35.614,-0.35,-0.75,-0.09,2.3,0.82,3.0,-0.67,1.28,1.16
35.631,-0.26,-0.68,-0.04,2.3,0.82,3.0,-0.67,1.28,1.16
35.634,-0.26,-0.68,-0.04,2.49,1.13,3.15,-0.67,1.28,1.16
35.653,-0.26,-0.68,-0.04,2.66,1.05,3.56,-0.67,1.28,1.16
35.677,-0.26,-0.68,-0.04,2.77,1.1,3.65,-0.67,1.28,1.16
35.678,-0.26,-0.68,-0.04,2.77,1.1,3.65,-0.62,0.87,0.7
35.699,-0.26,-0.68,-0.04,2.93,0.89,3.89,-0.62,0.87,0.7
35.701,-0.23,-0.69,0.0,2.93,0.89,3.89,-0.62,0.87,0.7
35.713,-0.23,-0.69,0.0,2.86,0.88,3.76,-0.62,0.87,0.7
35.733,-0.23,-0.69,0.0,2.88,0.59,3.81,-0.62,0.87,0.7
35.741,-0.23,-0.69,0.0,2.88,0.59,3.81,-0.43,0.28,0.11
35.753,-0.23,-0.69,0.0,2.87,-0.03,3.4,-0.43,0.28,0.11
35.761,-0.21,-0.87,-0.05,2.87,-0.03,3.4,-0.43,0.28,0.11
35.773,-0.21,-0.87,-0.05,2.88,-1.55,3.21,-0.43,0.28,0.11
35.795,-0.21,-0.87,-0.05,2.46,-2.22,2.99,-0.43,0.28,0.11
35.813,-0.21,-0.87,-0.05,2.46,-2.22,2.99,-0.39,-0.44,-0.72
35.814,-0.21,-0.87,-0.05,1.88,-2.42,3.12,-0.39,-0.44,-0.72
35.826,-0.32,-1.04,-0.04,1.88,-2.42,3.12,-0.39,-0.44,-0.72
35.833,-0.32,-1.04,-0.04,1.24,-1.88,3.15,-0.39,-0.44,-0.72
35.853,-0.32,-1.04,-0.04,1.03,-1.99,2.99,-0.39,-0.44,-0.72
35.873,-0.32,-1.04,-0.04,1.22,-2.78,2.33,-0.39,-0.44,-0.72
35.875,-0.32,-1.04,-0.04,1.22,-2.78,2.33,-0.06,-1.13,-1.09
35.895,-0.27,-1.23,-0.1,1.22,-2.78,2.33,-0.06,-1.13,-1.09
35.896,-0.27,-1.23,-0.1,1.45,-3.44,2.08,-0.06,-1.13,-1.09
35.914,-0.27,-1.23,-0.1,1.06,-3.32,1.91,-0.06,-1.13,-1.09
35.933,-0.27,-1.23,-0.1,0.08,-2.88,2.05,-0.06,-1.13,-1.09
35.936,-0.27,-1.23,-0.1,0.08,-2.88,2.05,0.37,-1.36,-1.83
35.953,-0.27,-1.23,-0.1,-0.81,-2.16,1.89,0.37,-1.36,-1.83
35.955,-0.44,-1.15,-0.05,-0.81,-2.16,1.89,0.37,-1.36,-1.83
35.973,-0.44,-1.15,-0.05,-1.32,-1.81,1.64,0.37,-1.36,-1.83
35.996,-0.44,-1.15,-0.05,-1.57,-2.05,0.82,0.37,-1.36,-1.83
36.001,-0.44,-1.15,-0.05,-1.57,-2.05,0.82,1.64,-0.45,-1.75
36.014,-0.44,-1.15,-0.05,-2.05,-2.17,-0.29,1.64,-0.45,-1.75
36.024,-0.5,-1.18,-0.26,-2.05,-2.17,-0.29,1.64,-0.45,-1.75
36.033,-0.5,-1.18,-0.26,-2.91,-1.78,-1.74,1.64,-0.45,-1.75
36.053,-0.5,-1.18,-0.26,-3.93,-1.02,-3.05,1.64,-0.45,-1.75
36.066,-0.5,-1.18,-0.26,-3.93,-1.02,-3.05,2.03,0.63,-0.91
36.073,-0.5,-1.18,-0.26,-4.4,-0.3,-3.86,2.03,0.63,-0.91
36.086,-0.67,-0.95,-0.51,-4.4,-0.3,-3.86,2.03,0.63,-0.91
36.095,-0.67,-0.95,-0.51,-4.63,0.78,-4.17,2.03,0.63,-0.91
36.118,-0.67,-0.95,-0.51,-4.27,1.95,-3.72,2.03,0.63,-0.91
36.133,-0.67,-0.95,-0.51,-3.5,2.59,-3.44,2.03,0.63,-0.91
36.135,-0.67,-0.95,-0.51,-3.5,2.59,-3.44,0.37,-1.6,0.29
36.151,-0.47,-0.67,-0.35,-3.5,2.59,-3.44,0.37,-1.6,0.29
36.155,-0.47,-0.67,-0.35,-2.19,3.03,-2.76,0.37,-1.6,0.29
36.173,-0.47,-0.67,-0.35,-1.28,3.53,-2.46,0.37,-1.6,0.29
36.195,-0.47,-0.67,-0.35,-0.32,3.59,-2.1,0.37,-1.6,0.29
36.197,-0.47,-0.67,-0.35,-0.32,3.59,-2.1,0.07,-1.51,0.61
36.215,-0.47,-0.67,-0.35,0.34,3.52,-2.05,0.07,-1.51,0.61
36.217,-0.26,-0.61,-0.27,0.34,3.52,-2.05,0.07,-1.51,0.61
36.233,-0.26,-0.61,-0.27,0.64,3.71,-1.66,0.07,-1.51,0.61
36.253,-0.26,-0.61,-0.27,0.89,3.79,-1.56,0.07,-1.51,0.61
36.261,-0.26,-0.61,-0.27,0.89,3.79,-1.56,0.16,-1.03,0.21
36.273,-0.26,-0.61,-0.27,1.15,3.71,-1.39,0.16,-1.03,0.21
36.28,-0.22,-0.59,-0.22,1.15,3.71,-1.39,0.16,-1.03,0.21
36.294,-0.22,-0.59,-0.22,1.2,3.3,-1.56,0.16,-1.03,0.21
36.313,-0.22,-0.59,-0.22,0.89,2.82,-1.58,0.16,-1.03,0.21
36.326,-0.22,-0.59,-0.22,0.89,2.82,-1.58,0.24,-0.68,-0.42
36.333,-0.22,-0.59,-0.22,0.29,2.76,-1.65,0.24,-0.68,-0.42
36.346,-0.34,-0.69,-0.23,0.29,2.76,-1.65,0.24,-0.68,-0.42
36.354,-0.34,-0.69,-0.23,-0.06,2.52,-1.51,0.24,-0.68,-0.42
36.373,-0.34,-0.69,-0.23,-0.33,2.18,-1.58,0.24,-0.68,-0.42
36.394,-0.34,-0.69,-0.23,-0.54,1.49,-1.7,0.24,-0.68,-0.42
36.395,-0.34,-0.69,-0.23,-0.54,1.49,-1.7,0.29,-0.52,-0.66
36.416,-0.41,-0.92,-0.28,-0.54,1.49,-1.7,0.29,-0.52,-0.66
36.418,-0.41,-0.92,-0.28,-0.91,0.4,-2.09,0.29,-0.52,-0.66
36.433,-0.41,-0.92,-0.28,-1.23,-1.23,-2.45,0.29,-0.52,-0.66
36.453,-0.41,-0.92,-0.28,-1.76,-2.64,-2.8,0.29,-0.52,-0.66
36.456,-0.41,-0.92,-0.28,-1.76,-2.64,-2.8,0.02,-0.27,-0.93
36.473,-0.41,-0.92,-0.28,-2.65,-3.02,-2.56,0.02,-0.27,-0.93
36.476,-0.58,-1.27,-0.32,-2.65,-3.02,-2.56,0.02,-0.27,-0.93
36.494,-0.58,-1.27,-0.32,-3.85,-1.64,-1.64,0.02,-0.27,-0.93
36.513,-0.58,-1.27,-0.32,-4.45,-0.51,-0.6,0.02,-0.27,-0.93
36.521,-0.58,-1.27,-0.32,-4.45,-0.51,-0.6,-0.44,-0.84,-0.25
36.533,-0.58,-1.27,-0.32,-4.26,-1.21,0.12,-0.44,-0.84,-0.25
36.541,-0.64,-1.21,-0.08,-4.26,-1.21,0.12,-0.44,-0.84,-0.25
36.554,-0.64,-1.21,-0.08,-2.56,-3.28,-0.21,-0.44,-0.84,-0.25
36.573,-0.64,-1.21,-0.08,-1.1,-4.03,-1.59,-0.44,-0.84,-0.25
36.594,-0.64,-1.21,-0.08,-1.1,-4.03,-1.59,0.3,-0.43,-0.1
36.595,-0.64,-1.21,-0.08,-0.98,-3.57,-2.57,0.3,-0.43,-0.1
36.616,-0.45,-1.28,-0.38,-0.98,-3.57,-2.57,0.3,-0.43,-0.1
36.617,-0.45,-1.28,-0.38,-1.82,-2.87,-2.9,0.3,-0.43,-0.1
36.633,-0.45,-1.28,-0.38,-2.37,-2.27,-2.01,0.3,-0.43,-0.1
36.653,-0.45,-1.28,-0.38,-2.84,-1.82,-1.41,0.3,-0.43,-0.1
36.654,-0.45,-1.28,-0.38,-2.84,-1.82,-1.41,-0.06,1.09,-0.02
36.671,-0.63,-1.13,-0.26,-2.84,-1.82,-1.41,-0.06,1.09,-0.02
36.674,-0.63,-1.13,-0.26,-3.24,-1.59,-1.4,-0.06,1.09,-0.02
36.693,-0.63,-1.13,-0.26,-3.71,-1.47,-1.93,-0.06,1.09,-0.02
36.713,-0.63,-1.13,-0.26,-3.48,-1.64,-2.2,-0.06,1.09,-0.02
36.716,-0.63,-1.13,-0.26,-3.48,-1.64,-2.2,-0.26,2.0,0.96
36.733,-0.63,-1.13,-0.26,-2.86,-1.85,-2.09,-0.26,2.0,0.96
36.737,-0.6,-1.14,-0.35,-2.86,-1.85,-2.09,-0.26,2.0,0.96
36.754,-0.6,-1.14,-0.35,-2.27,-1.7,-1.29,-0.26,2.0,0.96
36.773,-0.6,-1.14,-0.35,-2.11,-1.53,-0.42,-0.26,2.0,0.96
36.781,-0.6,-1.14,-0.35,-2.11,-1.53,-0.42,-1.17,1.57,1.5
36.793,-0.6,-1.14,-0.35,-1.67,-1.52,0.45,-1.17,1.57,1.5
36.801,-0.53,-1.06,-0.16,-1.67,-1.52,0.45,-1.17,1.57,1.5
36.815,-0.53,-1.06,-0.16,-1.04,-1.57,1.25,-1.17,1.57,1.5
36.833,-0.53,-1.06,-0.16,-0.32,-1.3,1.9,-1.17,1.57,1.5
36.846,-0.53,-1.06,-0.16,-0.32,-1.3,1.9,-1.62,0.5,1.65
36.853,-0.53,-1.06,-0.16,0.25,-0.93,2.63,-1.62,0.5,1.65
36.865,-0.4,-0.91,-0.01,0.25,-0.93,2.63,-1.62,0.5,1.65
36.873,-0.4,-0.91,-0.01,0.8,-0.48,3.04,-1.62,0.5,1.65
36.893,-0.4,-0.91,-0.01,1.33,-0.3,3.4,-1.62,0.5,1.65
36.913,-0.4,-0.91,-0.01,1.9,-0.09,3.65,-1.62,0.5,1.65
36.914,-0.4,-0.91,-0.01,1.9,-0.09,3.65,-1.26,0.79,1.62
36.931,-0.27,-0.81,0.06,1.9,-0.09,3.65,-1.26,0.79,1.62
36.934,-0.27,-0.81,0.06,2.53,-0.24,4.18,-1.26,0.79,1.62
36.953,-0.27,-0.81,0.06,2.97,0.0,4.18,-1.26,0.79,1.62
36.973,-0.27,-0.81,0.06,3.26,-0.01,4.37,-1.26,0.79,1.62
36.976,-0.27,-0.81,0.06,3.26,-0.01,4.37,-0.32,1.77,1.12
36.993,-0.27,-0.81,0.06,3.2,0.22,3.92,-0.32,1.77,1.12
36.996,-0.21,-0.75,0.02,3.2,0.22,3.92,-0.32,1.77,1.12
37.013,-0.21,-0.75,0.02,2.81,0.48,3.97,-0.32,1.77,1.12
37.033,-0.21,-0.75,0.02,2.43,1.13,3.82,-0.32,1.77,1.12
37.041,-0.21,-0.75,0.02,2.43,1.13,3.82,0.15,1.71,0.51
37.053,-0.21,-0.75,0.02,2.32,1.12,3.88,0.15,1.71,0.51
37.06,-0.26,-0.67,-0.03,2.32,1.12,3.88,0.15,1.71,0.51
37.073,-0.26,-0.67,-0.03,2.43,0.98,3.57,0.15,1.71,0.51
37.093,-0.26,-0.67,-0.03,2.52,0.2,3.21,0.15,1.71,0.51
37.112,-0.26,-0.67,-0.03,2.52,0.2,3.21,0.18,0.9,-0.11
37.113,-0.26,-0.67,-0.03,1.98,-0.46,2.82,0.18,0.9,-0.11
37.126,-0.32,-0.88,-0.11,1.98,-0.46,2.82,0.18,0.9,-0.11
37.133,-0.32,-0.88,-0.11,1.29,-0.78,2.77,0.18,0.9,-0.11
37.153,-0.32,-0.88,-0.11,0.66,-0.87,2.7,0.18,0.9,-0.11
37.173,-0.32,-0.88,-0.11,0.63,-0.97,2.96,0.18,0.9,-0.11
37.175,-0.32,-0.88,-0.11,0.63,-0.97,2.96,-0.14,-0.66,-0.33
37.193,-0.32,-1.0,-0.06,0.63,-0.97,2.96,-0.14,-0.66,-0.33
37.195,-0.32,-1.0,-0.06,1.25,-1.49,2.78,-0.14,-0.66,-0.33
37.213,-0.32,-1.0,-0.06,1.83,-2.2,2.58,-0.14,-0.66,-0.33
37.233,-0.32,-1.0,-0.06,1.9,-2.7,2.06,-0.14,-0.66,-0.33
37.236,-0.32,-1.0,-0.06,1.9,-2.7,2.06,0.09,-1.44,-1.02
37.253,-0.32,-1.0,-0.06,1.57,-2.91,1.98,0.09,-1.44,-1.02
37.255,-0.27,-1.17,-0.08,1.57,-2.91,1.98,0.09,-1.44,-1.02
37.273,-0.27,-1.17,-0.08,0.59,-2.38,1.95,0.09,-1.44,-1.02
37.293,-0.27,-1.17,-0.08,-0.46,-1.7,1.95,0.09,-1.44,-1.02
37.301,-0.27,-1.17,-0.08,-0.46,-1.7,1.95,0.5,-1.63,-1.47
37.313,-0.27,-1.17,-0.08,-1.0,-1.48,1.67,0.5,-1.63,-1.47
37.321,-0.45,-1.09,-0.04,-1.0,-1.48,1.67,0.5,-1.63,-1.47
37.333,-0.45,-1.09,-0.04,-0.77,-1.75,1.53,0.5,-1.63,-1.47
37.353,-0.45,-1.09,-0.04,-0.27,-2.32,0.57,0.5,-1.63,-1.47
37.366,-0.45,-1.09,-0.04,-0.27,-2.32,0.57,1.18,-1.36,-1.54
37.373,-0.45,-1.09,-0.04,-0.06,-3.23,-0.24,1.18,-1.36,-1.54
37.393,-0.28,-1.27,-0.2,-0.06,-3.23,-0.24,1.18,-1.36,-1.54
37.394,-0.28,-1.27,-0.2,-0.09,-2.72,-0.82,1.18,-1.36,-1.54
37.413,-0.28,-1.27,-0.2,-0.32,-1.7,-0.99,1.18,-1.36,-1.54
37.433,-0.28,-1.27,-0.2,-0.48,-0.48,-1.39,1.18,-1.36,-1.54
37.435,-0.28,-1.27,-0.2,-0.48,-0.48,-1.39,1.7,-0.21,-1.71
37.451,-0.3,-0.93,-0.28,-0.48,-0.48,-1.39,1.7,-0.21,-1.71
37.454,-0.3,-0.93,-0.28,-1.29,0.66,-2.2,1.7,-0.21,-1.71
37.473,-0.3,-0.93,-0.28,-2.42,1.5,-3.1,1.7,-0.21,-1.71
37.493,-0.3,-0.93,-0.28,-4.26,2.46,-4.21,1.7,-0.21,-1.71
37.496,-0.3,-0.93,-0.28,-4.26,2.46,-4.21,1.85,-0.01,-1.55
37.514,-0.3,-0.93,-0.28,-5.51,3.8,-4.4,1.85,-0.01,-1.55
37.516,-0.71,-0.59,-0.46,-5.51,3.8,-4.4,1.85,-0.01,-1.55
37.533,-0.71,-0.59,-0.46,-6.11,4.59,-4.59,1.85,-0.01,-1.55
37.553,-0.71,-0.59,-0.46,-5.12,4.2,-4.33,1.85,-0.01,-1.55
37.56,-0.71,-0.59,-0.46,-5.12,4.2,-4.33,0.11,-2.08,0.03
37.573,-0.71,-0.59,-0.46,-3.91,3.31,-4.06,0.11,-2.08,0.03
37.58,-0.49,-0.7,-0.39,-3.91,3.31,-4.06,0.11,-2.08,0.03
37.593,-0.49,-0.7,-0.39,-2.94,2.59,-3.39,0.11,-2.08,0.03
37.613,-0.49,-0.7,-0.39,-2.77,2.01,-2.84,0.11,-2.08,0.03
37.626,-0.49,-0.7,-0.39,-2.77,2.01,-2.84,-0.14,-1.22,0.38
37.633,-0.49,-0.7,-0.39,-2.49,1.62,-2.08,-0.14,-1.22,0.38
37.646,-0.45,-0.87,-0.22,-2.49,1.62,-2.08,-0.14,-1.22,0.38
37.653,-0.45,-0.87,-0.22,-2.38,1.18,-1.78,-0.14,-1.22,0.38
37.673,-0.45,-0.87,-0.22,-1.67,1.6,-1.11,-0.14,-1.22,0.38
37.693,-0.45,-0.87,-0.22,-1.36,1.95,-1.46,-0.14,-1.22,0.38
37.695,-0.45,-0.87,-0.22,-1.36,1.95,-1.46,0.5,0.03,0.63
37.711,-0.37,-0.79,-0.22,-1.36,1.95,-1.46,0.5,0.03,0.63
37.713,-0.37,-0.79,-0.22,-0.89,1.84,-1.79,0.5,0.03,0.63
37.733,-0.37,-0.79,-0.22,-0.67,1.67,-2.22,0.5,0.03,0.63
37.753,-0.37,-0.79,-0.22,-0.35,0.79,-2.27,0.5,0.03,0.63
37.756,-0.37,-0.79,-0.22,-0.35,0.79,-2.27,0.47,0.57,0.48
37.773,-0.37,-0.79,-0.22,-0.25,-0.73,-2.57,0.47,0.57,0.48
37.775,-0.34,-1.09,-0.3,-0.25,-0.73,-2.57,0.47,0.57,0.48
37.793,-0.34,-1.09,-0.3,-0.26,-2.08,-2.34,0.47,0.57,0.48
37.816,-0.34,-1.09,-0.3,-0.61,-1.52,-2.33,0.47,0.57,0.48
37.824,-0.34,-1.09,-0.3,-0.61,-1.52,-2.33,-0.01,-0.37,-0.19
37.833,-0.34,-1.09,-0.3,-1.41,-0.26,-1.97,-0.01,-0.37,-0.19
37.841,-0.49,-0.98,-0.23,-1.41,-0.26,-1.97,-0.01,-0.37,-0.19
37.853,-0.49,-0.98,-0.23,-1.81,-0.69,-1.66,-0.01,-0.37,-0.19
37.873,-0.49,-0.98,-0.23,-1.37,-2.44,-1.37,-0.01,-0.37,-0.19
