time,gFx,gFy,gFz,ax,ay,az,wx,wy,wz,P
0.002,-0.24,0.48,0.85,1.28,1.37,-0.31,-0.04,-0.10,-0.31,0.00
0.003,-0.24,0.48,0.85,1.28,1.37,-0.31,-0.04,-0.07,-0.33,0.00
0.004,-0.24,0.48,0.85,0.68,1.61,-0.47,-0.04,-0.07,-0.33,0.00
0.004,-0.29,0.49,0.84,0.68,1.61,-0.47,-0.04,-0.07,-0.33,0.00
0.005,-0.29,0.49,0.84,0.68,1.61,-0.47,-0.02,-0.05,-0.33,0.00
0.006,-0.29,0.49,0.84,0.12,1.77,-0.63,-0.02,-0.05,-0.33,0.00
0.019,-0.30,0.49,0.82,0.12,1.77,-0.63,-0.02,-0.05,-0.33,0.00
0.02,-0.30,0.49,0.82,0.12,1.77,-0.63,-0.01,-0.01,-0.31,0.00
0.021,-0.30,0.49,0.82,0.06,1.74,-0.82,-0.01,-0.01,-0.31,0.00
0.021,-0.26,0.49,0.81,0.06,1.74,-0.82,-0.01,-0.01,-0.31,0.00
0.022,-0.26,0.49,0.81,0.06,1.74,-0.82,-0.04,-0.02,-0.28,0.00
0.023,-0.26,0.49,0.81,0.44,1.75,-0.85,-0.04,-0.02,-0.28,0.00
0.032,-0.24,0.47,0.81,0.44,1.75,-0.85,-0.04,-0.02,-0.28,0.00
0.033,-0.24,0.47,0.81,0.44,1.75,-0.85,-0.07,-0.03,-0.25,0.00
0.034,-0.24,0.47,0.81,0.69,1.63,-0.89,-0.07,-0.03,-0.25,0.00
0.055,-0.23,0.46,0.82,0.69,1.63,-0.89,-0.07,-0.03,-0.25,0.00
0.055,-0.23,0.46,0.82,0.69,1.63,-0.89,-0.11,-0.04,-0.24,0.00
0.056,-0.23,0.46,0.82,0.76,1.52,-0.85,-0.11,-0.04,-0.24,0.00
0.057,-0.23,0.44,0.83,0.76,1.52,-0.85,-0.11,-0.04,-0.24,0.00
0.057,-0.23,0.44,0.83,0.76,1.52,-0.85,-0.15,-0.05,-0.24,0.00
0.058,-0.23,0.44,0.83,0.73,1.33,-0.72,-0.15,-0.05,-0.24,0.00
0.073,-0.23,0.42,0.84,0.73,1.33,-0.72,-0.15,-0.05,-0.24,0.00
0.074,-0.23,0.42,0.84,0.73,1.33,-0.72,-0.19,-0.04,-0.26,0.00
0.074,-0.23,0.42,0.84,0.81,1.17,-0.59,-0.19,-0.04,-0.26,0.00
0.075,-0.22,0.42,0.85,0.81,1.17,-0.59,-0.19,-0.04,-0.26,0.00
0.075,-0.22,0.42,0.85,0.81,1.17,-0.59,-0.22,-0.02,-0.28,0.00
0.076,-0.22,0.42,0.85,0.90,1.14,-0.49,-0.22,-0.02,-0.28,0.00
0.083,-0.21,0.41,0.88,0.90,1.14,-0.49,-0.22,-0.02,-0.28,0.00
0.084,-0.21,0.41,0.88,0.90,1.14,-0.49,-0.24,0.01,-0.31,0.00
0.084,-0.21,0.41,0.88,0.94,1.10,-0.25,-0.24,0.01,-0.31,0.00
0.095,-0.21,0.41,0.90,0.94,1.10,-0.25,-0.24,0.01,-0.31,0.00
0.096,-0.21,0.41,0.90,0.94,1.10,-0.25,-0.26,0.02,-0.34,0.00
0.096,-0.21,0.41,0.90,1.01,1.16,-0.09,-0.26,0.02,-0.34,0.00
0.102,-0.22,0.42,0.92,1.01,1.16,-0.09,-0.26,0.02,-0.34,0.00
0.103,-0.22,0.42,0.92,1.01,1.16,-0.09,-0.26,0.03,-0.37,0.00
0.103,-0.22,0.42,0.92,0.93,1.26,0.11,-0.26,0.03,-0.37,0.00
0.114,-0.23,0.43,0.91,0.93,1.26,0.11,-0.26,0.03,-0.37,0.00
0.115,-0.23,0.43,0.91,0.93,1.26,0.11,-0.25,0.02,-0.39,0.00
0.116,-0.23,0.43,0.91,0.86,1.43,0.04,-0.25,0.02,-0.39,0.00
0.123,-0.22,0.44,0.90,0.86,1.43,0.04,-0.25,0.02,-0.39,0.00
0.124,-0.22,0.44,0.90,0.86,1.43,0.04,-0.23,0.01,-0.41,0.00
0.125,-0.22,0.44,0.90,0.92,1.51,-0.06,-0.23,0.01,-0.41,0.00
0.139,-0.23,0.45,0.89,0.92,1.51,-0.06,-0.23,0.01,-0.41,0.00
0.141,-0.23,0.45,0.89,0.92,1.51,-0.06,-0.20,-0.00,-0.42,0.00
0.142,-0.23,0.45,0.89,0.86,1.65,-0.19,-0.20,-0.00,-0.42,0.00
0.144,-0.22,0.46,0.87,0.86,1.65,-0.19,-0.20,-0.00,-0.42,0.00
0.145,-0.22,0.46,0.87,0.86,1.65,-0.19,-0.17,0.00,-0.42,0.00
0.145,-0.22,0.46,0.87,0.99,1.79,-0.40,-0.17,0.00,-0.42,0.00
0.155,-0.19,0.47,0.87,0.99,1.79,-0.40,-0.17,0.00,-0.42,0.00
0.156,-0.19,0.47,0.87,0.99,1.79,-0.40,-0.14,0.03,-0.42,0.00
0.157,-0.19,0.47,0.87,1.21,1.88,-0.41,-0.14,0.03,-0.42,0.00
0.179,-0.18,0.47,0.85,1.21,1.88,-0.41,-0.14,0.03,-0.42,0.00
0.18,-0.18,0.47,0.85,1.21,1.88,-0.41,-0.12,0.06,-0.41,0.00
0.181,-0.18,0.47,0.85,1.36,1.97,-0.52,-0.12,0.06,-0.41,0.00
0.182,-0.18,0.47,0.85,1.36,1.97,-0.52,-0.12,0.06,-0.41,0.00
0.182,-0.18,0.47,0.85,1.36,1.97,-0.52,-0.10,0.08,-0.42,0.00
0.183,-0.18,0.47,0.85,1.42,1.96,-0.56,-0.10,0.08,-0.42,0.00
0.184,-0.19,0.47,0.84,1.42,1.96,-0.56,-0.10,0.08,-0.42,0.00
0.185,-0.19,0.47,0.84,1.42,1.96,-0.56,-0.08,0.09,-0.43,0.00
0.186,-0.19,0.47,0.84,1.33,1.92,-0.67,-0.08,0.09,-0.43,0.00
0.206,-0.19,0.46,0.84,1.33,1.92,-0.67,-0.08,0.09,-0.43,0.00
0.207,-0.19,0.46,0.84,1.33,1.92,-0.67,-0.07,0.08,-0.43,0.00
0.208,-0.19,0.46,0.84,1.29,1.89,-0.71,-0.07,0.08,-0.43,0.00
0.209,-0.19,0.46,0.82,1.29,1.89,-0.71,-0.07,0.08,-0.43,0.00
0.21,-0.19,0.46,0.82,1.29,1.89,-0.71,-0.06,0.07,-0.44,0.00
0.211,-0.19,0.46,0.82,1.35,1.88,-0.84,-0.06,0.07,-0.44,0.00
0.217,-0.19,0.46,0.82,1.35,1.88,-0.84,-0.06,0.07,-0.44,0.00
0.218,-0.19,0.46,0.82,1.35,1.88,-0.84,-0.06,0.06,-0.45,0.00
0.218,-0.19,0.46,0.82,1.33,1.88,-0.86,-0.06,0.06,-0.45,0.00
0.228,-0.18,0.46,0.83,1.33,1.88,-0.86,-0.06,0.06,-0.45,0.00
0.229,-0.18,0.46,0.83,1.33,1.88,-0.86,-0.06,0.05,-0.45,0.00
0.229,-0.18,0.46,0.83,1.47,1.92,-0.78,-0.06,0.05,-0.45,0.00
0.235,-0.16,0.45,0.84,1.47,1.92,-0.78,-0.06,0.05,-0.45,0.00
0.236,-0.16,0.45,0.84,1.47,1.92,-0.78,-0.08,0.05,-0.44,0.00
0.237,-0.16,0.45,0.84,1.65,1.89,-0.69,-0.08,0.05,-0.44,0.00
0.247,-0.17,0.45,0.83,1.65,1.89,-0.69,-0.08,0.05,-0.44,0.00
0.248,-0.17,0.45,0.83,1.65,1.89,-0.69,-0.08,0.06,-0.45,0.00
0.248,-0.17,0.45,0.83,1.63,1.85,-0.73,-0.08,0.06,-0.45,0.00
0.255,-0.17,0.45,0.82,1.63,1.85,-0.73,-0.08,0.06,-0.45,0.00
0.256,-0.17,0.45,0.82,1.63,1.85,-0.73,-0.09,0.07,-0.46,0.00
0.257,-0.17,0.45,0.82,1.56,1.83,-0.81,-0.09,0.07,-0.46,0.00
0.277,-0.17,0.45,0.82,1.56,1.83,-0.81,-0.09,0.07,-0.46,0.00
0.278,-0.17,0.45,0.82,1.56,1.83,-0.81,-0.09,0.08,-0.48,0.00
0.279,-0.17,0.45,0.82,1.59,1.92,-0.81,-0.09,0.08,-0.48,0.00
0.28,-0.19,0.45,0.82,1.59,1.92,-0.81,-0.09,0.08,-0.48,0.00
0.281,-0.19,0.45,0.82,1.59,1.92,-0.81,-0.09,0.09,-0.50,0.00
0.281,-0.19,0.45,0.82,1.45,1.96,-0.84,-0.09,0.09,-0.50,0.00
0.301,-0.18,0.46,0.83,1.45,1.96,-0.84,-0.09,0.09,-0.50,0.00
0.302,-0.18,0.46,0.83,1.45,1.96,-0.84,-0.09,0.11,-0.52,0.00
0.303,-0.18,0.46,0.83,1.52,2.05,-0.74,-0.09,0.11,-0.52,0.00
0.304,-0.19,0.47,0.85,1.52,2.05,-0.74,-0.09,0.11,-0.52,0.00
0.305,-0.19,0.47,0.85,1.52,2.05,-0.74,-0.10,0.12,-0.54,0.00
0.306,-0.19,0.47,0.85,1.48,2.14,-0.55,-0.10,0.12,-0.54,0.00
0.307,-0.20,0.46,0.86,1.48,2.14,-0.55,-0.10,0.12,-0.54,0.00
0.307,-0.20,0.46,0.86,1.48,2.14,-0.55,-0.12,0.12,-0.56,0.00
0.308,-0.20,0.46,0.86,1.46,2.10,-0.48,-0.12,0.12,-0.56,0.00
0.326,-0.21,0.46,0.85,1.46,2.10,-0.48,-0.12,0.12,-0.56,0.00
0.327,-0.21,0.46,0.85,1.46,2.10,-0.48,-0.14,0.11,-0.58,0.00
0.327,-0.21,0.46,0.85,1.36,2.17,-0.60,-0.14,0.11,-0.58,0.00
0.328,-0.22,0.47,0.83,1.36,2.17,-0.60,-0.14,0.11,-0.58,0.00
0.329,-0.22,0.47,0.83,1.36,2.17,-0.60,-0.16,0.13,-0.60,0.00
0.329,-0.22,0.47,0.83,1.32,2.27,-0.77,-0.16,0.13,-0.60,0.00
0.336,-0.23,0.47,0.83,1.32,2.27,-0.77,-0.16,0.13,-0.60,0.00
0.337,-0.23,0.47,0.83,1.32,2.27,-0.77,-0.18,0.16,-0.62,0.00
0.338,-0.23,0.47,0.83,1.24,2.28,-0.80,-0.18,0.16,-0.62,0.00
0.348,-0.26,0.47,0.83,1.24,2.28,-0.80,-0.18,0.16,-0.62,0.00
0.349,-0.26,0.47,0.83,1.24,2.28,-0.80,-0.20,0.19,-0.64,0.00
0.35,-0.26,0.47,0.83,0.97,2.37,-0.77,-0.20,0.19,-0.64,0.00
0.356,-0.27,0.47,0.84,0.97,2.37,-0.77,-0.20,0.19,-0.64,0.00
0.357,-0.27,0.47,0.84,0.97,2.37,-0.77,-0.25,0.22,-0.65,0.00
0.358,-0.27,0.47,0.84,0.88,2.38,-0.61,-0.25,0.22,-0.65,0.00
0.366,-0.29,0.45,0.84,0.88,2.38,-0.61,-0.25,0.22,-0.65,0.00
0.367,-0.29,0.45,0.84,0.88,2.38,-0.61,-0.29,0.26,-0.66,0.00
0.367,-0.29,0.45,0.84,0.73,2.22,-0.67,-0.29,0.26,-0.66,0.00
0.389,-0.30,0.43,0.83,0.73,2.22,-0.67,-0.29,0.26,-0.66,0.00
0.392,-0.30,0.43,0.83,0.73,2.22,-0.67,-0.35,0.29,-0.68,0.00
0.393,-0.30,0.43,0.83,0.62,2.15,-0.70,-0.35,0.29,-0.68,0.00
0.394,-0.32,0.42,0.85,0.62,2.15,-0.70,-0.35,0.29,-0.68,0.00
0.395,-0.32,0.42,0.85,0.62,2.15,-0.70,-0.41,0.32,-0.69,0.00
0.396,-0.32,0.42,0.85,0.55,2.10,-0.55,-0.41,0.32,-0.69,0.00
0.397,-0.32,0.40,0.87,0.55,2.10,-0.55,-0.41,0.32,-0.69,0.00
0.397,-0.32,0.40,0.87,0.55,2.10,-0.55,-0.48,0.32,-0.71,0.00
0.398,-0.32,0.40,0.87,0.55,1.93,-0.36,-0.48,0.32,-0.71,0.00
0.407,-0.33,0.37,0.87,0.55,1.93,-0.36,-0.48,0.32,-0.71,0.00
0.408,-0.33,0.37,0.87,0.55,1.93,-0.36,-0.55,0.33,-0.72,0.00
0.409,-0.33,0.37,0.87,0.45,1.71,-0.35,-0.55,0.33,-0.72,0.00
0.415,-0.34,0.34,0.86,0.45,1.71,-0.35,-0.55,0.33,-0.72,0.00
0.416,-0.34,0.34,0.86,0.45,1.71,-0.35,-0.61,0.36,-0.73,0.00
0.417,-0.34,0.34,0.86,0.48,1.46,-0.43,-0.61,0.36,-0.73,0.00
0.429,-0.36,0.32,0.86,0.48,1.46,-0.43,-0.61,0.36,-0.73,0.00
0.431,-0.36,0.32,0.86,0.48,1.46,-0.43,-0.65,0.41,-0.74,0.00
0.432,-0.36,0.32,0.86,0.30,1.45,-0.40,-0.65,0.41,-0.74,0.00
0.437,-0.38,0.32,0.86,0.30,1.45,-0.40,-0.65,0.41,-0.74,0.00
0.438,-0.38,0.32,0.86,0.30,1.45,-0.40,-0.69,0.44,-0.74,0.00
0.438,-0.38,0.32,0.86,0.19,1.49,-0.43,-0.69,0.44,-0.74,0.00
0.447,-0.38,0.30,0.83,0.19,1.49,-0.43,-0.69,0.44,-0.74,0.00
0.448,-0.38,0.30,0.83,0.19,1.49,-0.43,-0.72,0.45,-0.73,0.00
0.448,-0.38,0.30,0.83,0.23,1.41,-0.70,-0.72,0.45,-0.73,0.00
0.458,-0.37,0.29,0.79,0.23,1.41,-0.70,-0.72,0.45,-0.73,0.00
0.458,-0.37,0.29,0.79,0.23,1.41,-0.70,-0.74,0.48,-0.71,0.00
0.459,-0.37,0.29,0.79,0.34,1.36,-1.11,-0.74,0.48,-0.71,0.00
0.473,-0.37,0.26,0.72,0.34,1.36,-1.11,-0.74,0.48,-0.71,0.00
0.474,-0.37,0.26,0.72,0.34,1.36,-1.11,-0.74,0.55,-0.70,0.00
0.475,-0.37,0.26,0.72,0.38,1.15,-1.74,-0.74,0.55,-0.70,0.00
0.483,-0.37,0.21,0.65,0.38,1.15,-1.74,-0.74,0.55,-0.70,0.00
0.484,-0.37,0.21,0.65,0.38,1.15,-1.74,-0.73,0.68,-0.71,0.00
0.485,-0.37,0.21,0.65,0.44,0.83,-2.42,-0.73,0.68,-0.71,0.00
0.485,-0.38,0.16,0.59,0.44,0.83,-2.42,-0.73,0.68,-0.71,0.00
0.486,-0.38,0.16,0.59,0.44,0.83,-2.42,-0.74,0.86,-0.74,0.00
0.487,-0.38,0.16,0.59,0.48,0.38,-3.01,-0.74,0.86,-0.74,0.00
0.512,-0.38,0.08,0.51,0.48,0.38,-3.01,-0.74,0.86,-0.74,0.00
0.513,-0.38,0.08,0.51,0.48,0.38,-3.01,-0.74,1.06,-0.79,0.00
0.514,-0.38,0.08,0.51,0.57,-0.31,-3.78,-0.74,1.06,-0.79,0.00
0.515,-0.42,-0.04,0.50,0.57,-0.31,-3.78,-0.74,1.06,-0.79,0.00
0.515,-0.42,-0.04,0.50,0.57,-0.31,-3.78,-0.72,1.28,-0.87,0.00
0.516,-0.42,-0.04,0.50,0.33,-1.34,-3.79,-0.72,1.28,-0.87,0.00
0.535,-0.50,-0.22,0.53,0.33,-1.34,-3.79,-0.72,1.28,-0.87,0.00
0.537,-0.50,-0.22,0.53,0.33,-1.34,-3.79,-0.67,1.53,-0.97,0.00
0.538,-0.50,-0.22,0.53,-0.31,-2.99,-3.45,-0.67,1.53,-0.97,0.00
0.539,-0.53,-0.40,0.48,-0.31,-2.99,-3.45,-0.67,1.53,-0.97,0.00
0.539,-0.53,-0.40,0.48,-0.31,-2.99,-3.45,-0.57,1.79,-1.07,0.00
0.54,-0.53,-0.40,0.48,-0.49,-4.67,-3.87,-0.57,1.79,-1.07,0.00
0.541,-0.56,-0.46,0.43,-0.49,-4.67,-3.87,-0.57,1.79,-1.07,0.00
0.542,-0.56,-0.46,0.43,-0.49,-4.67,-3.87,-0.42,2.00,-1.18,0.00
0.543,-0.56,-0.46,0.43,-0.62,-5.18,-4.25,-0.42,2.00,-1.18,0.00
0.551,-0.55,-0.50,0.33,-0.62,-5.18,-4.25,-0.42,2.00,-1.18,0.00
0.552,-0.55,-0.50,0.33,-0.62,-5.18,-4.25,-0.28,2.12,-1.28,0.00
0.553,-0.55,-0.50,0.33,-0.29,-5.51,-5.17,-0.28,2.12,-1.28,0.00
0.558,-0.52,-0.55,0.26,-0.29,-5.51,-5.17,-0.28,2.12,-1.28,0.00
0.559,-0.52,-0.55,0.26,-0.29,-5.51,-5.17,-0.16,2.28,-1.39,0.00
0.56,-0.52,-0.55,0.26,0.18,-5.88,-5.67,-0.16,2.28,-1.39,0.00
0.574,-0.54,-0.63,0.29,0.18,-5.88,-5.67,-0.16,2.28,-1.39,0.00
0.575,-0.54,-0.63,0.29,0.18,-5.88,-5.67,-0.13,2.56,-1.54,0.00
0.576,-0.54,-0.63,0.29,0.27,-6.56,-5.25,-0.13,2.56,-1.54,0.00
0.579,-0.66,-0.77,0.42,0.27,-6.56,-5.25,-0.13,2.56,-1.54,0.00
0.58,-0.66,-0.77,0.42,0.27,-6.56,-5.25,-0.22,2.91,-1.77,0.00
0.58,-0.66,-0.77,0.42,-0.73,-7.79,-3.79,-0.22,2.91,-1.77,0.00
0.605,-0.82,-0.96,0.55,-0.73,-7.79,-3.79,-0.22,2.91,-1.77,0.00
0.606,-0.82,-0.96,0.55,-0.73,-7.79,-3.79,-0.41,3.18,-2.05,0.00
0.607,-0.82,-0.96,0.55,-2.05,-9.52,-2.35,-0.41,3.18,-2.05,0.00
0.607,-1.04,-1.10,0.72,-2.05,-9.52,-2.35,-0.41,3.18,-2.05,0.00
0.608,-1.04,-1.10,0.72,-2.05,-9.52,-2.35,-0.63,3.33,-2.37,0.00
0.609,-1.04,-1.10,0.72,-3.88,-10.71,-0.52,-0.63,3.33,-2.37,0.00
0.61,-1.19,-1.20,0.83,-3.88,-10.71,-0.52,-0.63,3.33,-2.37,0.00
0.61,-1.19,-1.20,0.83,-3.88,-10.71,-0.52,-0.88,3.21,-2.71,0.00
0.611,-1.19,-1.20,0.83,-5.13,-11.45,0.82,-0.88,3.21,-2.71,0.00
0.622,-1.26,-1.23,0.89,-5.13,-11.45,0.82,-0.88,3.21,-2.71,0.00
0.623,-1.26,-1.23,0.89,-5.13,-11.45,0.82,-1.10,2.87,-3.06,0.00
0.624,-1.26,-1.23,0.89,-5.66,-11.46,1.61,-1.10,2.87,-3.06,0.00
0.632,-1.23,-1.25,0.91,-5.66,-11.46,1.61,-1.10,2.87,-3.06,0.00
0.633,-1.23,-1.25,0.91,-5.66,-11.46,1.61,-1.31,2.45,-3.41,0.00
0.634,-1.23,-1.25,0.91,-5.22,-11.31,1.93,-1.31,2.45,-3.41,0.00
0.638,-1.16,-1.24,0.88,-5.22,-11.31,1.93,-1.31,2.45,-3.41,0.00
0.639,-1.16,-1.24,0.88,-5.22,-11.31,1.93,-1.50,2.14,-3.74,0.00
0.64,-1.16,-1.24,0.88,-4.44,-10.84,1.82,-1.50,2.14,-3.74,0.00
0.648,-1.11,-1.21,0.86,-4.44,-10.84,1.82,-1.50,2.14,-3.74,0.00
0.649,-1.11,-1.21,0.86,-4.44,-10.84,1.82,-1.69,2.05,-4.05,0.00
0.65,-1.11,-1.21,0.86,-3.83,-10.15,1.83,-1.69,2.05,-4.05,0.00
0.658,-1.18,-1.17,0.90,-3.83,-10.15,1.83,-1.69,2.05,-4.05,0.00
0.659,-1.18,-1.17,0.90,-3.83,-10.15,1.83,-1.89,2.11,-4.34,0.00
0.66,-1.18,-1.17,0.90,-4.50,-9.34,2.41,-1.89,2.11,-4.34,0.00
0.672,-1.37,-1.11,1.00,-4.50,-9.34,2.41,-1.89,2.11,-4.34,0.00
0.674,-1.37,-1.11,1.00,-4.50,-9.34,2.41,-2.10,2.18,-4.59,0.00
0.674,-1.37,-1.11,1.00,-6.33,-8.29,3.60,-2.10,2.18,-4.59,0.00
0.691,-1.49,-1.05,1.20,-6.33,-8.29,3.60,-2.10,2.18,-4.59,0.00
0.692,-1.49,-1.05,1.20,-6.33,-8.29,3.60,-2.36,2.13,-4.74,0.00
0.692,-1.49,-1.05,1.20,-7.52,-7.21,5.74,-2.36,2.13,-4.74,0.00
0.693,-1.51,-1.00,1.44,-7.52,-7.21,5.74,-2.36,2.13,-4.74,0.00
0.694,-1.51,-1.00,1.44,-7.52,-7.21,5.74,-2.63,1.86,-4.84,0.00
0.695,-1.51,-1.00,1.44,-7.73,-6.21,8.28,-2.63,1.86,-4.84,0.00
0.696,-1.49,-0.91,1.65,-7.73,-6.21,8.28,-2.63,1.86,-4.84,0.00
0.696,-1.49,-0.91,1.65,-7.73,-6.21,8.28,-2.88,1.34,-4.90,0.00
0.697,-1.49,-0.91,1.65,-7.69,-4.81,10.55,-2.88,1.34,-4.90,0.00
0.708,-1.45,-0.79,1.79,-7.69,-4.81,10.55,-2.88,1.34,-4.90,0.00
0.709,-1.45,-0.79,1.79,-7.69,-4.81,10.55,-3.08,0.66,-4.93,0.00
0.711,-1.45,-0.79,1.79,-7.40,-3.18,12.13,-3.08,0.66,-4.93,0.00
0.731,-1.37,-0.61,1.86,-7.40,-3.18,12.13,-3.08,0.66,-4.93,0.00
0.732,-1.37,-0.61,1.86,-7.40,-3.18,12.13,-3.20,-0.04,-4.90,0.00
0.733,-1.37,-0.61,1.86,-6.93,-0.86,12.97,-3.20,-0.04,-4.90,0.00
0.734,-1.36,-0.41,1.81,-6.93,-0.86,12.97,-3.20,-0.04,-4.90,0.00
0.734,-1.36,-0.41,1.81,-6.93,-0.86,12.97,-3.18,-0.61,-4.82,0.00
0.735,-1.36,-0.41,1.81,-7.05,1.57,12.65,-3.18,-0.61,-4.82,0.00
0.74,-1.51,-0.13,1.48,-7.05,1.57,12.65,-3.18,-0.61,-4.82,0.00
0.741,-1.51,-0.13,1.48,-7.05,1.57,12.65,-2.97,-1.02,-4.64,0.00
0.742,-1.51,-0.13,1.48,-8.87,4.77,9.47,-2.97,-1.02,-4.64,0.00
0.75,-1.53,0.12,1.25,-8.87,4.77,9.47,-2.97,-1.02,-4.64,0.00
0.751,-1.53,0.12,1.25,-8.87,4.77,9.47,-2.69,-1.19,-4.30,0.00
0.752,-1.53,0.12,1.25,-9.36,7.56,7.38,-2.69,-1.19,-4.30,0.00
0.763,-1.44,0.30,1.17,-9.36,7.56,7.38,-2.69,-1.19,-4.30,0.00
0.764,-1.44,0.30,1.17,-9.36,7.56,7.38,-2.44,-1.07,-3.79,0.00
0.765,-1.44,0.30,1.17,-8.82,9.69,6.69,-2.44,-1.07,-3.79,0.00
0.771,-1.40,0.52,1.25,-8.82,9.69,6.69,-2.44,-1.07,-3.79,0.00
0.772,-1.40,0.52,1.25,-8.82,9.69,6.69,-2.15,-0.85,-3.26,0.00
0.773,-1.40,0.52,1.25,-8.68,12.07,7.57,-2.15,-0.85,-3.26,0.00
0.78,-1.37,0.71,1.33,-8.68,12.07,7.57,-2.15,-0.85,-3.26,0.00
0.781,-1.37,0.71,1.33,-8.68,12.07,7.57,-1.83,-0.61,-2.76,0.00
0.782,-1.37,0.71,1.33,-8.59,14.21,8.43,-1.83,-0.61,-2.76,0.00
0.789,-1.29,0.88,1.30,-8.59,14.21,8.43,-1.83,-0.61,-2.76,0.00
0.791,-1.29,0.88,1.30,-8.59,14.21,8.43,-1.45,-0.44,-2.28,0.00
0.792,-1.29,0.88,1.30,-8.07,15.97,8.20,-1.45,-0.44,-2.28,0.00
0.806,-1.28,1.02,1.12,-8.07,15.97,8.20,-1.45,-0.44,-2.28,0.00
0.808,-1.28,1.02,1.12,-8.07,15.97,8.20,-0.99,-0.44,-1.86,0.00
0.809,-1.28,1.02,1.12,-8.09,17.48,6.48,-0.99,-0.44,-1.86,0.00
0.809,-1.20,1.16,0.95,-8.09,17.48,6.48,-0.99,-0.44,-1.86,0.00
0.811,-1.20,1.16,0.95,-8.09,17.48,6.48,-0.49,-0.51,-1.53,0.00
0.812,-1.20,1.16,0.95,-7.48,18.93,4.89,-0.49,-0.51,-1.53,0.00
0.819,-0.99,1.15,0.77,-7.48,18.93,4.89,-0.49,-0.51,-1.53,0.00
0.82,-0.99,1.15,0.77,-7.48,18.93,4.89,-0.02,-0.54,-1.22,0.00
0.821,-0.99,1.15,0.77,-5.50,18.93,3.09,-0.02,-0.54,-1.22,0.00
0.831,-0.82,1.11,0.65,-5.50,18.93,3.09,-0.02,-0.54,-1.22,0.00
0.832,-0.82,1.11,0.65,-5.50,18.93,3.09,0.43,-0.45,-0.94,0.00
0.832,-0.82,1.11,0.65,-3.96,18.55,1.83,0.43,-0.45,-0.94,0.00
0.841,-0.75,1.17,0.64,-3.96,18.55,1.83,0.43,-0.45,-0.94,0.00
0.841,-0.75,1.17,0.64,-3.96,18.55,1.83,0.86,-0.12,-0.76,0.00
0.842,-0.75,1.17,0.64,-3.30,19.17,1.64,0.86,-0.12,-0.76,0.00
0.858,-0.72,1.13,0.64,-3.30,19.17,1.64,0.86,-0.12,-0.76,0.00
0.859,-0.72,1.13,0.64,-3.30,19.17,1.64,1.23,0.30,-0.59,0.00
0.861,-0.72,1.13,0.64,-3.01,18.74,1.64,1.23,0.30,-0.59,0.00
0.862,-0.80,1.09,0.69,-3.01,18.74,1.64,1.23,0.30,-0.59,0.00
0.862,-0.80,1.09,0.69,-3.01,18.74,1.64,1.57,0.65,-0.42,0.00
0.863,-0.80,1.09,0.69,-3.81,18.28,2.00,1.57,0.65,-0.42,0.00
0.871,-0.77,0.95,0.69,-3.81,18.28,2.00,1.57,0.65,-0.42,0.00
0.871,-0.77,0.95,0.69,-3.81,18.28,2.00,1.89,0.93,-0.23,0.00
0.872,-0.77,0.95,0.69,-3.57,16.83,1.89,1.89,0.93,-0.23,0.00
0.881,-0.71,0.78,0.70,-3.57,16.83,1.89,1.89,0.93,-0.23,0.00
0.882,-0.71,0.78,0.70,-3.57,16.83,1.89,2.21,1.10,-0.01,0.00
0.883,-0.71,0.78,0.70,-2.88,15.04,1.82,2.21,1.10,-0.01,0.00
0.891,-0.75,0.66,0.72,-2.88,15.04,1.82,2.21,1.10,-0.01,0.00
0.892,-0.75,0.66,0.72,-2.88,15.04,1.82,2.52,1.18,0.17,0.00
0.892,-0.75,0.66,0.72,-3.21,13.69,1.95,2.52,1.18,0.17,0.00
0.901,-0.83,0.46,0.76,-3.21,13.69,1.95,2.52,1.18,0.17,0.00
0.902,-0.83,0.46,0.76,-3.21,13.69,1.95,2.80,1.24,0.31,0.00
0.902,-0.83,0.46,0.76,-3.93,11.58,2.12,2.80,1.24,0.31,0.00
0.924,-0.90,0.24,0.78,-3.93,11.58,2.12,2.80,1.24,0.31,0.00
0.926,-0.90,0.24,0.78,-3.93,11.58,2.12,3.05,1.34,0.46,0.00
0.927,-0.90,0.24,0.78,-4.43,9.30,2.17,3.05,1.34,0.46,0.00
0.928,-0.95,-0.01,0.86,-4.43,9.30,2.17,3.05,1.34,0.46,0.00
0.928,-0.95,-0.01,0.86,-4.43,9.30,2.17,3.25,1.55,0.59,0.00
0.929,-0.95,-0.01,0.86,-4.80,6.62,2.81,3.25,1.55,0.59,0.00
0.932,-1.03,-0.38,0.96,-4.80,6.62,2.81,3.25,1.55,0.59,0.00
0.933,-1.03,-0.38,0.96,-4.80,6.62,2.81,3.36,1.90,0.65,0.00
0.933,-1.03,-0.38,0.96,-5.46,2.73,3.70,3.36,1.90,0.65,0.00
0.941,-1.15,-0.81,1.17,-5.46,2.73,3.70,3.36,1.90,0.65,0.00
0.942,-1.15,-0.81,1.17,-5.46,2.73,3.70,3.31,2.40,0.65,0.00
0.942,-1.15,-0.81,1.17,-6.45,-1.67,5.66,3.31,2.40,0.65,0.00
0.953,-1.38,-1.09,1.52,-6.45,-1.67,5.66,3.31,2.40,0.65,0.00
0.954,-1.38,-1.09,1.52,-6.45,-1.67,5.66,3.14,2.97,0.58,0.00
0.955,-1.38,-1.09,1.52,-8.54,-4.67,9.05,3.14,2.97,0.58,0.00
0.962,-1.69,-1.42,1.81,-8.54,-4.67,9.05,3.14,2.97,0.58,0.00
0.964,-1.69,-1.42,1.81,-8.54,-4.67,9.05,2.94,3.35,0.50,0.00
0.964,-1.69,-1.42,1.81,-11.27,-8.08,11.90,2.94,3.35,0.50,0.00
0.972,-1.85,-1.83,2.03,-11.27,-8.08,11.90,2.94,3.35,0.50,0.00
0.972,-1.85,-1.83,2.03,-11.27,-8.08,11.90,2.83,3.30,0.51,0.00
0.973,-1.85,-1.83,2.03,-12.63,-12.27,14.01,2.83,3.30,0.51,0.00
0.982,-1.78,-2.02,2.06,-12.63,-12.27,14.01,2.83,3.30,0.51,0.00
0.983,-1.78,-2.02,2.06,-12.63,-12.27,14.01,2.77,2.82,0.51,0.00
0.983,-1.78,-2.02,2.06,-11.81,-14.37,14.38,2.77,2.82,0.51,0.00
0.992,-1.58,-2.05,1.90,-11.81,-14.37,14.38,2.77,2.82,0.51,0.00
0.993,-1.58,-2.05,1.90,-11.81,-14.37,14.38,2.77,2.07,0.42,0.00
0.994,-1.58,-2.05,1.90,-9.64,-14.85,12.69,2.77,2.07,0.42,0.00
1.002,-1.23,-2.02,1.63,-9.64,-14.85,12.69,2.77,2.07,0.42,0.00
1.003,-1.23,-2.02,1.63,-9.64,-14.85,12.69,2.78,1.48,0.31,0.00
1.004,-1.23,-2.02,1.63,-6.12,-14.68,10.03,2.78,1.48,0.31,0.00
1.013,-0.88,-1.91,1.51,-6.12,-14.68,10.03,2.78,1.48,0.31,0.00
1.014,-0.88,-1.91,1.51,-6.12,-14.68,10.03,2.77,1.41,0.16,0.00
1.015,-0.88,-1.91,1.51,-2.56,-13.86,8.76,2.77,1.41,0.16,0.00
1.022,-0.65,-1.82,1.38,-2.56,-13.86,8.76,2.77,1.41,0.16,0.00
1.023,-0.65,-1.82,1.38,-2.56,-13.86,8.76,2.75,1.74,-0.11,0.00
1.024,-0.65,-1.82,1.38,-0.23,-13.10,7.54,2.75,1.74,-0.11,0.00
1.033,-0.62,-1.65,1.28,-0.23,-13.10,7.54,2.75,1.74,-0.11,0.00
1.034,-0.62,-1.65,1.28,-0.23,-13.10,7.54,2.71,2.16,-0.51,0.00
1.034,-0.62,-1.65,1.28,0.19,-11.53,6.56,2.71,2.16,-0.51,0.00
1.042,-0.62,-1.48,1.17,0.19,-11.53,6.56,2.71,2.16,-0.51,0.00
1.043,-0.62,-1.48,1.17,0.19,-11.53,6.56,2.60,2.47,-0.91,0.00
1.044,-0.62,-1.48,1.17,0.28,-10.03,5.52,2.60,2.47,-0.91,0.00
1.058,-0.61,-1.33,1.13,0.28,-10.03,5.52,2.60,2.47,-0.91,0.00
1.06,-0.61,-1.33,1.13,0.28,-10.03,5.52,2.42,2.55,-1.23,0.00
1.06,-0.61,-1.33,1.13,0.45,-8.59,5.16,2.42,2.55,-1.23,0.00
1.064,-0.54,-1.23,1.08,0.45,-8.59,5.16,2.42,2.55,-1.23,0.00
1.065,-0.54,-1.23,1.08,0.45,-8.59,5.16,2.19,2.35,-1.45,0.00
1.065,-0.54,-1.23,1.08,1.24,-7.69,4.69,2.19,2.35,-1.45,0.00
1.073,-0.42,-1.12,1.01,1.24,-7.69,4.69,2.19,2.35,-1.45,0.00
1.073,-0.42,-1.12,1.01,1.24,-7.69,4.69,1.95,1.92,-1.60,0.00
1.074,-0.42,-1.12,1.01,2.39,-6.56,4.01,1.95,1.92,-1.60,0.00
1.083,-0.28,-0.99,0.88,2.39,-6.56,4.01,1.95,1.92,-1.60,0.00
1.084,-0.28,-0.99,0.88,2.39,-6.56,4.01,1.72,1.36,-1.70,0.00
1.085,-0.28,-0.99,0.88,3.76,-5.33,2.84,1.72,1.36,-1.70,0.00
1.094,-0.13,-0.84,0.69,3.76,-5.33,2.84,1.72,1.36,-1.70,0.00
1.095,-0.13,-0.84,0.69,3.76,-5.33,2.84,1.53,0.78,-1.76,0.00
1.097,-0.13,-0.84,0.69,5.26,-3.82,0.96,1.53,0.78,-1.76,0.00
1.104,-0.01,-0.67,0.45,5.26,-3.82,0.96,1.53,0.78,-1.76,0.00
1.105,-0.01,-0.67,0.45,5.26,-3.82,0.96,1.37,0.27,-1.78,0.00
1.106,-0.01,-0.67,0.45,6.40,-2.06,-1.52,1.37,0.27,-1.78,0.00
1.114,0.10,-0.47,0.18,6.40,-2.06,-1.52,1.37,0.27,-1.78,0.00
1.115,0.10,-0.47,0.18,6.40,-2.06,-1.52,1.23,-0.14,-1.76,0.00
1.116,0.10,-0.47,0.18,7.31,-0.10,-4.15,1.23,-0.14,-1.76,0.00
1.124,0.21,-0.33,-0.05,7.31,-0.10,-4.15,1.23,-0.14,-1.76,0.00
1.124,0.21,-0.33,-0.05,7.31,-0.10,-4.15,1.08,-0.44,-1.66,0.00
1.125,0.21,-0.33,-0.05,8.29,1.29,-6.56,1.08,-0.44,-1.66,0.00
1.134,0.30,-0.22,-0.24,8.29,1.29,-6.56,1.08,-0.44,-1.66,0.00
1.135,0.30,-0.22,-0.24,8.29,1.29,-6.56,0.92,-0.60,-1.51,0.00
1.136,0.30,-0.22,-0.24,9.06,2.46,-8.50,0.92,-0.60,-1.51,0.00
1.145,0.34,-0.14,-0.40,9.06,2.46,-8.50,0.92,-0.60,-1.51,0.00
1.145,0.34,-0.14,-0.40,9.06,2.46,-8.50,0.73,-0.61,-1.32,0.00
1.146,0.34,-0.14,-0.40,9.39,3.27,-10.14,0.73,-0.61,-1.32,0.00
1.16,0.33,-0.04,-0.49,9.39,3.27,-10.14,0.73,-0.61,-1.32,0.00
1.162,0.33,-0.04,-0.49,9.39,3.27,-10.14,0.50,-0.49,-1.14,0.00
1.163,0.33,-0.04,-0.49,9.23,4.25,-10.98,0.50,-0.49,-1.14,0.00
1.164,0.31,0.02,-0.51,9.23,4.25,-10.98,0.50,-0.49,-1.14,0.00
1.165,0.31,0.02,-0.51,9.23,4.25,-10.98,0.20,-0.34,-0.95,0.00
1.166,0.31,0.02,-0.51,8.91,4.90,-11.27,0.20,-0.34,-0.95,0.00
1.175,0.31,0.05,-0.51,8.91,4.90,-11.27,0.20,-0.34,-0.95,0.00
1.176,0.31,0.05,-0.51,8.91,4.90,-11.27,-0.12,-0.23,-0.77,0.00
1.176,0.31,0.05,-0.51,8.92,5.21,-11.29,-0.12,-0.23,-0.77,0.00
1.185,0.32,0.04,-0.46,8.92,5.21,-11.29,-0.12,-0.23,-0.77,0.00
1.186,0.32,0.04,-0.46,8.92,5.21,-11.29,-0.46,-0.21,-0.63,0.00
1.187,0.32,0.04,-0.46,8.96,5.23,-10.81,-0.46,-0.21,-0.63,0.00
1.197,0.26,0.07,-0.38,8.96,5.23,-10.81,-0.46,-0.21,-0.63,0.00
1.199,0.26,0.07,-0.38,8.96,5.23,-10.81,-0.79,-0.32,-0.53,0.00
1.2,0.26,0.07,-0.38,8.32,5.56,-9.94,-0.79,-0.32,-0.53,0.00
1.206,0.20,0.02,-0.33,8.32,5.56,-9.94,-0.79,-0.32,-0.53,0.00
1.207,0.20,0.02,-0.33,8.32,5.56,-9.94,-1.08,-0.50,-0.44,0.00
1.208,0.20,0.02,-0.33,7.71,5.22,-9.48,-1.08,-0.50,-0.44,0.00
1.215,0.13,-0.05,-0.25,7.71,5.22,-9.48,-1.08,-0.50,-0.44,0.00
1.217,0.13,-0.05,-0.25,7.71,5.22,-9.48,-1.34,-0.69,-0.32,0.00
1.217,0.13,-0.05,-0.25,6.95,4.57,-8.63,-1.34,-0.69,-0.32,0.00
1.225,0.04,-0.17,-0.22,6.95,4.57,-8.63,-1.34,-0.69,-0.32,0.00
1.226,0.04,-0.17,-0.22,6.95,4.57,-8.63,-1.58,-0.80,-0.21,0.00
1.227,0.04,-0.17,-0.22,6.01,3.54,-8.32,-1.58,-0.80,-0.21,0.00
1.235,-0.06,-0.32,-0.20,6.01,3.54,-8.32,-1.58,-0.80,-0.21,0.00
1.235,-0.06,-0.32,-0.20,6.01,3.54,-8.32,-1.82,-0.86,-0.13,0.00
1.236,-0.06,-0.32,-0.20,4.95,2.24,-8.04,-1.82,-0.86,-0.13,0.00
1.259,-0.21,-0.44,-0.16,4.95,2.24,-8.04,-1.82,-0.86,-0.13,0.00
1.26,-0.21,-0.44,-0.16,4.95,2.24,-8.04,-2.02,-0.87,-0.04,0.00
1.261,-0.21,-0.44,-0.16,3.39,1.11,-7.65,-2.02,-0.87,-0.04,0.00
1.262,-0.40,-0.55,-0.11,3.39,1.11,-7.65,-2.02,-0.87,-0.04,0.00
1.263,-0.40,-0.55,-0.11,3.39,1.11,-7.65,-2.17,-0.81,0.08,0.00
1.264,-0.40,-0.55,-0.11,1.53,0.21,-7.06,-2.17,-0.81,0.08,0.00
1.271,-0.56,-0.72,0.02,1.53,0.21,-7.06,-2.17,-0.81,0.08,0.00
1.272,-0.56,-0.72,0.02,1.53,0.21,-7.06,-2.28,-0.72,0.25,0.00
1.273,-0.56,-0.72,0.02,-0.08,-1.32,-5.71,-2.28,-0.72,0.25,0.00
1.274,-0.73,-0.92,0.27,-0.08,-1.32,-5.71,-2.28,-0.72,0.25,0.00
1.275,-0.73,-0.92,0.27,-0.08,-1.32,-5.71,-2.37,-0.58,0.46,0.00
1.276,-0.73,-0.92,0.27,-1.76,-3.16,-3.13,-2.37,-0.58,0.46,0.00
1.287,-0.91,-1.18,0.53,-1.76,-3.16,-3.13,-2.37,-0.58,0.46,0.00
1.288,-0.91,-1.18,0.53,-1.76,-3.16,-3.13,-2.48,-0.45,0.65,0.00
1.289,-0.91,-1.18,0.53,-3.56,-5.65,-0.49,-2.48,-0.45,0.65,0.00
1.297,-1.01,-1.46,0.88,-3.56,-5.65,-0.49,-2.48,-0.45,0.65,0.00
1.299,-1.01,-1.46,0.88,-3.56,-5.65,-0.49,-2.65,-0.36,0.83,0.00
1.299,-1.01,-1.46,0.88,-4.42,-8.30,3.09,-2.65,-0.36,0.83,0.00
1.305,-1.26,-1.53,1.24,-4.42,-8.30,3.09,-2.65,-0.36,0.83,0.00
1.306,-1.26,-1.53,1.24,-4.42,-8.30,3.09,-2.89,-0.43,0.93,0.00
1.306,-1.26,-1.53,1.24,-6.92,-8.88,6.76,-2.89,-0.43,0.93,0.00
1.316,-1.54,-1.53,1.40,-6.92,-8.88,6.76,-2.89,-0.43,0.93,0.00
1.317,-1.54,-1.53,1.40,-6.92,-8.88,6.76,-3.02,-0.75,0.95,0.00
1.318,-1.54,-1.53,1.40,-9.61,-8.76,8.50,-3.02,-0.75,0.95,0.00
1.325,-1.56,-1.51,1.36,-9.61,-8.76,8.50,-3.02,-0.75,0.95,0.00
1.326,-1.56,-1.51,1.36,-9.61,-8.76,8.50,-2.94,-1.26,1.07,0.00
1.327,-1.56,-1.51,1.36,-9.82,-8.48,8.22,-2.94,-1.26,1.07,0.00
1.335,-1.44,-1.53,1.27,-9.82,-8.48,8.22,-2.94,-1.26,1.07,0.00
1.336,-1.44,-1.53,1.27,-9.82,-8.48,8.22,-2.79,-1.65,1.25,0.00
1.337,-1.44,-1.53,1.27,-8.63,-8.61,7.47,-2.79,-1.65,1.25,0.00
1.347,-1.31,-1.57,1.31,-8.63,-8.61,7.47,-2.79,-1.65,1.25,0.00
1.348,-1.31,-1.57,1.31,-8.63,-8.61,7.47,-2.71,-1.73,1.36,0.00
1.348,-1.31,-1.57,1.31,-7.35,-8.92,7.96,-2.71,-1.73,1.36,0.00
1.357,-1.23,-1.56,1.45,-7.35,-8.92,7.96,-2.71,-1.73,1.36,0.00
1.358,-1.23,-1.56,1.45,-7.35,-8.92,7.96,-2.68,-1.53,1.37,0.00
1.359,-1.23,-1.56,1.45,-6.58,-8.75,9.35,-2.68,-1.53,1.37,0.00
1.381,-1.22,-1.50,1.56,-6.58,-8.75,9.35,-2.68,-1.53,1.37,0.00
1.383,-1.22,-1.50,1.56,-6.58,-8.75,9.35,-2.59,-1.31,1.31,0.00
1.384,-1.22,-1.50,1.56,-6.40,-8.09,10.61,-2.59,-1.31,1.31,0.00
1.385,-1.22,-1.35,1.60,-6.40,-8.09,10.61,-2.59,-1.31,1.31,0.00
1.385,-1.22,-1.35,1.60,-6.40,-8.09,10.61,-2.45,-1.22,1.20,0.00
1.386,-1.22,-1.35,1.60,-6.44,-6.59,11.07,-2.45,-1.22,1.20,0.00
1.387,-1.21,-1.14,1.58,-6.44,-6.59,11.07,-2.45,-1.22,1.20,0.00
1.388,-1.21,-1.14,1.58,-6.44,-6.59,11.07,-2.29,-1.23,1.08,0.00
1.389,-1.21,-1.14,1.58,-6.29,-4.49,10.94,-2.29,-1.23,1.08,0.00
1.397,-1.16,-0.92,1.51,-6.29,-4.49,10.94,-2.29,-1.23,1.08,0.00
1.398,-1.16,-0.92,1.51,-6.29,-4.49,10.94,-2.13,-1.30,1.00,0.00
1.399,-1.16,-0.92,1.51,-5.84,-2.31,10.34,-2.13,-1.30,1.00,0.00
1.409,-1.11,-0.70,1.44,-5.84,-2.31,10.34,-2.13,-1.30,1.00,0.00
1.411,-1.11,-0.70,1.44,-5.84,-2.31,10.34,-1.95,-1.38,0.95,0.00
1.412,-1.11,-0.70,1.44,-5.33,-0.09,9.65,-1.95,-1.38,0.95,0.00
1.418,-1.02,-0.48,1.34,-5.33,-0.09,9.65,-1.95,-1.38,0.95,0.00
1.419,-1.02,-0.48,1.34,-5.33,-0.09,9.65,-1.77,-1.46,0.92,0.00
1.419,-1.02,-0.48,1.34,-4.43,2.08,8.80,-1.77,-1.46,0.92,0.00
1.427,-0.90,-0.25,1.25,-4.43,2.08,8.80,-1.77,-1.46,0.92,0.00
1.428,-0.90,-0.25,1.25,-4.43,2.08,8.80,-1.56,-1.54,0.92,0.00
1.429,-0.90,-0.25,1.25,-3.29,4.30,7.88,-1.56,-1.54,0.92,0.00
1.438,-0.78,-0.01,1.14,-3.29,4.30,7.88,-1.56,-1.54,0.92,0.00
1.44,-0.78,-0.01,1.14,-3.29,4.30,7.88,-1.34,-1.58,0.93,0.00
1.441,-0.78,-0.01,1.14,-2.11,6.66,6.81,-1.34,-1.58,0.93,0.00
1.448,-0.69,0.23,1.02,-2.11,6.66,6.81,-1.34,-1.58,0.93,0.00
1.449,-0.69,0.23,1.02,-2.11,6.66,6.81,-1.12,-1.57,0.94,0.00
1.45,-0.69,0.23,1.02,-1.22,9.00,5.64,-1.12,-1.57,0.94,0.00
1.457,-0.63,0.43,0.91,-1.22,9.00,5.64,-1.12,-1.57,0.94,0.00
1.458,-0.63,0.43,0.91,-1.22,9.00,5.64,-0.86,-1.51,0.95,0.00
1.459,-0.63,0.43,0.91,-0.65,11.01,4.48,-0.86,-1.51,0.95,0.00
1.468,-0.58,0.59,0.79,-0.65,11.01,4.48,-0.86,-1.51,0.95,0.00
1.469,-0.58,0.59,0.79,-0.65,11.01,4.48,-0.59,-1.40,0.97,0.00
1.47,-0.58,0.59,0.79,-0.17,12.49,3.28,-0.59,-1.40,0.97,0.00
1.478,-0.55,0.68,0.66,-0.17,12.49,3.28,-0.59,-1.40,0.97,0.00
1.478,-0.55,0.68,0.66,-0.17,12.49,3.28,-0.28,-1.27,1.03,0.00
1.479,-0.55,0.68,0.66,0.14,13.37,1.97,-0.28,-1.27,1.03,0.00
1.5,-0.48,0.74,0.50,0.14,13.37,1.97,-0.28,-1.27,1.03,0.00
1.501,-0.48,0.74,0.50,0.14,13.37,1.97,0.06,-1.16,1.14,0.00
1.502,-0.48,0.74,0.50,0.87,13.86,0.35,0.06,-1.16,1.14,0.00
1.503,-0.41,0.79,0.34,0.87,13.86,0.35,0.06,-1.16,1.14,0.00
1.504,-0.41,0.79,0.34,0.87,13.86,0.35,0.43,-1.07,1.26,0.00
1.505,-0.41,0.79,0.34,1.60,14.25,-1.30,0.43,-1.07,1.26,0.00
1.509,-0.37,0.83,0.20,1.60,14.25,-1.30,0.43,-1.07,1.26,0.00
1.511,-0.37,0.83,0.20,1.60,14.25,-1.30,0.78,-0.94,1.37,0.00
1.511,-0.37,0.83,0.20,2.06,14.57,-2.82,0.78,-0.94,1.37,0.00
1.519,-0.30,0.83,0.09,2.06,14.57,-2.82,0.78,-0.94,1.37,0.00
1.521,-0.30,0.83,0.09,2.06,14.57,-2.82,1.09,-0.71,1.45,0.00
1.522,-0.30,0.83,0.09,2.82,14.43,-4.03,1.09,-0.71,1.45,0.00
1.529,-0.28,0.80,0.07,2.82,14.43,-4.03,1.09,-0.71,1.45,0.00
1.532,-0.28,0.80,0.07,2.82,14.43,-4.03,1.36,-0.41,1.50,0.00
1.533,-0.28,0.80,0.07,3.02,14.02,-4.29,1.36,-0.41,1.50,0.00
1.54,-0.02,0.45,-0.02,3.02,14.02,-4.29,1.36,-0.41,1.50,0.00
1.541,-0.02,0.45,-0.02,3.02,14.02,-4.29,1.51,-0.04,1.52,0.00
1.542,-0.02,0.45,-0.02,5.72,10.39,-5.26,1.51,-0.04,1.52,0.00
1.549,-0.44,0.89,0.39,5.72,10.39,-5.26,1.51,-0.04,1.52,0.00
1.55,-0.44,0.89,0.39,5.72,10.39,-5.26,1.51,0.82,1.42,0.00
1.551,-0.44,0.89,0.39,1.71,14.57,-1.30,1.51,0.82,1.42,0.00
1.557,-0.44,0.55,0.31,1.71,14.57,-1.30,1.51,0.82,1.42,0.00
1.558,-0.44,0.55,0.31,1.71,14.57,-1.30,1.80,0.80,1.48,0.00
1.558,-0.44,0.55,0.31,1.89,11.06,-2.11,1.80,0.80,1.48,0.00
1.568,-0.32,0.41,0.35,1.89,11.06,-2.11,1.80,0.80,1.48,0.00
1.569,-0.32,0.41,0.35,1.89,11.06,-2.11,2.14,0.00,1.65,0.00
1.569,-0.32,0.41,0.35,3.06,9.42,-1.88,2.14,0.00,1.65,0.00
1.578,-0.33,0.42,0.41,3.06,9.42,-1.88,2.14,0.00,1.65,0.00
1.579,-0.33,0.42,0.41,3.06,9.42,-1.88,2.19,0.05,1.54,0.00
1.58,-0.33,0.42,0.41,3.05,9.29,-1.38,2.19,0.05,1.54,0.00
1.596,-0.52,0.37,0.52,3.05,9.29,-1.38,2.19,0.05,1.54,0.00
1.598,-0.52,0.37,0.52,3.05,9.29,-1.38,2.26,0.24,1.35,0.00
1.599,-0.52,0.37,0.52,1.35,8.64,-0.41,2.26,0.24,1.35,0.00
1.599,-0.68,0.25,0.51,1.35,8.64,-0.41,2.26,0.24,1.35,0.00
1.6,-0.68,0.25,0.51,1.35,8.64,-0.41,2.41,0.25,1.24,0.00
1.601,-0.68,0.25,0.51,-0.21,7.23,-0.60,2.41,0.25,1.24,0.00
1.607,-0.76,0.10,0.50,-0.21,7.23,-0.60,2.41,0.25,1.24,0.00
1.607,-0.76,0.10,0.50,-0.21,7.23,-0.60,2.63,0.25,1.23,0.00
1.608,-0.76,0.10,0.50,-0.86,5.53,-0.78,2.63,0.25,1.23,0.00
1.618,-0.83,-0.02,0.56,-0.86,5.53,-0.78,2.63,0.25,1.23,0.00
1.619,-0.83,-0.02,0.56,-0.86,5.53,-0.78,2.88,0.43,1.21,0.00
1.62,-0.83,-0.02,0.56,-1.45,4.10,-0.33,2.88,0.43,1.21,0.00
1.63,-0.97,-0.12,0.64,-1.45,4.10,-0.33,2.88,0.43,1.21,0.00
1.631,-0.97,-0.12,0.64,-1.45,4.10,-0.33,3.11,0.74,1.14,0.00
1.632,-0.97,-0.12,0.64,-2.77,2.87,0.44,3.11,0.74,1.14,0.00
1.642,-1.18,-0.25,0.81,-2.77,2.87,0.44,3.11,0.74,1.14,0.00
1.643,-1.18,-0.25,0.81,-2.77,2.87,0.44,3.25,1.10,1.01,0.00
1.644,-1.18,-0.25,0.81,-4.77,1.29,2.01,3.25,1.10,1.01,0.00
1.649,-1.44,-0.49,1.14,-4.77,1.29,2.01,3.25,1.10,1.01,0.00
1.65,-1.44,-0.49,1.14,-4.77,1.29,2.01,3.26,1.66,0.80,0.00
1.65,-1.44,-0.49,1.14,-7.14,-1.27,5.22,3.26,1.66,0.80,0.00
1.658,-1.82,-0.78,1.61,-7.14,-1.27,5.22,3.26,1.66,0.80,0.00
1.659,-1.82,-0.78,1.61,-7.14,-1.27,5.22,3.12,2.42,0.51,0.00
1.66,-1.82,-0.78,1.61,-10.67,-4.38,9.94,3.12,2.42,0.51,0.00
1.669,-2.19,-1.18,2.00,-10.67,-4.38,9.94,3.12,2.42,0.51,0.00
1.67,-2.19,-1.18,2.00,-10.67,-4.38,9.94,3.04,2.96,0.29,0.00
1.671,-2.19,-1.18,2.00,-14.19,-8.45,13.80,3.04,2.96,0.29,0.00
1.694,-2.24,-1.58,2.08,-14.19,-8.45,13.80,3.04,2.96,0.29,0.00
1.695,-2.24,-1.58,2.08,-14.19,-8.45,13.80,3.10,2.93,0.24,0.00
1.696,-2.24,-1.58,2.08,-14.44,-12.59,14.74,3.10,2.93,0.24,0.00
1.697,-2.17,-1.72,1.88,-14.44,-12.59,14.74,3.10,2.93,0.24,0.00
1.698,-2.17,-1.72,1.88,-14.44,-12.59,14.74,3.19,2.33,0.18,0.00
1.699,-2.17,-1.72,1.88,-13.67,-14.16,12.83,3.19,2.33,0.18,0.00
1.7,-2.02,-1.53,1.52,-13.67,-14.16,12.83,3.19,2.33,0.18,0.00
1.7,-2.02,-1.53,1.52,-13.67,-14.16,12.83,3.22,1.45,0.08,0.00
1.701,-2.02,-1.53,1.52,-12.08,-12.51,9.37,3.22,1.45,0.08,0.00
1.709,-1.72,-1.33,1.23,-12.08,-12.51,9.37,3.22,1.45,0.08,0.00
1.71,-1.72,-1.33,1.23,-12.08,-12.51,9.37,3.16,0.92,0.08,0.00
1.711,-1.72,-1.33,1.23,-9.09,-10.74,6.54,3.16,0.92,0.08,0.00
1.72,-1.43,-1.18,1.07,-9.09,-10.74,6.54,3.16,0.92,0.08,0.00
1.721,-1.43,-1.18,1.07,-9.09,-10.74,6.54,2.99,0.92,0.11,0.00
1.722,-1.43,-1.18,1.07,-6.18,-9.42,5.01,2.99,0.92,0.11,0.00
1.729,-1.24,-1.04,1.05,-6.18,-9.42,5.01,2.99,0.92,0.11,0.00
1.73,-1.24,-1.04,1.05,-6.18,-9.42,5.01,2.76,1.11,0.04,0.00
1.731,-1.24,-1.04,1.05,-4.24,-8.22,4.77,2.76,1.11,0.04,0.00
1.739,-1.10,-0.89,1.02,-4.24,-8.22,4.77,2.76,1.11,0.04,0.00
1.741,-1.10,-0.89,1.02,-4.24,-8.22,4.77,2.52,1.22,-0.11,0.00
1.742,-1.10,-0.89,1.02,-2.86,-6.88,4.55,2.52,1.22,-0.11,0.00
1.751,-0.94,-0.75,0.97,-2.86,-6.88,4.55,2.52,1.22,-0.11,0.00
1.752,-0.94,-0.75,0.97,-2.86,-6.88,4.55,2.31,1.18,-0.30,0.00
1.753,-0.94,-0.75,0.97,-1.24,-5.58,4.17,2.31,1.18,-0.30,0.00
1.759,-0.77,-0.65,0.88,-1.24,-5.58,4.17,2.31,1.18,-0.30,0.00
1.76,-0.77,-0.65,0.88,-1.24,-5.58,4.17,2.08,1.03,-0.53,0.00
1.761,-0.77,-0.65,0.88,0.47,-4.70,3.27,2.08,1.03,-0.53,0.00
1.77,-0.68,-0.52,0.88,0.47,-4.70,3.27,2.08,1.03,-0.53,0.00
1.771,-0.68,-0.52,0.88,0.47,-4.70,3.27,1.83,0.83,-0.76,0.00
1.772,-0.68,-0.52,0.88,1.38,-3.38,3.32,1.83,0.83,-0.76,0.00
1.782,-0.58,-0.48,0.80,1.38,-3.38,3.32,1.83,0.83,-0.76,0.00
1.784,-0.58,-0.48,0.80,1.38,-3.38,3.32,1.56,0.57,-0.94,0.00
1.785,-0.58,-0.48,0.80,2.44,-3.03,2.52,1.56,0.57,-0.94,0.00
1.789,-0.49,-0.46,0.72,2.44,-3.03,2.52,1.56,0.57,-0.94,0.00
1.79,-0.49,-0.46,0.72,2.44,-3.03,2.52,1.29,0.29,-1.03,0.00
1.791,-0.49,-0.46,0.72,3.30,-2.82,1.78,1.29,0.29,-1.03,0.00
1.8,-0.36,-0.46,0.61,3.30,-2.82,1.78,1.29,0.29,-1.03,0.00
1.801,-0.36,-0.46,0.61,3.30,-2.82,1.78,1.08,0.01,-1.06,0.00
1.802,-0.36,-0.46,0.61,4.56,-2.83,0.70,1.08,0.01,-1.06,0.00
1.81,-0.20,-0.45,0.46,4.56,-2.83,0.70,1.08,0.01,-1.06,0.00
1.811,-0.20,-0.45,0.46,4.56,-2.83,0.70,0.93,-0.29,-1.00,0.00
1.811,-0.20,-0.45,0.46,6.11,-2.64,-0.86,0.93,-0.29,-1.00,0.00
1.832,-0.02,-0.41,0.26,6.11,-2.64,-0.86,0.93,-0.29,-1.00,0.00
1.833,-0.02,-0.41,0.26,6.11,-2.64,-0.86,0.86,-0.62,-0.90,0.00
1.834,-0.02,-0.41,0.26,7.75,-2.27,-2.84,0.86,-0.62,-0.90,0.00
1.835,0.12,-0.41,0.06,7.75,-2.27,-2.84,0.86,-0.62,-0.90,0.00
1.836,0.12,-0.41,0.06,7.75,-2.27,-2.84,0.84,-0.90,-0.76,0.00
1.837,0.12,-0.41,0.06,9.13,-2.20,-4.94,0.84,-0.90,-0.76,0.00
1.838,0.26,-0.38,-0.14,9.13,-2.20,-4.94,0.84,-0.90,-0.76,0.00
1.839,0.26,-0.38,-0.14,9.13,-2.20,-4.94,0.86,-1.03,-0.60,0.00
1.839,0.26,-0.38,-0.14,10.42,-1.96,-6.94,0.86,-1.03,-0.60,0.00
1.854,0.39,-0.34,-0.29,10.42,-1.96,-6.94,0.86,-1.03,-0.60,0.00
1.855,0.39,-0.34,-0.29,10.42,-1.96,-6.94,0.88,-0.98,-0.44,0.00
1.855,0.39,-0.34,-0.29,11.57,-1.59,-8.50,0.88,-0.98,-0.44,0.00
1.861,0.46,-0.28,-0.36,11.57,-1.59,-8.50,0.88,-0.98,-0.44,0.00
1.862,0.46,-0.28,-0.36,11.57,-1.59,-8.50,0.83,-0.78,-0.31,0.00
1.865,0.46,-0.28,-0.36,12.23,-1.04,-9.26,0.83,-0.78,-0.31,0.00
1.871,0.46,-0.23,-0.39,12.23,-1.04,-9.26,0.83,-0.78,-0.31,0.00
1.872,0.46,-0.23,-0.39,12.23,-1.04,-9.26,0.70,-0.55,-0.22,0.00
1.873,0.46,-0.23,-0.39,12.26,-0.57,-9.61,0.70,-0.55,-0.22,0.00
1.883,0.46,-0.25,-0.50,12.26,-0.57,-9.61,0.70,-0.55,-0.22,0.00
1.884,0.46,-0.25,-0.50,12.26,-0.57,-9.61,0.48,-0.40,-0.17,0.00
1.885,0.46,-0.25,-0.50,12.20,-0.73,-10.72,0.48,-0.40,-0.17,0.00
1.89,0.36,-0.10,-0.32,12.20,-0.73,-10.72,0.48,-0.40,-0.17,0.00
1.891,0.36,-0.10,-0.32,12.20,-0.73,-10.72,0.23,-0.30,-0.19,0.00
1.892,0.36,-0.10,-0.32,11.18,0.70,-9.07,0.23,-0.30,-0.19,0.00
1.9,0.36,-0.15,-0.30,11.18,0.70,-9.07,0.23,-0.30,-0.19,0.00
1.901,0.36,-0.15,-0.30,11.18,0.70,-9.07,-0.12,-0.42,-0.16,0.00
1.902,0.36,-0.15,-0.30,11.16,0.31,-8.88,-0.12,-0.42,-0.16,0.00
1.911,0.32,-0.17,-0.27,11.16,0.31,-8.88,-0.12,-0.42,-0.16,0.00
1.912,0.32,-0.17,-0.27,11.16,0.31,-8.88,-0.50,-0.69,-0.12,0.00
1.912,0.32,-0.17,-0.27,10.70,0.13,-8.60,-0.50,-0.69,-0.12,0.00
1.929,0.26,-0.26,-0.22,10.70,0.13,-8.60,-0.50,-0.69,-0.12,0.00
1.93,0.26,-0.26,-0.22,10.70,0.13,-8.60,-0.82,-0.82,-0.19,0.00
1.931,0.26,-0.26,-0.22,10.09,-0.70,-8.17,-0.82,-0.82,-0.19,0.00
1.932,0.20,-0.40,-0.21,10.09,-0.70,-8.17,-0.82,-0.82,-0.19,0.00
1.933,0.20,-0.40,-0.21,10.09,-0.70,-8.17,-1.11,-0.82,-0.30,0.00
1.933,0.20,-0.40,-0.21,9.39,-2.00,-8.09,-1.11,-0.82,-0.30,0.00
1.94,0.06,-0.51,-0.16,9.39,-2.00,-8.09,-1.11,-0.82,-0.30,0.00
1.941,0.06,-0.51,-0.16,9.39,-2.00,-8.09,-1.39,-0.71,-0.43,0.00
1.942,0.06,-0.51,-0.16,7.99,-2.92,-7.69,-1.39,-0.71,-0.43,0.00
1.953,-0.12,-0.63,-0.09,7.99,-2.92,-7.69,-1.39,-0.71,-0.43,0.00
1.955,-0.12,-0.63,-0.09,7.99,-2.92,-7.69,-1.65,-0.53,-0.57,0.00
1.955,-0.12,-0.63,-0.09,6.17,-4.03,-6.94,-1.65,-0.53,-0.57,0.00
1.962,-0.35,-0.79,0.08,6.17,-4.03,-6.94,-1.65,-0.53,-0.57,0.00
1.963,-0.35,-0.79,0.08,6.17,-4.03,-6.94,-1.84,-0.32,-0.67,0.00
1.964,-0.35,-0.79,0.08,3.93,-5.36,-5.31,-1.84,-0.32,-0.67,0.00
1.971,-0.61,-0.95,0.27,3.93,-5.36,-5.31,-1.84,-0.32,-0.67,0.00
1.973,-0.61,-0.95,0.27,3.93,-5.36,-5.31,-2.00,-0.14,-0.72,0.00
1.973,-0.61,-0.95,0.27,1.34,-6.77,-3.34,-2.00,-0.14,-0.72,0.00
1.982,-0.90,-1.20,0.57,1.34,-6.77,-3.34,-2.00,-0.14,-0.72,0.00
1.983,-0.90,-1.20,0.57,1.34,-6.77,-3.34,-2.21,-0.06,-0.74,0.00
1.984,-0.90,-1.20,0.57,-1.51,-9.04,-0.35,-2.21,-0.06,-0.74,0.00
1.991,-1.17,-1.45,0.99,-1.51,-9.04,-0.35,-2.21,-0.06,-0.74,0.00
1.991,-1.17,-1.45,0.99,-1.51,-9.04,-0.35,-2.53,-0.12,-0.80,0.00
1.992,-1.17,-1.45,0.99,-4.24,-11.30,3.79,-2.53,-0.12,-0.80,0.00
2.002,-1.51,-1.58,1.31,-4.24,-11.30,3.79,-2.53,-0.12,-0.80,0.00
2.003,-1.51,-1.58,1.31,-4.24,-11.30,3.79,-2.85,-0.31,-0.94,0.00
2.003,-1.51,-1.58,1.31,-7.64,-12.29,7.02,-2.85,-0.31,-0.94,0.00
2.011,-1.91,-1.61,1.45,-7.64,-12.29,7.02,-2.85,-0.31,-0.94,0.00
2.012,-1.91,-1.61,1.45,-7.64,-12.29,7.02,-3.03,-0.66,-1.13,0.00
2.013,-1.91,-1.61,1.45,-11.55,-12.37,8.47,-3.03,-0.66,-1.13,0.00
2.024,-2.13,-1.71,1.51,-11.55,-12.37,8.47,-3.03,-0.66,-1.13,0.00
2.026,-2.13,-1.71,1.51,-11.55,-12.37,8.47,-3.06,-0.97,-1.14,0.00
2.027,-2.13,-1.71,1.51,-13.78,-13.05,9.06,-3.06,-0.97,-1.14,0.00
2.033,-2.20,-1.82,1.60,-13.78,-13.05,9.06,-3.06,-0.97,-1.14,0.00
2.034,-2.20,-1.82,1.60,-13.78,-13.05,9.06,-3.10,-0.99,-0.97,0.00
2.035,-2.20,-1.82,1.60,-14.65,-13.94,9.98,-3.10,-0.99,-0.97,0.00
2.043,-2.33,-1.86,1.69,-14.65,-13.94,9.98,-3.10,-0.99,-0.97,0.00
2.044,-2.33,-1.86,1.69,-14.65,-13.94,9.98,-3.14,-0.81,-0.79,0.00
2.045,-2.33,-1.86,1.69,-16.01,-14.09,10.89,-3.14,-0.81,-0.79,0.00
2.052,-2.32,-1.76,1.72,-16.01,-14.09,10.89,-3.14,-0.81,-0.79,0.00
2.053,-2.32,-1.76,1.72,-16.01,-14.09,10.89,-3.12,-0.73,-0.57,0.00
2.054,-2.32,-1.76,1.72,-15.91,-12.83,11.36,-3.12,-0.73,-0.57,0.00
2.061,-2.22,-1.50,1.70,-15.91,-12.83,11.36,-3.12,-0.73,-0.57,0.00
2.062,-2.22,-1.50,1.70,-15.91,-12.83,11.36,-3.08,-0.92,-0.30,0.00
2.063,-2.22,-1.50,1.70,-14.97,-10.19,11.24,-3.08,-0.92,-0.30,0.00
2.072,-2.04,-1.16,1.60,-14.97,-10.19,11.24,-3.08,-0.92,-0.30,0.00
2.073,-2.04,-1.16,1.60,-14.97,-10.19,11.24,-3.04,-1.25,-0.07,0.00
2.074,-2.04,-1.16,1.60,-13.28,-6.62,10.31,-3.04,-1.25,-0.07,0.00
2.083,-1.79,-0.80,1.48,-13.28,-6.62,10.31,-3.04,-1.25,-0.07,0.00
2.084,-1.79,-0.80,1.48,-13.28,-6.62,10.31,-2.96,-1.52,0.13,0.00
2.085,-1.79,-0.80,1.48,-10.99,-2.95,9.18,-2.96,-1.52,0.13,0.00
2.091,-1.56,-0.43,1.35,-10.99,-2.95,9.18,-2.96,-1.52,0.13,0.00
2.092,-1.56,-0.43,1.35,-10.99,-2.95,9.18,-2.85,-1.66,0.31,0.00
2.093,-1.56,-0.43,1.35,-8.73,0.81,7.94,-2.85,-1.66,0.31,0.00
2.103,-1.32,-0.07,1.19,-8.73,0.81,7.94,-2.85,-1.66,0.31,0.00
2.103,-1.32,-0.07,1.19,-8.73,0.81,7.94,-2.71,-1.71,0.44,0.00
2.104,-1.32,-0.07,1.19,-6.49,4.41,6.38,-2.71,-1.71,0.44,0.00
2.113,-1.08,0.27,1.05,-6.49,4.41,6.38,-2.71,-1.71,0.44,0.00
2.114,-1.08,0.27,1.05,-6.49,4.41,6.38,-2.54,-1.71,0.53,0.00
2.115,-1.08,0.27,1.05,-4.22,7.90,5.05,-2.54,-1.71,0.53,0.00
2.122,-0.84,0.61,0.98,-4.22,7.90,5.05,-2.54,-1.71,0.53,0.00
2.123,-0.84,0.61,0.98,-4.22,7.90,5.05,-2.33,-1.63,0.56,0.00
2.124,-0.84,0.61,0.98,-1.88,11.33,4.37,-2.33,-1.63,0.56,0.00
2.147,-0.69,0.94,0.94,-1.88,11.33,4.37,-2.33,-1.63,0.56,0.00
2.148,-0.69,0.94,0.94,-1.88,11.33,4.37,-2.08,-1.47,0.54,0.00
2.149,-0.69,0.94,0.94,-0.45,14.65,3.93,-2.08,-1.47,0.54,0.00
2.15,-0.66,1.17,0.90,-0.45,14.65,3.93,-2.08,-1.47,0.54,0.00
2.151,-0.66,1.17,0.90,-0.45,14.65,3.93,-1.77,-1.24,0.50,0.00
2.152,-0.66,1.17,0.90,-0.26,16.89,3.64,-1.77,-1.24,0.50,0.00
2.152,-0.66,1.24,0.84,-0.26,16.89,3.64,-1.77,-1.24,0.50,0.00
2.153,-0.66,1.24,0.84,-0.26,16.89,3.64,-1.36,-0.94,0.53,0.00
2.154,-0.66,1.24,0.84,-0.28,17.67,3.02,-1.36,-0.94,0.53,0.00
2.166,-0.60,1.21,0.73,-0.28,17.67,3.02,-1.36,-0.94,0.53,0.00
2.167,-0.60,1.21,0.73,-0.28,17.67,3.02,-0.85,-0.61,0.67,0.00
2.168,-0.60,1.21,0.73,0.38,17.32,1.92,-0.85,-0.61,0.67,0.00
2.177,-0.49,1.17,0.56,0.38,17.32,1.92,-0.85,-0.61,0.67,0.00
2.178,-0.49,1.17,0.56,0.38,17.32,1.92,-0.28,-0.32,0.85,0.00
2.179,-0.49,1.17,0.56,1.44,16.93,0.31,-0.28,-0.32,0.85,0.00
2.198,-0.43,1.14,0.41,1.44,16.93,0.31,-0.28,-0.32,0.85,0.00
2.199,-0.43,1.14,0.41,1.44,16.93,0.31,0.27,-0.10,1.00,0.00
2.2,-0.43,1.14,0.41,2.08,16.60,-1.18,0.27,-0.10,1.00,0.00
2.201,-0.39,1.11,0.33,2.08,16.60,-1.18,0.27,-0.10,1.00,0.00
2.201,-0.39,1.11,0.33,2.08,16.60,-1.18,0.77,0.14,1.14,0.00
2.202,-0.39,1.11,0.33,2.54,16.17,-2.06,0.77,0.14,1.14,0.00
2.204,-0.34,1.05,0.27,2.54,16.17,-2.06,0.77,0.14,1.14,0.00
2.205,-0.34,1.05,0.27,2.54,16.17,-2.06,1.20,0.44,1.28,0.00
2.205,-0.34,1.05,0.27,3.09,15.42,-2.63,1.20,0.44,1.28,0.00
2.216,-0.32,1.00,0.29,3.09,15.42,-2.63,1.20,0.44,1.28,0.00
2.217,-0.32,1.00,0.29,3.09,15.42,-2.63,1.54,0.72,1.40,0.00
2.218,-0.32,1.00,0.29,3.44,14.71,-2.45,1.54,0.72,1.40,0.00
2.229,-0.30,0.90,0.37,3.44,14.71,-2.45,1.54,0.72,1.40,0.00
2.23,-0.30,0.90,0.37,3.44,14.71,-2.45,1.81,0.93,1.49,0.00
2.232,-0.30,0.90,0.37,3.76,13.58,-1.71,1.81,0.93,1.49,0.00
2.249,-0.33,0.76,0.42,3.76,13.58,-1.71,1.81,0.93,1.49,0.00
2.25,-0.33,0.76,0.42,3.76,13.58,-1.71,2.05,1.04,1.55,0.00
2.251,-0.33,0.76,0.42,3.62,11.99,-1.22,2.05,1.04,1.55,0.00
2.252,-0.38,0.62,0.45,3.62,11.99,-1.22,2.05,1.04,1.55,0.00
2.252,-0.38,0.62,0.45,3.62,11.99,-1.22,2.27,1.11,1.60,0.00
2.253,-0.38,0.62,0.45,3.21,10.37,-0.98,2.27,1.11,1.60,0.00
2.255,-0.45,0.53,0.42,3.21,10.37,-0.98,2.27,1.11,1.60,0.00
2.256,-0.45,0.53,0.42,3.21,10.37,-0.98,2.45,1.18,1.67,0.00
2.257,-0.45,0.53,0.42,2.72,9.21,-1.28,2.45,1.18,1.67,0.00
2.276,-0.53,0.48,0.41,2.72,9.21,-1.28,2.45,1.18,1.67,0.00
2.277,-0.53,0.48,0.41,2.72,9.21,-1.28,2.61,1.25,1.76,0.00
2.278,-0.53,0.48,0.41,2.08,8.46,-1.43,2.61,1.25,1.76,0.00
2.279,-0.61,0.44,0.44,2.08,8.46,-1.43,2.61,1.25,1.76,0.00
2.28,-0.61,0.44,0.44,2.08,8.46,-1.43,2.73,1.28,1.88,0.00
2.281,-0.61,0.44,0.44,1.42,7.82,-1.11,2.73,1.28,1.88,0.00
2.282,-0.76,0.41,0.52,1.42,7.82,-1.11,2.73,1.28,1.88,0.00
2.283,-0.76,0.41,0.52,1.42,7.82,-1.11,2.83,1.28,2.00,0.00
2.283,-0.76,0.41,0.52,0.04,7.26,-0.32,2.83,1.28,2.00,0.00
2.296,-0.92,0.36,0.58,0.04,7.26,-0.32,2.83,1.28,2.00,0.00
2.297,-0.92,0.36,0.58,0.04,7.26,-0.32,2.96,1.30,2.16,0.00
2.298,-0.92,0.36,0.58,-1.33,6.41,0.29,2.96,1.30,2.16,0.00
2.302,-1.05,0.24,0.74,-1.33,6.41,0.29,2.96,1.30,2.16,0.00
2.303,-1.05,0.24,0.74,-1.33,6.41,0.29,3.11,1.36,2.35,0.00
2.304,-1.05,0.24,0.74,-2.52,4.84,1.81,3.11,1.36,2.35,0.00
2.314,-1.13,0.10,0.91,-2.52,4.84,1.81,3.11,1.36,2.35,0.00
2.315,-1.13,0.10,0.91,-2.52,4.84,1.81,3.30,1.45,2.54,0.00
2.316,-1.13,0.10,0.91,-3.18,3.10,3.52,3.30,1.45,2.54,0.00
2.324,-1.17,-0.03,1.00,-3.18,3.10,3.52,3.30,1.45,2.54,0.00
2.325,-1.17,-0.03,1.00,-3.18,3.10,3.52,3.54,1.55,2.67,0.00
2.325,-1.17,-0.03,1.00,-3.36,1.42,4.51,3.54,1.55,2.67,0.00
2.349,-1.27,-0.11,1.13,-3.36,1.42,4.51,3.54,1.55,2.67,0.00
2.35,-1.27,-0.11,1.13,-3.36,1.42,4.51,3.73,1.68,2.63,0.00
2.351,-1.27,-0.11,1.13,-4.30,0.23,5.88,3.73,1.68,2.63,0.00
2.352,-1.54,-0.20,1.39,-4.30,0.23,5.88,3.73,1.68,2.63,0.00
2.352,-1.54,-0.20,1.39,-4.30,0.23,5.88,3.70,1.97,2.38,0.00
2.353,-1.54,-0.20,1.39,-6.78,-1.06,8.56,3.70,1.97,2.38,0.00
2.354,-2.13,-0.45,1.87,-6.78,-1.06,8.56,3.70,1.97,2.38,0.00
2.355,-2.13,-0.45,1.87,-6.78,-1.06,8.56,3.32,2.53,1.91,0.00
2.355,-2.13,-0.45,1.87,-12.43,-3.85,13.40,3.32,2.53,1.91,0.00
2.368,-2.70,-0.93,2.36,-12.43,-3.85,13.40,3.32,2.53,1.91,0.00
2.369,-2.70,-0.93,2.36,-12.43,-3.85,13.40,2.74,3.06,1.43,0.00
2.37,-2.70,-0.93,2.36,-17.88,-8.81,18.50,2.74,3.06,1.43,0.00
2.379,-2.70,-1.16,2.45,-17.88,-8.81,18.50,2.74,3.06,1.43,0.00
2.38,-2.70,-1.16,2.45,-17.88,-8.81,18.50,2.48,2.71,1.29,0.00
2.381,-2.70,-1.16,2.45,-17.74,-11.25,19.60,2.48,2.71,1.29,0.00
2.382,-2.30,-1.20,1.93,-17.74,-11.25,19.60,2.48,2.71,1.29,0.00
2.383,-2.30,-1.20,1.93,-17.74,-11.25,19.60,2.61,1.31,1.27,0.00
2.384,-2.30,-1.20,1.93,-13.74,-11.85,14.54,2.61,1.31,1.27,0.00
2.395,-1.68,-1.21,1.32,-13.74,-11.85,14.54,2.61,1.31,1.27,0.00
2.396,-1.68,-1.21,1.32,-13.74,-11.85,14.54,2.77,0.00,1.24,0.00
2.397,-1.68,-1.21,1.32,-7.70,-12.25,8.63,2.77,0.00,1.24,0.00
2.405,-1.24,-1.01,1.03,-7.70,-12.25,8.63,2.77,0.00,1.24,0.00
2.406,-1.24,-1.01,1.03,-7.70,-12.25,8.63,2.74,-0.42,1.09,0.00
2.406,-1.24,-1.01,1.03,-3.35,-10.43,5.75,2.74,-0.42,1.09,0.00
2.417,-1.08,-0.86,0.99,-3.35,-10.43,5.75,2.74,-0.42,1.09,0.00
2.418,-1.08,-0.86,0.99,-3.35,-10.43,5.75,2.49,-0.16,0.73,0.00
2.419,-1.08,-0.86,0.99,-1.80,-9.17,5.35,2.49,-0.16,0.73,0.00
2.425,-0.97,-0.81,1.04,-1.80,-9.17,5.35,2.49,-0.16,0.73,0.00
2.425,-0.97,-0.81,1.04,-1.80,-9.17,5.35,2.18,0.18,0.33,0.00
2.426,-0.97,-0.81,1.04,-0.78,-8.78,5.89,2.18,0.18,0.33,0.00
2.437,-0.82,-0.76,1.01,-0.78,-8.78,5.89,2.18,0.18,0.33,0.00
2.438,-0.82,-0.76,1.01,-0.78,-8.78,5.89,1.90,0.28,-0.09,0.00
2.44,-0.82,-0.76,1.01,0.74,-8.40,5.64,1.90,0.28,-0.09,0.00
2.446,-0.67,-0.72,0.95,0.74,-8.40,5.64,1.90,0.28,-0.09,0.00
2.447,-0.67,-0.72,0.95,0.74,-8.40,5.64,1.65,0.11,-0.59,0.00
2.448,-0.67,-0.72,0.95,2.22,-7.97,5.06,1.65,0.11,-0.59,0.00
2.464,-0.54,-0.66,0.87,2.22,-7.97,5.06,1.65,0.11,-0.59,0.00
2.465,-0.54,-0.66,0.87,2.22,-7.97,5.06,1.41,-0.18,-1.09,0.00
2.466,-0.54,-0.66,0.87,3.52,-7.36,4.27,1.41,-0.18,-1.09,0.00
2.467,-0.37,-0.67,0.64,3.52,-7.36,4.27,1.41,-0.18,-1.09,0.00
2.467,-0.37,-0.67,0.64,3.52,-7.36,4.27,1.22,-0.46,-1.51,0.00
2.468,-0.37,-0.67,0.64,5.20,-7.39,1.99,1.22,-0.46,-1.51,0.00
2.475,-0.27,-0.61,0.37,5.20,-7.39,1.99,1.22,-0.46,-1.51,0.00
2.476,-0.27,-0.61,0.37,5.20,-7.39,1.99,1.02,-0.71,-1.82,0.00
2.476,-0.27,-0.61,0.37,6.16,-6.73,-0.68,1.02,-0.71,-1.82,0.00
2.491,-0.14,-0.58,0.15,6.16,-6.73,-0.68,1.02,-0.71,-1.82,0.00
2.492,-0.14,-0.58,0.15,6.16,-6.73,-0.68,0.81,-0.85,-2.02,0.00
2.493,-0.14,-0.58,0.15,7.38,-6.27,-2.94,0.81,-0.85,-2.02,0.00
2.494,-0.01,-0.52,-0.00,7.38,-6.27,-2.94,0.81,-0.85,-2.02,0.00
2.495,-0.01,-0.52,-0.00,7.38,-6.27,-2.94,0.57,-0.92,-2.12,0.00
2.496,-0.01,-0.52,-0.00,8.61,-5.54,-4.49,0.57,-0.92,-2.12,0.00
2.506,0.10,-0.47,-0.09,8.61,-5.54,-4.49,0.57,-0.92,-2.12,0.00
2.507,0.10,-0.47,-0.09,8.61,-5.54,-4.49,0.30,-1.00,-2.11,0.00
2.508,0.10,-0.47,-0.09,9.65,-4.82,-5.41,0.30,-1.00,-2.11,0.00
2.517,0.22,-0.45,-0.16,9.65,-4.82,-5.41,0.30,-1.00,-2.11,0.00
2.518,0.22,-0.45,-0.16,9.65,-4.82,-5.41,0.07,-1.12,-2.01,0.00
2.519,0.22,-0.45,-0.16,10.79,-4.51,-6.24,0.07,-1.12,-2.01,0.00
2.526,0.31,-0.42,-0.25,10.79,-4.51,-6.24,0.07,-1.12,-2.01,0.00
2.527,0.31,-0.42,-0.25,10.79,-4.51,-6.24,-0.10,-1.26,-1.87,0.00
2.527,0.31,-0.42,-0.25,11.58,-4.02,-7.26,-0.10,-1.26,-1.87,0.00
2.536,0.36,-0.38,-0.33,11.58,-4.02,-7.26,-0.10,-1.26,-1.87,0.00
2.538,0.36,-0.38,-0.33,11.58,-4.02,-7.26,-0.26,-1.33,-1.78,0.00
2.539,0.36,-0.38,-0.33,12.06,-3.43,-8.09,-0.26,-1.33,-1.78,0.00
2.547,0.35,-0.36,-0.39,12.06,-3.43,-8.09,-0.26,-1.33,-1.78,0.00
2.547,0.35,-0.36,-0.39,12.06,-3.43,-8.09,-0.47,-1.31,-1.74,0.00
2.548,0.35,-0.36,-0.39,11.85,-3.11,-8.81,-0.47,-1.31,-1.74,0.00
2.563,0.27,-0.32,-0.37,11.85,-3.11,-8.81,-0.47,-1.31,-1.74,0.00
2.565,0.27,-0.32,-0.37,11.85,-3.11,-8.81,-0.75,-1.21,-1.72,0.00
2.566,0.27,-0.32,-0.37,11.04,-2.55,-8.71,-0.75,-1.21,-1.72,0.00
2.567,0.21,-0.29,-0.34,11.04,-2.55,-8.71,-0.75,-1.21,-1.72,0.00
2.568,0.21,-0.29,-0.34,11.04,-2.55,-8.71,-1.06,-1.16,-1.69,0.00
2.568,0.21,-0.29,-0.34,10.38,-2.01,-8.54,-1.06,-1.16,-1.69,0.00
2.576,0.18,-0.29,-0.30,10.38,-2.01,-8.54,-1.06,-1.16,-1.69,0.00
2.576,0.18,-0.29,-0.30,10.38,-2.01,-8.54,-1.38,-1.22,-1.65,0.00
2.577,0.18,-0.29,-0.30,9.98,-1.83,-8.21,-1.38,-1.22,-1.65,0.00
2.588,0.14,-0.32,-0.24,9.98,-1.83,-8.21,-1.38,-1.22,-1.65,0.00
2.589,0.14,-0.32,-0.24,9.98,-1.83,-8.21,-1.69,-1.33,-1.64,0.00
2.59,0.14,-0.32,-0.24,9.49,-1.93,-7.68,-1.69,-1.33,-1.64,0.00
2.598,0.05,-0.38,-0.19,9.49,-1.93,-7.68,-1.69,-1.33,-1.64,0.00
2.599,0.05,-0.38,-0.19,9.49,-1.93,-7.68,-1.99,-1.41,-1.65,0.00
2.6,0.05,-0.38,-0.19,8.47,-2.24,-7.36,-1.99,-1.41,-1.65,0.00
2.607,-0.08,-0.42,-0.14,8.47,-2.24,-7.36,-1.99,-1.41,-1.65,0.00
2.609,-0.08,-0.42,-0.14,8.47,-2.24,-7.36,-2.25,-1.45,-1.65,0.00
2.61,-0.08,-0.42,-0.14,7.11,-2.37,-6.91,-2.25,-1.45,-1.65,0.00
2.62,-0.21,-0.53,-0.09,7.11,-2.37,-6.91,-2.25,-1.45,-1.65,0.00
2.621,-0.21,-0.53,-0.09,7.11,-2.37,-6.91,-2.47,-1.42,-1.64,0.00
2.622,-0.21,-0.53,-0.09,5.75,-3.13,-6.52,-2.47,-1.42,-1.64,0.00
2.627,-0.28,-0.65,-0.05,5.75,-3.13,-6.52,-2.47,-1.42,-1.64,0.00
2.627,-0.28,-0.65,-0.05,5.75,-3.13,-6.52,-2.63,-1.28,-1.59,0.00
2.628,-0.28,-0.65,-0.05,4.90,-4.12,-6.11,-2.63,-1.28,-1.59,0.00
2.64,-0.44,-0.72,0.06,4.90,-4.12,-6.11,-2.63,-1.28,-1.59,0.00
2.641,-0.44,-0.72,0.06,4.90,-4.12,-6.11,-2.75,-1.03,-1.52,0.00
2.642,-0.44,-0.72,0.06,3.26,-4.46,-5.07,-2.75,-1.03,-1.52,0.00
2.648,-0.61,-0.86,0.20,3.26,-4.46,-5.07,-2.75,-1.03,-1.52,0.00
2.649,-0.61,-0.86,0.20,3.26,-4.46,-5.07,-2.80,-0.68,-1.45,0.00
2.65,-0.61,-0.86,0.20,1.51,-5.60,-3.71,-2.80,-0.68,-1.45,0.00
2.657,-0.79,-0.99,0.33,1.51,-5.60,-3.71,-2.80,-0.68,-1.45,0.00
2.658,-0.79,-0.99,0.33,1.51,-5.60,-3.71,-2.78,-0.35,-1.33,0.00
2.659,-0.79,-0.99,0.33,-0.33,-6.64,-2.34,-2.78,-0.35,-1.33,0.00
2.681,-1.08,-1.10,0.52,-0.33,-6.64,-2.34,-2.78,-0.35,-1.33,0.00
2.682,-1.08,-1.10,0.52,-0.33,-6.64,-2.34,-2.76,-0.16,-1.19,0.00
2.683,-1.08,-1.10,0.52,-3.13,-7.41,-0.39,-2.76,-0.16,-1.19,0.00
2.684,-1.33,-1.27,0.71,-3.13,-7.41,-0.39,-2.76,-0.16,-1.19,0.00
2.685,-1.33,-1.27,0.71,-3.13,-7.41,-0.39,-2.80,-0.09,-1.07,0.00
2.686,-1.33,-1.27,0.71,-5.71,-8.86,1.60,-2.80,-0.09,-1.07,0.00
2.687,-1.58,-1.42,1.00,-5.71,-8.86,1.60,-2.80,-0.09,-1.07,0.00
2.688,-1.58,-1.42,1.00,-5.71,-8.86,1.60,-2.99,-0.09,-1.00,0.00
2.688,-1.58,-1.42,1.00,-8.15,-10.08,4.47,-2.99,-0.09,-1.00,0.00
2.703,-1.83,-1.50,1.38,-8.15,-10.08,4.47,-2.99,-0.09,-1.00,0.00
2.704,-1.83,-1.50,1.38,-8.15,-10.08,4.47,-3.30,-0.16,-1.02,0.00
2.705,-1.83,-1.50,1.38,-10.61,-10.67,8.34,-3.30,-0.16,-1.02,0.00
2.706,-2.01,-1.53,1.63,-10.61,-10.67,8.34,-3.30,-0.16,-1.02,0.00
2.707,-2.01,-1.53,1.63,-10.61,-10.67,8.34,-3.54,-0.43,-1.08,0.00
2.708,-2.01,-1.53,1.63,-12.45,-10.70,10.90,-3.54,-0.43,-1.08,0.00
2.72,-2.01,-1.47,1.72,-12.45,-10.70,10.90,-3.54,-0.43,-1.08,0.00
2.721,-2.01,-1.47,1.72,-12.45,-10.70,10.90,-3.57,-0.83,-1.07,0.00
2.722,-2.01,-1.47,1.72,-12.60,-9.82,11.86,-3.57,-0.83,-1.07,0.00
2.729,-1.95,-1.44,1.68,-12.60,-9.82,11.86,-3.57,-0.83,-1.07,0.00
2.73,-1.95,-1.44,1.68,-12.60,-9.82,11.86,-3.47,-1.07,-0.95,0.00
2.73,-1.95,-1.44,1.68,-12.13,-9.30,11.63,-3.47,-1.07,-0.95,0.00
2.739,-1.94,-1.47,1.64,-12.13,-9.30,11.63,-3.47,-1.07,-0.95,0.00
2.74,-1.94,-1.47,1.64,-12.13,-9.30,11.63,-3.32,-0.91,-0.79,0.00
2.741,-1.94,-1.47,1.64,-12.06,-9.37,11.33,-3.32,-0.91,-0.79,0.00
2.752,-1.98,-1.44,1.69,-12.06,-9.37,11.33,-3.32,-0.91,-0.79,0.00
2.753,-1.98,-1.44,1.69,-12.06,-9.37,11.33,-3.20,-0.51,-0.61,0.00
2.754,-1.98,-1.44,1.69,-12.51,-8.88,11.91,-3.20,-0.51,-0.61,0.00
2.755,-2.02,-1.30,1.78,-12.51,-8.88,11.91,-3.20,-0.51,-0.61,0.00
2.756,-2.02,-1.30,1.78,-12.51,-8.88,11.91,-3.09,-0.23,-0.40,0.00
2.757,-2.02,-1.30,1.78,-12.93,-7.37,13.00,-3.09,-0.23,-0.40,0.00
2.769,-2.02,-1.11,1.84,-12.93,-7.37,13.00,-3.09,-0.23,-0.40,0.00
2.77,-2.02,-1.11,1.84,-12.93,-7.37,13.00,-2.96,-0.25,-0.19,0.00
2.771,-2.02,-1.11,1.84,-12.98,-5.35,13.68,-2.96,-0.25,-0.19,0.00
2.778,-1.89,-0.89,1.82,-12.98,-5.35,13.68,-2.96,-0.25,-0.19,0.00
2.779,-1.89,-0.89,1.82,-12.98,-5.35,13.68,-2.82,-0.47,0.02,0.00
2.78,-1.89,-0.89,1.82,-11.72,-3.09,13.66,-2.82,-0.47,0.02,0.00
2.795,-1.68,-0.65,1.72,-11.72,-3.09,13.66,-2.82,-0.47,0.02,0.00
2.797,-1.68,-0.65,1.72,-11.72,-3.09,13.66,-2.64,-0.75,0.27,0.00
2.798,-1.68,-0.65,1.72,-9.64,-0.59,12.74,-2.64,-0.75,0.27,0.00
2.799,-1.42,-0.35,1.50,-9.64,-0.59,12.74,-2.64,-0.75,0.27,0.00
2.8,-1.42,-0.35,1.50,-9.64,-0.59,12.74,-2.40,-1.07,0.51,0.00
2.8,-1.42,-0.35,1.50,-7.18,2.38,10.65,-2.40,-1.07,0.51,0.00
2.808,-1.14,0.01,1.28,-7.18,2.38,10.65,-2.40,-1.07,0.51,0.00
2.809,-1.14,0.01,1.28,-7.18,2.38,10.65,-2.15,-1.36,0.74,0.00
2.81,-1.14,0.01,1.28,-4.40,5.98,8.56,-2.15,-1.36,0.74,0.00
2.819,-0.89,0.41,1.09,-4.40,5.98,8.56,-2.15,-1.36,0.74,0.00
2.82,-0.89,0.41,1.09,-4.40,5.98,8.56,-1.92,-1.50,0.92,0.00
2.821,-0.89,0.41,1.09,-1.95,9.89,6.72,-1.92,-1.50,0.92,0.00
2.83,-0.69,0.78,0.98,-1.95,9.89,6.72,-1.92,-1.50,0.92,0.00
2.83,-0.69,0.78,0.98,-1.95,9.89,6.72,-1.71,-1.51,1.04,0.00
2.831,-0.69,0.78,0.98,-0.04,13.47,5.61,-1.71,-1.51,1.04,0.00
2.84,-0.55,1.05,0.91,-0.04,13.47,5.61,-1.71,-1.51,1.04,0.00
2.841,-0.55,1.05,0.91,-0.04,13.47,5.61,-1.48,-1.42,1.12,0.00
2.842,-0.55,1.05,0.91,1.37,16.09,4.89,-1.48,-1.42,1.12,0.00
2.849,-0.47,1.20,0.77,1.37,16.09,4.89,-1.48,-1.42,1.12,0.00
2.851,-0.47,1.20,0.77,1.37,16.09,4.89,-1.17,-1.27,1.21,0.00
2.851,-0.47,1.20,0.77,2.23,17.62,3.48,-1.17,-1.27,1.21,0.00
2.859,-0.39,1.28,0.60,2.23,17.62,3.48,-1.17,-1.27,1.21,0.00
2.86,-0.39,1.28,0.60,2.23,17.62,3.48,-0.77,-1.08,1.34,0.00
2.861,-0.39,1.28,0.60,3.01,18.34,1.79,-0.77,-1.08,1.34,0.00
2.881,-0.32,1.31,0.45,3.01,18.34,1.79,-0.77,-1.08,1.34,0.00
2.883,-0.32,1.31,0.45,3.01,18.34,1.79,-0.33,-0.81,1.49,0.00
2.886,-0.32,1.31,0.45,3.75,18.50,0.31,-0.33,-0.81,1.49,0.00
2.887,-0.26,1.32,0.37,3.75,18.50,0.31,-0.33,-0.81,1.49,0.00
2.887,-0.26,1.32,0.37,3.75,18.50,0.31,0.11,-0.54,1.62,0.00
2.888,-0.26,1.32,0.37,4.44,18.44,-0.51,0.11,-0.54,1.62,0.00
2.889,-0.23,1.29,0.33,4.44,18.44,-0.51,0.11,-0.54,1.62,0.00
2.89,-0.23,1.29,0.33,4.44,18.44,-0.51,0.52,-0.26,1.69,0.00
2.89,-0.23,1.29,0.33,4.82,18.02,-0.92,0.52,-0.26,1.69,0.00
2.902,-0.27,1.23,0.29,4.82,18.02,-0.92,0.52,-0.26,1.69,0.00
2.904,-0.27,1.23,0.29,4.82,18.02,-0.92,0.89,0.00,1.74,0.00
2.905,-0.27,1.23,0.29,4.45,17.26,-1.42,0.89,0.00,1.74,0.00
2.911,-0.36,1.12,0.26,4.45,17.26,-1.42,0.89,0.00,1.74,0.00
2.912,-0.36,1.12,0.26,4.45,17.26,-1.42,1.21,0.20,1.78,0.00
2.913,-0.36,1.12,0.26,3.71,15.99,-1.70,1.21,0.20,1.78,0.00
2.92,-0.43,0.97,0.26,3.71,15.99,-1.70,1.21,0.20,1.78,0.00
2.921,-0.43,0.97,0.26,3.71,15.99,-1.70,1.50,0.35,1.83,0.00
2.922,-0.43,0.97,0.26,3.08,14.34,-1.74,1.50,0.35,1.83,0.00
2.929,-0.43,0.82,0.32,3.08,14.34,-1.74,1.50,0.35,1.83,0.00
2.93,-0.43,0.82,0.32,3.08,14.34,-1.74,1.78,0.48,1.90,0.00
2.93,-0.43,0.82,0.32,3.27,12.65,-1.26,1.78,0.48,1.90,0.00
2.94,-0.41,0.70,0.39,3.27,12.65,-1.26,1.78,0.48,1.90,0.00
2.941,-0.41,0.70,0.39,3.27,12.65,-1.26,2.05,0.55,1.94,0.00
2.941,-0.41,0.70,0.39,3.58,11.27,-0.59,2.05,0.55,1.94,0.00
2.952,-0.45,0.61,0.45,3.58,11.27,-0.59,2.05,0.55,1.94,0.00
2.953,-0.45,0.61,0.45,3.58,11.27,-0.59,2.29,0.57,1.91,0.00
2.954,-0.45,0.61,0.45,3.30,10.10,-0.07,2.29,0.57,1.91,0.00
2.959,-0.56,0.51,0.56,3.30,10.10,-0.07,2.29,0.57,1.91,0.00
2.959,-0.56,0.51,0.56,3.30,10.10,-0.07,2.54,0.57,1.87,0.00
2.96,-0.56,0.51,0.56,2.25,8.93,0.97,2.54,0.57,1.87,0.00
2.972,-0.70,0.41,0.64,2.25,8.93,0.97,2.54,0.57,1.87,0.00
2.973,-0.70,0.41,0.64,2.25,8.93,0.97,2.80,0.56,1.85,0.00
2.974,-0.70,0.41,0.64,1.05,7.62,1.65,2.80,0.56,1.85,0.00
2.98,-0.87,0.32,0.65,1.05,7.62,1.65,2.80,0.56,1.85,0.00
2.981,-0.87,0.32,0.65,1.05,7.62,1.65,3.09,0.60,1.88,0.00
2.982,-0.87,0.32,0.65,-0.53,6.44,1.75,3.09,0.60,1.88,0.00
2.998,-1.03,0.22,0.70,-0.53,6.44,1.75,3.09,0.60,1.88,0.00
2.999,-1.03,0.22,0.70,-0.53,6.44,1.75,3.39,0.72,1.95,0.00
3.0,-1.03,0.22,0.70,-2.04,5.13,2.13,3.39,0.72,1.95,0.00
3.0,-1.17,0.11,0.79,-2.04,5.13,2.13,3.39,0.72,1.95,0.00
3.001,-1.17,0.11,0.79,-2.04,5.13,2.13,3.66,0.91,2.04,0.00
3.002,-1.17,0.11,0.79,-3.32,3.72,2.98,3.66,0.91,2.04,0.00
3.01,-1.28,0.02,0.97,-3.32,3.72,2.98,3.66,0.91,2.04,0.00
3.011,-1.28,0.02,0.97,-3.32,3.72,2.98,3.84,1.20,2.09,0.00
3.012,-1.28,0.02,0.97,-4.31,2.52,4.73,3.84,1.20,2.09,0.00
3.021,-1.54,-0.16,1.38,-4.31,2.52,4.73,3.84,1.20,2.09,0.00
3.022,-1.54,-0.16,1.38,-4.31,2.52,4.73,3.82,1.59,1.99,0.00
3.023,-1.54,-0.16,1.38,-6.70,0.37,8.86,3.82,1.59,1.99,0.00
3.031,-2.02,-0.49,1.84,-6.70,0.37,8.86,3.82,1.59,1.99,0.00
3.032,-2.02,-0.49,1.84,-6.70,0.37,8.86,3.63,2.05,1.71,0.00
3.033,-2.02,-0.49,1.84,-11.27,-3.14,13.46,3.63,2.05,1.71,0.00
3.04,-2.50,-0.88,2.22,-11.27,-3.14,13.46,3.63,2.05,1.71,0.00
3.042,-2.50,-0.88,2.22,-11.27,-3.14,13.46,3.41,2.38,1.40,0.00
3.042,-2.50,-0.88,2.22,-15.84,-7.28,17.32,3.41,2.38,1.40,0.00
3.051,-2.76,-1.25,2.25,-15.84,-7.28,17.32,3.41,2.38,1.40,0.00
3.052,-2.76,-1.25,2.25,-15.84,-7.28,17.32,3.35,2.26,1.22,0.00
3.053,-2.76,-1.25,2.25,-18.27,-11.15,17.76,3.35,2.26,1.22,0.00
3.062,-2.67,-1.43,2.04,-18.27,-11.15,17.76,3.35,2.26,1.22,0.00
3.063,-2.67,-1.43,2.04,-18.27,-11.15,17.76,3.40,1.61,1.13,0.00
3.064,-2.67,-1.43,2.04,-17.31,-13.16,15.84,3.40,1.61,1.13,0.00
3.071,-2.35,-1.44,1.64,-17.31,-13.16,15.84,3.40,1.61,1.13,0.00
3.072,-2.35,-1.44,1.64,-17.31,-13.16,15.84,3.46,0.76,1.09,0.00
3.073,-2.35,-1.44,1.64,-14.16,-13.45,11.92,3.46,0.76,1.09,0.00
3.082,-1.94,-1.32,1.29,-14.16,-13.45,11.92,3.46,0.76,1.09,0.00
3.083,-1.94,-1.32,1.29,-14.16,-13.45,11.92,3.42,0.15,1.06,0.00
3.084,-1.94,-1.32,1.29,-10.15,-12.59,8.50,3.42,0.15,1.06,0.00
3.091,-1.62,-1.21,1.10,-10.15,-12.59,8.50,3.42,0.15,1.06,0.00
3.092,-1.62,-1.21,1.10,-10.15,-12.59,8.50,3.25,0.01,0.97,0.00
3.093,-1.62,-1.21,1.10,-6.95,-11.69,6.66,3.25,0.01,0.97,0.00
3.115,-1.36,-1.13,1.05,-6.95,-11.69,6.66,3.25,0.01,0.97,0.00
3.116,-1.36,-1.13,1.05,-6.95,-11.69,6.66,2.99,0.19,0.78,0.00
3.117,-1.36,-1.13,1.05,-4.39,-11.06,6.19,2.99,0.19,0.78,0.00
3.118,-1.16,-1.02,1.00,-4.39,-11.06,6.19,2.99,0.19,0.78,0.00
3.119,-1.16,-1.02,1.00,-4.39,-11.06,6.19,2.70,0.35,0.51,0.00
3.12,-1.16,-1.02,1.00,-2.49,-10.15,5.70,2.70,0.35,0.51,0.00
3.125,-0.96,-0.91,0.92,-2.49,-10.15,5.70,2.70,0.35,0.51,0.00
3.126,-0.96,-0.91,0.92,-2.49,-10.15,5.70,2.41,0.29,0.15,0.00
3.127,-0.96,-0.91,0.92,-0.49,-9.19,4.97,2.41,0.29,0.15,0.00
3.132,-0.74,-0.78,0.79,-0.49,-9.19,4.97,2.41,0.29,0.15,0.00
3.133,-0.74,-0.78,0.79,-0.49,-9.19,4.97,2.13,0.03,-0.23,0.00
3.134,-0.74,-0.78,0.79,1.65,-8.00,3.73,2.13,0.03,-0.23,0.00
3.142,-0.51,-0.66,0.64,1.65,-8.00,3.73,2.13,0.03,-0.23,0.00
3.143,-0.51,-0.66,0.64,1.65,-8.00,3.73,1.88,-0.25,-0.61,0.00
3.144,-0.51,-0.66,0.64,3.93,-6.88,2.18,1.88,-0.25,-0.61,0.00
3.153,-0.29,-0.62,0.38,3.93,-6.88,2.18,1.88,-0.25,-0.61,0.00
3.155,-0.29,-0.62,0.38,3.93,-6.88,2.18,1.66,-0.43,-0.95,0.00
3.156,-0.29,-0.62,0.38,6.02,-6.48,-0.39,1.66,-0.43,-0.95,0.00
3.162,-0.16,-0.56,0.23,6.02,-6.48,-0.39,1.66,-0.43,-0.95,0.00
3.163,-0.16,-0.56,0.23,6.02,-6.48,-0.39,1.41,-0.44,-1.24,0.00
3.164,-0.16,-0.56,0.23,7.31,-5.79,-1.84,1.41,-0.44,-1.24,0.00
3.173,-0.08,-0.54,0.15,7.31,-5.79,-1.84,1.41,-0.44,-1.24,0.00
3.174,-0.08,-0.54,0.15,7.31,-5.79,-1.84,1.17,-0.36,-1.47,0.00
3.175,-0.08,-0.54,0.15,8.11,-5.49,-2.67,1.17,-0.36,-1.47,0.00
3.183,0.04,-0.53,0.08,8.11,-5.49,-2.67,1.17,-0.36,-1.47,0.00
3.184,0.04,-0.53,0.08,8.11,-5.49,-2.67,0.97,-0.35,-1.58,0.00
3.184,0.04,-0.53,0.08,9.24,-5.33,-3.38,0.97,-0.35,-1.58,0.00
3.192,0.18,-0.51,-0.06,9.24,-5.33,-3.38,0.97,-0.35,-1.58,0.00
3.193,0.18,-0.51,-0.06,9.24,-5.33,-3.38,0.81,-0.48,-1.60,0.00
3.194,0.18,-0.51,-0.06,10.60,-5.04,-4.79,0.81,-0.48,-1.60,0.00
3.217,0.28,-0.46,-0.21,10.60,-5.04,-4.79,0.81,-0.48,-1.60,0.00
3.219,0.28,-0.46,-0.21,10.60,-5.04,-4.79,0.69,-0.63,-1.56,0.00
3.22,0.28,-0.46,-0.21,11.52,-4.40,-6.32,0.69,-0.63,-1.56,0.00
3.222,0.36,-0.41,-0.33,11.52,-4.40,-6.32,0.69,-0.63,-1.56,0.00
3.223,0.36,-0.41,-0.33,11.52,-4.40,-6.32,0.57,-0.70,-1.51,0.00
3.224,0.36,-0.41,-0.33,12.33,-3.85,-7.54,0.57,-0.70,-1.51,0.00
3.225,0.41,-0.38,-0.41,12.33,-3.85,-7.54,0.57,-0.70,-1.51,0.00
3.225,0.41,-0.38,-0.41,12.33,-3.85,-7.54,0.42,-0.66,-1.47,0.00
3.226,0.41,-0.38,-0.41,12.74,-3.42,-8.40,0.42,-0.66,-1.47,0.00
3.233,0.41,-0.33,-0.40,12.74,-3.42,-8.40,0.42,-0.66,-1.47,0.00
3.234,0.41,-0.33,-0.40,12.74,-3.42,-8.40,0.19,-0.58,-1.47,0.00
3.235,0.41,-0.33,-0.40,12.73,-2.84,-8.42,0.19,-0.58,-1.47,0.00
3.244,0.38,-0.28,-0.37,12.73,-2.84,-8.42,0.19,-0.58,-1.47,0.00
3.245,0.38,-0.28,-0.37,12.73,-2.84,-8.42,-0.11,-0.54,-1.50,0.00
3.246,0.38,-0.28,-0.37,12.43,-2.23,-8.11,-0.11,-0.54,-1.50,0.00
3.255,0.34,-0.25,-0.32,12.43,-2.23,-8.11,-0.11,-0.54,-1.50,0.00
3.257,0.34,-0.25,-0.32,12.43,-2.23,-8.11,-0.45,-0.62,-1.54,0.00
3.257,0.34,-0.25,-0.32,12.00,-1.70,-7.69,-0.45,-0.62,-1.54,0.00
3.262,0.28,-0.23,-0.26,12.00,-1.70,-7.69,-0.45,-0.62,-1.54,0.00
3.263,0.28,-0.23,-0.26,12.00,-1.70,-7.69,-0.80,-0.80,-1.57,0.00
3.264,0.28,-0.23,-0.26,11.34,-1.38,-7.16,-0.80,-0.80,-1.57,0.00
3.273,0.19,-0.28,-0.22,11.34,-1.38,-7.16,-0.80,-0.80,-1.57,0.00
3.274,0.19,-0.28,-0.22,11.34,-1.38,-7.16,-1.13,-0.99,-1.60,0.00
3.274,0.19,-0.28,-0.22,10.37,-1.68,-6.86,-1.13,-0.99,-1.60,0.00
3.283,0.15,-0.34,-0.18,10.37,-1.68,-6.86,-1.13,-0.99,-1.60,0.00
3.284,0.15,-0.34,-0.18,10.37,-1.68,-6.86,-1.43,-1.13,-1.59,0.00
3.285,0.15,-0.34,-0.18,9.97,-2.05,-6.57,-1.43,-1.13,-1.59,0.00
3.292,0.09,-0.40,-0.13,9.97,-2.05,-6.57,-1.43,-1.13,-1.59,0.00
3.293,0.09,-0.40,-0.13,9.97,-2.05,-6.57,-1.71,-1.23,-1.59,0.00
3.294,0.09,-0.40,-0.13,9.28,-2.43,-6.16,-1.71,-1.23,-1.59,0.00
3.305,0.00,-0.46,-0.14,9.28,-2.43,-6.16,-1.71,-1.23,-1.59,0.00
3.306,0.00,-0.46,-0.14,9.28,-2.43,-6.16,-1.94,-1.23,-1.61,0.00
3.307,0.00,-0.46,-0.14,8.31,-2.80,-6.26,-1.94,-1.23,-1.61,0.00
3.313,-0.14,-0.52,-0.06,8.31,-2.80,-6.26,-1.94,-1.23,-1.61,0.00
3.313,-0.14,-0.52,-0.06,8.31,-2.80,-6.26,-2.13,-1.13,-1.64,0.00
3.314,-0.14,-0.52,-0.06,6.82,-3.09,-5.58,-2.13,-1.13,-1.64,0.00
3.329,-0.36,-0.57,-0.03,6.82,-3.09,-5.58,-2.13,-1.13,-1.64,0.00
3.33,-0.36,-0.57,-0.03,6.82,-3.09,-5.58,-2.25,-0.91,-1.62,0.00
3.331,-0.36,-0.57,-0.03,4.59,-3.33,-5.34,-2.25,-0.91,-1.62,0.00
3.334,-0.58,-0.63,-0.02,4.59,-3.33,-5.34,-2.25,-0.91,-1.62,0.00
3.334,-0.58,-0.63,-0.02,4.59,-3.33,-5.34,-2.30,-0.61,-1.53,0.00
3.335,-0.58,-0.63,-0.02,2.39,-3.69,-5.18,-2.30,-0.61,-1.53,0.00
3.342,-0.80,-0.75,0.11,2.39,-3.69,-5.18,-2.30,-0.61,-1.53,0.00
3.343,-0.80,-0.75,0.11,2.39,-3.69,-5.18,-2.33,-0.28,-1.37,0.00
3.344,-0.80,-0.75,0.11,0.13,-4.70,-3.90,-2.33,-0.28,-1.37,0.00
3.353,-1.06,-0.93,0.33,0.13,-4.70,-3.90,-2.33,-0.28,-1.37,0.00
3.354,-1.06,-0.93,0.33,0.13,-4.70,-3.90,-2.40,0.01,-1.21,0.00
3.355,-1.06,-0.93,0.33,-2.40,-6.19,-1.63,-2.40,0.01,-1.21,0.00
3.363,-1.26,-1.20,0.74,-2.40,-6.19,-1.63,-2.40,0.01,-1.21,0.00
3.364,-1.26,-1.20,0.74,-2.40,-6.19,-1.63,-2.59,0.23,-1.12,0.00
3.364,-1.26,-1.20,0.74,-4.40,-8.63,2.44,-2.59,0.23,-1.12,0.00
3.373,-1.49,-1.43,1.30,-4.40,-8.63,2.44,-2.59,0.23,-1.12,0.00
3.374,-1.49,-1.43,1.30,-4.40,-8.63,2.44,-2.95,0.34,-1.19,0.00
3.374,-1.49,-1.43,1.30,-6.69,-10.69,8.05,-2.95,0.34,-1.19,0.00
3.386,-1.87,-1.57,1.73,-6.69,-10.69,8.05,-2.95,0.34,-1.19,0.00
3.387,-1.87,-1.57,1.73,-6.69,-10.69,8.05,-3.31,0.16,-1.42,0.00
3.388,-1.87,-1.57,1.73,-10.44,-11.77,12.38,-3.31,0.16,-1.42,0.00
3.394,-2.10,-1.52,1.73,-10.44,-11.77,12.38,-3.31,0.16,-1.42,0.00
3.395,-2.10,-1.52,1.73,-10.44,-11.77,12.38,-3.42,-0.48,-1.60,0.00
3.396,-2.10,-1.52,1.73,-12.82,-10.98,12.52,-3.42,-0.48,-1.60,0.00
3.405,-2.14,-1.36,1.49,-12.82,-10.98,12.52,-3.42,-0.48,-1.60,0.00
3.406,-2.14,-1.36,1.49,-12.82,-10.98,12.52,-3.27,-1.23,-1.54,0.00
3.407,-2.14,-1.36,1.49,-13.28,-9.13,10.16,-3.27,-1.23,-1.54,0.00
3.414,-2.04,-1.28,1.34,-13.28,-9.13,10.16,-3.27,-1.23,-1.54,0.00
3.415,-2.04,-1.28,1.34,-13.28,-9.13,10.16,-3.10,-1.49,-1.33,0.00
3.416,-2.04,-1.28,1.34,-12.39,-8.14,8.73,-3.10,-1.49,-1.33,0.00
3.432,-2.02,-1.22,1.43,-12.39,-8.14,8.73,-3.10,-1.49,-1.33,0.00
3.434,-2.02,-1.22,1.43,-12.39,-8.14,8.73,-2.99,-1.20,-1.08,0.00
3.435,-2.02,-1.22,1.43,-12.28,-7.35,9.63,-2.99,-1.20,-1.08,0.00
3.435,-2.03,-1.12,1.61,-12.28,-7.35,9.63,-2.99,-1.20,-1.08,0.00
3.436,-2.03,-1.12,1.61,-12.28,-7.35,9.63,-2.85,-0.74,-0.89,0.00
3.437,-2.03,-1.12,1.61,-12.54,-6.16,11.48,-2.85,-0.74,-0.89,0.00
3.445,-2.03,-0.95,1.75,-12.54,-6.16,11.48,-2.85,-0.74,-0.89,0.00
3.445,-2.03,-0.95,1.75,-12.54,-6.16,11.48,-2.66,-0.46,-0.78,0.00
3.446,-2.03,-0.95,1.75,-12.53,-4.30,12.99,-2.66,-0.46,-0.78,0.00
3.456,-2.00,-0.76,1.76,-12.53,-4.30,12.99,-2.66,-0.46,-0.78,0.00
3.457,-2.00,-0.76,1.76,-12.53,-4.30,12.99,-2.49,-0.47,-0.69,0.00
3.458,-2.00,-0.76,1.76,-12.32,-2.34,13.18,-2.49,-0.47,-0.69,0.00
3.464,-1.87,-0.57,1.64,-12.32,-2.34,13.18,-2.49,-0.47,-0.69,0.00
3.465,-1.87,-0.57,1.64,-12.32,-2.34,13.18,-2.29,-0.64,-0.56,0.00
3.466,-1.87,-0.57,1.64,-11.07,-0.27,12.11,-2.29,-0.64,-0.56,0.00
3.476,-1.68,-0.35,1.44,-11.07,-0.27,12.11,-2.29,-0.64,-0.56,0.00
3.477,-1.68,-0.35,1.44,-11.07,-0.27,12.11,-2.07,-0.85,-0.37,0.00
3.478,-1.68,-0.35,1.44,-9.27,1.99,10.17,-2.07,-0.85,-0.37,0.00
3.486,-1.44,-0.09,1.21,-9.27,1.99,10.17,-2.07,-0.85,-0.37,0.00
3.488,-1.44,-0.09,1.21,-9.27,1.99,10.17,-1.84,-1.07,-0.12,0.00
3.489,-1.44,-0.09,1.21,-7.02,4.57,7.93,-1.84,-1.07,-0.12,0.00
3.495,-1.16,0.17,1.03,-7.02,4.57,7.93,-1.84,-1.07,-0.12,0.00
3.495,-1.16,0.17,1.03,-7.02,4.57,7.93,-1.63,-1.22,0.14,0.00
3.496,-1.16,0.17,1.03,-4.27,7.25,6.17,-1.63,-1.22,0.14,0.00
3.505,-0.90,0.42,0.91,-4.27,7.25,6.17,-1.63,-1.22,0.14,0.00
3.506,-0.90,0.42,0.91,-4.27,7.25,6.17,-1.44,-1.26,0.36,0.00
3.507,-0.90,0.42,0.91,-1.74,9.65,4.98,-1.44,-1.26,0.36,0.00
3.515,-0.75,0.64,0.80,-1.74,9.65,4.98,-1.44,-1.26,0.36,0.00
3.515,-0.75,0.64,0.80,-1.74,9.65,4.98,-1.26,-1.28,0.49,0.00
3.516,-0.75,0.64,0.80,-0.37,11.87,3.88,-1.26,-1.28,0.49,0.00
3.525,-0.69,0.81,0.68,-0.37,11.87,3.88,-1.26,-1.28,0.49,0.00
3.526,-0.69,0.81,0.68,-0.37,11.87,3.88,-1.06,-1.29,0.58,0.00
3.526,-0.69,0.81,0.68,0.27,13.50,2.63,-1.06,-1.29,0.58,0.00
3.55,-0.61,0.92,0.52,0.27,13.50,2.63,-1.06,-1.29,0.58,0.00
3.551,-0.61,0.92,0.52,0.27,13.50,2.63,-0.81,-1.28,0.72,0.00
3.552,-0.61,0.92,0.52,1.02,14.61,1.04,-0.81,-1.28,0.72,0.00
3.553,-0.47,1.01,0.37,1.02,14.61,1.04,-0.81,-1.28,0.72,0.00
3.555,-0.47,1.01,0.37,1.02,14.61,1.04,-0.49,-1.20,0.88,0.00
3.556,-0.47,1.01,0.37,2.40,15.39,-0.47,-0.49,-1.20,0.88,0.00
3.557,-0.38,1.07,0.27,2.40,15.39,-0.47,-0.49,-1.20,0.88,0.00
3.558,-0.38,1.07,0.27,2.40,15.39,-0.47,-0.13,-1.04,1.04,0.00
3.558,-0.38,1.07,0.27,3.27,15.93,-1.54,-0.13,-1.04,1.04,0.00
3.566,-0.36,1.09,0.20,3.27,15.93,-1.54,-0.13,-1.04,1.04,0.00
3.567,-0.36,1.09,0.20,3.27,15.93,-1.54,0.23,-0.78,1.18,0.00
3.568,-0.36,1.09,0.20,3.56,16.02,-2.22,0.23,-0.78,1.18,0.00
3.577,-0.32,1.08,0.15,3.56,16.02,-2.22,0.23,-0.78,1.18,0.00
3.578,-0.32,1.08,0.15,3.56,16.02,-2.22,0.60,-0.43,1.31,0.00
3.579,-0.32,1.08,0.15,3.93,15.87,-2.85,0.60,-0.43,1.31,0.00
3.589,-0.35,1.05,0.12,3.93,15.87,-2.85,0.60,-0.43,1.31,0.00
3.591,-0.35,1.05,0.12,3.93,15.87,-2.85,0.92,-0.08,1.42,0.00
3.591,-0.35,1.05,0.12,3.73,15.40,-3.20,0.92,-0.08,1.42,0.00
3.597,-0.39,0.98,0.19,3.73,15.40,-3.20,0.92,-0.08,1.42,0.00
3.598,-0.39,0.98,0.19,3.73,15.40,-3.20,1.17,0.19,1.51,0.00
3.598,-0.39,0.98,0.19,3.47,14.52,-2.53,1.17,0.19,1.51,0.00
3.605,-0.40,0.89,0.27,3.47,14.52,-2.53,1.17,0.19,1.51,0.00
3.606,-0.40,0.89,0.27,3.47,14.52,-2.53,1.36,0.33,1.58,0.00
3.607,-0.40,0.89,0.27,3.39,13.51,-1.80,1.36,0.33,1.58,0.00
3.615,-0.43,0.79,0.32,3.39,13.51,-1.80,1.36,0.33,1.58,0.00
3.616,-0.43,0.79,0.32,3.39,13.51,-1.80,1.55,0.34,1.60,0.00
3.617,-0.43,0.79,0.32,3.21,12.35,-1.35,1.55,0.34,1.60,0.00
3.626,-0.49,0.71,0.33,3.21,12.35,-1.35,1.55,0.34,1.60,0.00
3.627,-0.49,0.71,0.33,3.21,12.35,-1.35,1.76,0.30,1.60,0.00
3.627,-0.49,0.71,0.33,2.67,11.37,-1.31,1.76,0.30,1.60,0.00
3.649,-0.57,0.62,0.33,2.67,11.37,-1.31,1.76,0.30,1.60,0.00
3.65,-0.57,0.62,0.33,2.67,11.37,-1.31,1.98,0.33,1.62,0.00
3.651,-0.57,0.62,0.33,1.98,10.19,-1.33,1.98,0.33,1.62,0.00
3.652,-0.69,0.50,0.35,1.98,10.19,-1.33,1.98,0.33,1.62,0.00
3.653,-0.69,0.50,0.35,1.98,10.19,-1.33,2.21,0.45,1.69,0.00
3.653,-0.69,0.50,0.35,0.91,8.80,-1.24,2.21,0.45,1.69,0.00
3.654,-0.81,0.37,0.44,0.91,8.80,-1.24,2.21,0.45,1.69,0.00
3.655,-0.81,0.37,0.44,0.91,8.80,-1.24,2.42,0.64,1.82,0.00
3.655,-0.81,0.37,0.44,-0.17,7.32,-0.34,2.42,0.64,1.82,0.00
3.666,-0.97,0.27,0.63,-0.17,7.32,-0.34,2.42,0.64,1.82,0.00
3.667,-0.97,0.27,0.63,-0.17,7.32,-0.34,2.60,0.81,1.97,0.00
3.667,-0.97,0.27,0.63,-1.56,6.04,1.45,2.60,0.81,1.97,0.00
3.676,-1.14,0.14,0.78,-1.56,6.04,1.45,2.60,0.81,1.97,0.00
3.678,-1.14,0.14,0.78,-1.56,6.04,1.45,2.79,0.87,2.13,0.00
3.678,-1.14,0.14,0.78,-3.12,4.50,2.95,2.79,0.87,2.13,0.00
3.687,-1.24,-0.02,0.93,-3.12,4.50,2.95,2.79,0.87,2.13,0.00
3.688,-1.24,-0.02,0.93,-3.12,4.50,2.95,3.01,0.77,2.28,0.00
3.689,-1.24,-0.02,0.93,-4.05,2.60,4.35,3.01,0.77,2.28,0.00
3.696,-1.30,-0.18,1.04,-4.05,2.60,4.35,3.01,0.77,2.28,0.00
3.697,-1.30,-0.18,1.04,-4.05,2.60,4.35,3.30,0.63,2.38,0.00
3.697,-1.30,-0.18,1.04,-4.49,0.66,5.38,3.30,0.63,2.38,0.00
3.707,-1.38,-0.31,1.15,-4.49,0.66,5.38,3.30,0.63,2.38,0.00
3.708,-1.38,-0.31,1.15,-4.49,0.66,5.38,3.58,0.57,2.38,0.00
3.709,-1.38,-0.31,1.15,-5.24,-0.99,6.41,3.58,0.57,2.38,0.00
3.721,-1.59,-0.41,1.30,-5.24,-0.99,6.41,3.58,0.57,2.38,0.00
3.722,-1.59,-0.41,1.30,-5.24,-0.99,6.41,3.76,0.75,2.21,0.00
3.723,-1.59,-0.41,1.30,-7.23,-2.33,7.89,3.76,0.75,2.21,0.00
3.724,-2.04,-0.54,1.59,-7.23,-2.33,7.89,3.76,0.75,2.21,0.00
3.725,-2.04,-0.54,1.59,-7.23,-2.33,7.89,3.72,1.35,1.85,0.00
3.725,-2.04,-0.54,1.59,-11.49,-4.02,10.80,3.72,1.35,1.85,0.00
3.738,-2.51,-0.82,1.94,-11.49,-4.02,10.80,3.72,1.35,1.85,0.00
3.739,-2.51,-0.82,1.94,-11.49,-4.02,10.80,3.50,2.16,1.48,0.00
3.74,-2.51,-0.82,1.94,-15.97,-7.01,14.41,3.50,2.16,1.48,0.00
3.748,-2.79,-1.17,2.16,-15.97,-7.01,14.41,3.50,2.16,1.48,0.00
3.749,-2.79,-1.17,2.16,-15.97,-7.01,14.41,3.34,2.54,1.32,0.00
3.75,-2.79,-1.17,2.16,-18.61,-10.68,16.68,3.34,2.54,1.32,0.00
3.771,-2.73,-1.39,2.07,-18.61,-10.68,16.68,3.34,2.54,1.32,0.00
3.773,-2.73,-1.39,2.07,-18.61,-10.68,16.68,3.30,2.03,1.27,0.00
3.774,-2.73,-1.39,2.07,-17.96,-13.14,15.99,3.30,2.03,1.27,0.00
3.775,-2.22,-1.37,1.69,-17.96,-13.14,15.99,3.30,2.03,1.27,0.00
3.776,-2.22,-1.37,1.69,-17.96,-13.14,15.99,3.26,0.95,1.22,0.00
3.777,-2.22,-1.37,1.69,-12.87,-13.15,12.36,3.26,0.95,1.22,0.00
3.778,-1.72,-1.25,1.30,-12.87,-13.15,12.36,3.26,0.95,1.22,0.00
3.779,-1.72,-1.25,1.30,-12.87,-13.15,12.36,3.14,-0.01,1.11,0.00
3.78,-1.72,-1.25,1.30,-7.98,-12.20,8.54,3.14,-0.01,1.11,0.00
3.797,-1.41,-1.08,1.07,-7.98,-12.20,8.54,3.14,-0.01,1.11,0.00
3.799,-1.41,-1.08,1.07,-7.98,-12.20,8.54,2.93,-0.44,0.90,0.00
3.8,-1.41,-1.08,1.07,-5.02,-10.75,6.28,2.93,-0.44,0.90,0.00
3.802,-1.17,-0.97,0.98,-5.02,-10.75,6.28,2.93,-0.44,0.90,0.00
3.803,-1.17,-0.97,0.98,-5.02,-10.75,6.28,2.64,-0.38,0.67,0.00
3.804,-1.17,-0.97,0.98,-2.66,-9.84,5.35,2.64,-0.38,0.67,0.00
3.814,-1.03,-0.85,0.88,-2.66,-9.84,5.35,2.64,-0.38,0.67,0.00
3.816,-1.03,-0.85,0.88,-2.66,-9.84,5.35,2.34,-0.21,0.40,0.00
3.818,-1.03,-0.85,0.88,-1.24,-8.84,4.35,2.34,-0.21,0.40,0.00
3.819,-0.88,-0.71,0.79,-1.24,-8.84,4.35,2.34,-0.21,0.40,0.00
3.82,-0.88,-0.71,0.79,-1.24,-8.84,4.35,2.07,-0.16,0.06,0.00
3.821,-0.88,-0.71,0.79,0.16,-7.53,3.48,2.07,-0.16,0.06,0.00
3.829,-0.65,-0.60,0.70,0.16,-7.53,3.48,2.07,-0.16,0.06,0.00
3.83,-0.65,-0.60,0.70,0.16,-7.53,3.48,1.80,-0.21,-0.27,0.00
3.831,-0.65,-0.60,0.70,2.45,-6.55,2.53,1.80,-0.21,-0.27,0.00
3.839,-0.40,-0.52,0.53,2.45,-6.55,2.53,1.80,-0.21,-0.27,0.00
3.84,-0.40,-0.52,0.53,2.45,-6.55,2.53,1.59,-0.38,-0.56,0.00
3.841,-0.40,-0.52,0.53,4.82,-5.76,0.85,1.59,-0.38,-0.56,0.00
3.849,-0.21,-0.44,0.34,4.82,-5.76,0.85,1.59,-0.38,-0.56,0.00
3.849,-0.21,-0.44,0.34,4.82,-5.76,0.85,1.41,-0.53,-0.84,0.00
3.85,-0.21,-0.44,0.34,6.72,-5.01,-1.01,1.41,-0.53,-0.84,0.00
3.858,-0.11,-0.42,0.21,6.72,-5.01,-1.01,1.41,-0.53,-0.84,0.00
3.86,-0.11,-0.42,0.21,6.72,-5.01,-1.01,1.22,-0.56,-1.07,0.00
3.86,-0.11,-0.42,0.21,7.71,-4.74,-2.38,1.22,-0.56,-1.07,0.00
3.884,-0.02,-0.42,0.13,7.71,-4.74,-2.38,1.22,-0.56,-1.07,0.00
3.885,-0.02,-0.42,0.13,7.71,-4.74,-2.38,1.03,-0.54,-1.19,0.00
3.886,-0.02,-0.42,0.13,8.55,-4.67,-3.20,1.03,-0.54,-1.19,0.00
3.887,0.10,-0.44,0.02,8.55,-4.67,-3.20,1.03,-0.54,-1.19,0.00
3.888,0.10,-0.44,0.02,8.55,-4.67,-3.20,0.85,-0.61,-1.19,0.00
3.89,0.10,-0.44,0.02,9.73,-4.79,-4.32,0.85,-0.61,-1.19,0.00
3.891,0.24,-0.44,-0.13,9.73,-4.79,-4.32,0.85,-0.61,-1.19,0.00
3.892,0.24,-0.44,-0.13,9.73,-4.79,-4.32,0.72,-0.79,-1.11,0.00
3.892,0.24,-0.44,-0.13,10.99,-4.73,-5.79,0.72,-0.79,-1.11,0.00
3.9,0.34,-0.41,-0.28,10.99,-4.73,-5.79,0.72,-0.79,-1.11,0.00
3.901,0.34,-0.41,-0.28,10.99,-4.73,-5.79,0.61,-0.95,-1.01,0.00
3.902,0.34,-0.41,-0.28,11.94,-4.38,-7.41,0.61,-0.95,-1.01,0.00
3.908,0.43,-0.34,-0.39,11.94,-4.38,-7.41,0.61,-0.95,-1.01,0.00
3.91,0.43,-0.34,-0.39,11.94,-4.38,-7.41,0.47,-1.00,-0.93,0.00
3.912,0.43,-0.34,-0.39,12.76,-3.68,-8.60,0.47,-1.00,-0.93,0.00
3.92,0.45,-0.30,-0.44,12.76,-3.68,-8.60,0.47,-1.00,-0.93,0.00
3.921,0.45,-0.30,-0.44,12.76,-3.68,-8.60,0.27,-0.93,-0.89,0.00
3.922,0.45,-0.30,-0.44,13.00,-3.17,-9.13,0.27,-0.93,-0.89,0.00
3.928,0.43,-0.26,-0.44,13.00,-3.17,-9.13,0.27,-0.93,-0.89,0.00
3.929,0.43,-0.26,-0.44,13.00,-3.17,-9.13,0.00,-0.83,-0.90,0.00
3.93,0.43,-0.26,-0.44,12.72,-2.72,-9.16,0.00,-0.83,-0.90,0.00
3.939,0.37,-0.24,-0.41,12.72,-2.72,-9.16,0.00,-0.83,-0.90,0.00
3.94,0.37,-0.24,-0.41,12.72,-2.72,-9.16,-0.33,-0.76,-0.96,0.00
3.94,0.37,-0.24,-0.41,12.13,-2.44,-8.97,-0.33,-0.76,-0.96,0.00
3.949,0.32,-0.21,-0.37,12.13,-2.44,-8.97,-0.33,-0.76,-0.96,0.00
3.949,0.32,-0.21,-0.37,12.13,-2.44,-8.97,-0.70,-0.78,-1.03,0.00
3.95,0.32,-0.21,-0.37,11.56,-1.97,-8.62,-0.70,-0.78,-1.03,0.00
3.959,0.28,-0.24,-0.32,11.56,-1.97,-8.62,-0.70,-0.78,-1.03,0.00
3.96,0.28,-0.24,-0.32,11.56,-1.97,-8.62,-1.06,-0.84,-1.09,0.00
3.96,0.28,-0.24,-0.32,11.09,-2.19,-8.19,-1.06,-0.84,-1.09,0.00
3.986,0.22,-0.27,-0.25,11.09,-2.19,-8.19,-1.06,-0.84,-1.09,0.00
3.987,0.22,-0.27,-0.25,11.09,-2.19,-8.19,-1.41,-0.89,-1.11,0.00
3.988,0.22,-0.27,-0.25,10.53,-2.29,-7.56,-1.41,-0.89,-1.11,0.00
3.989,0.16,-0.32,-0.20,10.53,-2.29,-7.56,-1.41,-0.89,-1.11,0.00
3.99,0.16,-0.32,-0.20,10.53,-2.29,-7.56,-1.74,-0.93,-1.17,0.00
3.991,0.16,-0.32,-0.20,9.80,-2.62,-7.14,-1.74,-0.93,-1.17,0.00
3.991,0.04,-0.39,-0.12,9.80,-2.62,-7.14,-1.74,-0.93,-1.17,0.00
3.992,0.04,-0.39,-0.12,9.80,-2.62,-7.14,-2.01,-0.95,-1.26,0.00
3.993,0.04,-0.39,-0.12,8.59,-3.04,-6.46,-2.01,-0.95,-1.26,0.00
4.0,-0.09,-0.50,-0.08,8.59,-3.04,-6.46,-2.01,-0.95,-1.26,0.00
4.0,-0.09,-0.50,-0.08,8.59,-3.04,-6.46,-2.21,-0.89,-1.33,0.00
4.001,-0.09,-0.50,-0.08,7.23,-3.93,-6.12,-2.21,-0.89,-1.33,0.00
4.011,-0.30,-0.58,-0.02,7.23,-3.93,-6.12,-2.21,-0.89,-1.33,0.00
4.013,-0.30,-0.58,-0.02,7.23,-3.93,-6.12,-2.35,-0.71,-1.36,0.00
4.013,-0.30,-0.58,-0.02,5.14,-4.43,-5.57,-2.35,-0.71,-1.36,0.00
4.021,-0.58,-0.64,0.05,5.14,-4.43,-5.57,-2.35,-0.71,-1.36,0.00
4.022,-0.58,-0.64,0.05,5.14,-4.43,-5.57,-2.42,-0.42,-1.35,0.00
4.023,-0.58,-0.64,0.05,2.36,-4.80,-4.86,-2.42,-0.42,-1.35,0.00
4.029,-0.85,-0.74,0.20,2.36,-4.80,-4.86,-2.42,-0.42,-1.35,0.00
4.03,-0.85,-0.74,0.20,2.36,-4.80,-4.86,-2.44,-0.10,-1.25,0.00
4.031,-0.85,-0.74,0.20,-0.26,-5.57,-3.38,-2.44,-0.10,-1.25,0.00
4.04,-1.11,-0.86,0.41,-0.26,-5.57,-3.38,-2.44,-0.10,-1.25,0.00
4.041,-1.11,-0.86,0.41,-0.26,-5.57,-3.38,-2.49,0.15,-1.11,0.00
4.041,-1.11,-0.86,0.41,-2.86,-6.50,-1.32,-2.49,0.15,-1.11,0.00
4.05,-1.32,-1.04,0.67,-2.86,-6.50,-1.32,-2.49,0.15,-1.11,0.00
4.051,-1.32,-1.04,0.67,-2.86,-6.50,-1.32,-2.60,0.30,-1.00,0.00
4.052,-1.32,-1.04,0.67,-4.91,-8.03,1.40,-2.60,0.30,-1.00,0.00
4.059,-1.54,-1.23,1.10,-4.91,-8.03,1.40,-2.60,0.30,-1.00,0.00
4.06,-1.54,-1.23,1.10,-4.91,-8.03,1.40,-2.87,0.41,-1.02,0.00
4.06,-1.54,-1.23,1.10,-7.09,-9.67,5.70,-2.87,0.41,-1.02,0.00
4.07,-1.87,-1.40,1.55,-7.09,-9.67,5.70,-2.87,0.41,-1.02,0.00
4.071,-1.87,-1.40,1.55,-7.09,-9.67,5.70,-3.23,0.40,-1.18,0.00
4.072,-1.87,-1.40,1.55,-10.32,-11.08,10.20,-3.23,0.40,-1.18,0.00
4.079,-2.16,-1.48,1.70,-10.32,-11.08,10.20,-3.23,0.40,-1.18,0.00
4.08,-2.16,-1.48,1.70,-10.32,-11.08,10.20,-3.48,0.03,-1.35,0.00
4.08,-2.16,-1.48,1.70,-13.18,-11.55,11.81,-3.48,0.03,-1.35,0.00
4.09,-2.28,-1.43,1.63,-13.18,-11.55,11.81,-3.48,0.03,-1.35,0.00
4.091,-2.28,-1.43,1.63,-13.18,-11.55,11.81,-3.51,-0.59,-1.38,0.00
4.092,-2.28,-1.43,1.63,-14.48,-10.77,11.17,-3.51,-0.59,-1.38,0.00
4.102,-2.31,-1.35,1.51,-14.48,-10.77,11.17,-3.51,-0.59,-1.38,0.00
4.103,-2.31,-1.35,1.51,-14.48,-10.77,11.17,-3.45,-1.05,-1.24,0.00
4.104,-2.31,-1.35,1.51,-14.78,-9.80,10.04,-3.45,-1.05,-1.24,0.00
4.124,-2.32,-1.28,1.50,-14.78,-9.80,10.04,-3.45,-1.05,-1.24,0.00
4.125,-2.32,-1.28,1.50,-14.78,-9.80,10.04,-3.38,-1.12,-0.99,0.00
4.126,-2.32,-1.28,1.50,-14.98,-8.86,9.98,-3.38,-1.12,-0.99,0.00
4.127,-2.28,-1.16,1.61,-14.98,-8.86,9.98,-3.38,-1.12,-0.99,0.00
4.128,-2.28,-1.16,1.61,-14.98,-8.86,9.98,-3.29,-0.96,-0.74,0.00
4.129,-2.28,-1.16,1.61,-14.69,-7.42,11.09,-3.29,-0.96,-0.74,0.00
4.129,-2.18,-0.99,1.68,-14.69,-7.42,11.09,-3.29,-0.96,-0.74,0.00
4.131,-2.18,-0.99,1.68,-14.69,-7.42,11.09,-3.17,-0.85,-0.52,0.00
4.131,-2.18,-0.99,1.68,-13.80,-5.59,11.81,-3.17,-0.85,-0.52,0.00
4.145,-2.08,-0.78,1.66,-13.80,-5.59,11.81,-3.17,-0.85,-0.52,0.00
4.147,-2.08,-0.78,1.66,-13.80,-5.59,11.81,-3.02,-0.90,-0.35,0.00
4.148,-2.08,-0.78,1.66,-12.84,-3.31,11.67,-3.02,-0.90,-0.35,0.00
4.149,-1.88,-0.54,1.56,-12.84,-3.31,11.67,-3.02,-0.90,-0.35,0.00
4.151,-1.88,-0.54,1.56,-12.84,-3.31,11.67,-2.86,-1.02,-0.20,0.00
4.151,-1.88,-0.54,1.56,-10.94,-0.85,10.73,-2.86,-1.02,-0.20,0.00
4.162,-1.67,-0.30,1.37,-10.94,-0.85,10.73,-2.86,-1.02,-0.20,0.00
4.163,-1.67,-0.30,1.37,-10.94,-0.85,10.73,-2.67,-1.13,-0.04,0.00
4.164,-1.67,-0.30,1.37,-8.97,1.67,8.93,-2.67,-1.13,-0.04,0.00
4.172,-1.46,-0.06,1.16,-8.97,1.67,8.93,-2.67,-1.13,-0.04,0.00
4.174,-1.46,-0.06,1.16,-8.97,1.67,8.93,-2.46,-1.22,0.16,0.00
4.175,-1.46,-0.06,1.16,-6.89,4.08,6.90,-2.46,-1.22,0.16,0.00
4.181,-1.15,0.20,0.97,-6.89,4.08,6.90,-2.46,-1.22,0.16,0.00
4.182,-1.15,0.20,0.97,-6.89,4.08,6.90,-2.26,-1.28,0.39,0.00
4.183,-1.15,0.20,0.97,-3.98,6.66,5.04,-2.26,-1.28,0.39,0.00
4.193,-0.86,0.48,0.82,-3.98,6.66,5.04,-2.26,-1.28,0.39,0.00
4.194,-0.86,0.48,0.82,-3.98,6.66,5.04,-2.07,-1.30,0.59,0.00
4.194,-0.86,0.48,0.82,-1.15,9.46,3.61,-2.07,-1.30,0.59,0.00
4.202,-0.63,0.77,0.74,-1.15,9.46,3.61,-2.07,-1.30,0.59,0.00
4.202,-0.63,0.77,0.74,-1.15,9.46,3.61,-1.88,-1.28,0.73,0.00
4.203,-0.63,0.77,0.74,1.07,12.40,2.76,-1.88,-1.28,0.73,0.00
4.22,-0.51,1.03,0.70,1.07,12.40,2.76,-1.88,-1.28,0.73,0.00
4.222,-0.51,1.03,0.70,1.07,12.40,2.76,-1.67,-1.23,0.80,0.00
4.223,-0.51,1.03,0.70,2.30,14.94,2.41,-1.67,-1.23,0.80,0.00
4.225,-0.41,1.17,0.64,2.30,14.94,2.41,-1.67,-1.23,0.80,0.00
4.226,-0.41,1.17,0.64,2.30,14.94,2.41,-1.38,-1.12,0.87,0.00
4.227,-0.41,1.17,0.64,3.25,16.28,1.79,-1.38,-1.12,0.87,0.00
4.233,-0.32,1.21,0.55,3.25,16.28,1.79,-1.38,-1.12,0.87,0.00
4.234,-0.32,1.21,0.55,3.25,16.28,1.79,-0.99,-0.99,0.97,0.00
4.235,-0.32,1.21,0.55,4.17,16.69,0.86,-0.99,-0.99,0.97,0.00
4.24,-0.22,1.21,0.41,4.17,16.69,0.86,-0.99,-0.99,0.97,0.00
4.242,-0.22,1.21,0.41,4.17,16.69,0.86,-0.55,-0.82,1.07,0.00
4.242,-0.22,1.21,0.41,5.08,16.65,-0.51,-0.55,-0.82,1.07,0.00
4.256,-0.14,1.18,0.34,5.08,16.65,-0.51,-0.55,-0.82,1.07,0.00
4.258,-0.14,1.18,0.34,5.08,16.65,-0.51,-0.10,-0.59,1.16,0.00
4.258,-0.14,1.18,0.34,5.89,16.25,-1.28,-0.10,-0.59,1.16,0.00
4.259,-0.08,1.12,0.30,5.89,16.25,-1.28,-0.10,-0.59,1.16,0.00
4.26,-0.08,1.12,0.30,5.89,16.25,-1.28,0.32,-0.33,1.21,0.00
4.261,-0.08,1.12,0.30,6.60,15.56,-1.70,0.32,-0.33,1.21,0.00
4.272,-0.09,1.09,0.32,6.60,15.56,-1.70,0.32,-0.33,1.21,0.00
4.273,-0.09,1.09,0.32,6.60,15.56,-1.70,0.67,-0.10,1.21,0.00
4.274,-0.09,1.09,0.32,6.51,15.17,-1.56,0.67,-0.10,1.21,0.00
4.282,-0.19,1.05,0.38,6.51,15.17,-1.56,0.67,-0.10,1.21,0.00
4.283,-0.19,1.05,0.38,6.51,15.17,-1.56,0.96,0.03,1.17,0.00
4.284,-0.19,1.05,0.38,5.63,14.62,-1.00,0.96,0.03,1.17,0.00
4.293,-0.28,0.95,0.41,5.63,14.62,-1.00,0.96,0.03,1.17,0.00
4.293,-0.28,0.95,0.41,5.63,14.62,-1.00,1.25,0.09,1.13,0.00
4.294,-0.28,0.95,0.41,4.78,13.51,-0.73,1.25,0.09,1.13,0.00
4.302,-0.32,0.82,0.39,4.78,13.51,-0.73,1.25,0.09,1.13,0.00
4.303,-0.32,0.82,0.39,4.78,13.51,-0.73,1.55,0.09,1.11,0.00
4.303,-0.32,0.82,0.39,4.42,12.02,-0.99,1.55,0.09,1.11,0.00
4.316,-0.36,0.68,0.40,4.42,12.02,-0.99,1.55,0.09,1.11,0.00
4.317,-0.36,0.68,0.40,4.42,12.02,-0.99,1.85,0.09,1.10,0.00
4.318,-0.36,0.68,0.40,4.10,10.49,-0.93,1.85,0.09,1.10,0.00
4.325,-0.42,0.59,0.45,4.10,10.49,-0.93,1.85,0.09,1.10,0.00
4.326,-0.42,0.59,0.45,4.10,10.49,-0.93,2.13,0.13,1.10,0.00
4.327,-0.42,0.59,0.45,3.53,9.39,-0.56,2.13,0.13,1.10,0.00
4.332,-0.54,0.51,0.54,3.53,9.39,-0.56,2.13,0.13,1.10,0.00
4.332,-0.54,0.51,0.54,3.53,9.39,-0.56,2.39,0.21,1.13,0.00
4.333,-0.54,0.51,0.54,2.44,8.43,0.26,2.39,0.21,1.13,0.00
4.342,-0.69,0.44,0.63,2.44,8.43,0.26,2.39,0.21,1.13,0.00
4.343,-0.69,0.44,0.63,2.44,8.43,0.26,2.65,0.29,1.20,0.00
4.344,-0.69,0.44,0.63,1.01,7.48,1.13,2.65,0.29,1.20,0.00
4.354,-0.87,0.37,0.75,1.01,7.48,1.13,2.65,0.29,1.20,0.00
4.355,-0.87,0.37,0.75,1.01,7.48,1.13,2.91,0.38,1.29,0.00
4.356,-0.87,0.37,0.75,-0.70,6.56,2.22,2.91,0.38,1.29,0.00
4.362,-1.09,0.24,0.91,-0.70,6.56,2.22,2.91,0.38,1.29,0.00
4.362,-1.09,0.24,0.91,-0.70,6.56,2.22,3.17,0.48,1.41,0.00
4.363,-1.09,0.24,0.91,-2.78,5.03,3.73,3.17,0.48,1.41,0.00
4.373,-1.29,0.08,1.05,-2.78,5.03,3.73,3.17,0.48,1.41,0.00
4.375,-1.29,0.08,1.05,-2.78,5.03,3.73,3.44,0.57,1.54,0.00
4.375,-1.29,0.08,1.05,-4.65,3.16,5.02,3.44,0.57,1.54,0.00
4.382,-1.39,-0.04,1.21,-4.65,3.16,5.02,3.44,0.57,1.54,0.00
4.383,-1.39,-0.04,1.21,-4.65,3.16,5.02,3.68,0.61,1.65,0.00
4.384,-1.39,-0.04,1.21,-5.61,1.70,6.57,3.68,0.61,1.65,0.00
4.393,-1.54,-0.18,1.40,-5.61,1.70,6.57,3.68,0.61,1.65,0.00
4.394,-1.54,-0.18,1.40,-5.61,1.70,6.57,3.85,0.70,1.65,0.00
4.395,-1.54,-0.18,1.40,-7.05,-0.06,8.48,3.85,0.70,1.65,0.00
4.405,-1.88,-0.40,1.67,-7.05,-0.06,8.48,3.85,0.70,1.65,0.00
4.407,-1.88,-0.40,1.67,-7.05,-0.06,8.48,3.88,1.03,1.45,0.00
4.407,-1.88,-0.40,1.67,-10.24,-2.53,11.06,3.88,1.03,1.45,0.00
4.414,-2.33,-0.69,1.99,-10.24,-2.53,11.06,3.88,1.03,1.45,0.00
4.414,-2.33,-0.69,1.99,-10.24,-2.53,11.06,3.75,1.66,1.13,0.00
4.415,-2.33,-0.69,1.99,-14.60,-5.62,14.36,3.75,1.66,1.13,0.00
4.424,-2.67,-1.07,2.15,-14.60,-5.62,14.36,3.75,1.66,1.13,0.00
4.425,-2.67,-1.07,2.15,-14.60,-5.62,14.36,3.64,2.10,0.93,0.00
4.426,-2.67,-1.07,2.15,-17.83,-9.70,16.07,3.64,2.10,0.93,0.00
4.434,-2.70,-1.43,2.10,-17.83,-9.70,16.07,3.64,2.10,0.93,0.00
4.435,-2.70,-1.43,2.10,-17.83,-9.70,16.07,3.61,1.91,0.88,0.00
4.436,-2.70,-1.43,2.10,-18.01,-13.43,15.70,3.61,1.91,0.88,0.00
4.456,-2.37,-1.48,1.79,-18.01,-13.43,15.70,3.61,1.91,0.88,0.00
4.457,-2.37,-1.48,1.79,-18.01,-13.43,15.70,3.55,1.17,0.84,0.00
4.458,-2.37,-1.48,1.79,-14.65,-14.23,12.71,3.55,1.17,0.84,0.00
4.459,-1.79,-1.36,1.37,-14.65,-14.23,12.71,3.55,1.17,0.84,0.00
4.46,-1.79,-1.36,1.37,-14.65,-14.23,12.71,3.43,0.34,0.78,0.00
4.461,-1.79,-1.36,1.37,-8.99,-13.28,8.68,3.43,0.34,0.78,0.00
4.465,-1.44,-1.16,1.15,-8.99,-13.28,8.68,3.43,0.34,0.78,0.00
4.465,-1.44,-1.16,1.15,-8.99,-13.28,8.68,3.22,-0.12,0.62,0.00
4.466,-1.44,-1.16,1.15,-5.58,-11.48,6.46,3.22,-0.12,0.62,0.00
4.481,-1.20,-1.03,1.09,-5.58,-11.48,6.46,3.22,-0.12,0.62,0.00
4.482,-1.20,-1.03,1.09,-5.58,-11.48,6.46,2.95,-0.10,0.39,0.00
4.483,-1.20,-1.03,1.09,-3.22,-10.35,5.84,2.95,-0.10,0.39,0.00
4.484,-1.06,-0.92,1.02,-3.22,-10.35,5.84,2.95,-0.10,0.39,0.00
4.485,-1.06,-0.92,1.02,-3.22,-10.35,5.84,2.67,0.08,0.12,0.00
4.486,-1.06,-0.92,1.02,-1.81,-9.49,5.24,2.67,0.08,0.12,0.00
4.494,-0.90,-0.76,0.93,-1.81,-9.49,5.24,2.67,0.08,0.12,0.00
4.494,-0.90,-0.76,0.93,-1.81,-9.49,5.24,2.44,0.14,-0.22,0.00
4.495,-0.90,-0.76,0.93,-0.22,-8.00,4.32,2.44,0.14,-0.22,0.00
4.505,-0.68,-0.66,0.76,-0.22,-8.00,4.32,2.44,0.14,-0.22,0.00
4.506,-0.68,-0.66,0.76,-0.22,-8.00,4.32,2.22,0.07,-0.56,0.00
4.507,-0.68,-0.66,0.76,1.86,-7.06,2.67,2.22,0.07,-0.56,0.00
4.514,-0.45,-0.57,0.58,1.86,-7.06,2.67,2.22,0.07,-0.56,0.00
4.515,-0.45,-0.57,0.58,1.86,-7.06,2.67,2.02,-0.03,-0.85,0.00
4.516,-0.45,-0.57,0.58,4.11,-6.17,0.91,2.02,-0.03,-0.85,0.00
4.524,-0.27,-0.52,0.40,4.11,-6.17,0.91,2.02,-0.03,-0.85,0.00
4.525,-0.27,-0.52,0.40,4.11,-6.17,0.91,1.81,-0.06,-1.10,0.00
4.526,-0.27,-0.52,0.40,5.92,-5.72,-0.79,1.81,-0.06,-1.10,0.00
4.535,-0.15,-0.53,0.27,5.92,-5.72,-0.79,1.81,-0.06,-1.10,0.00
4.536,-0.15,-0.53,0.27,5.92,-5.72,-0.79,1.60,-0.04,-1.29,0.00
4.537,-0.15,-0.53,0.27,7.13,-5.75,-2.11,1.60,-0.04,-1.29,0.00
4.56,-0.03,-0.53,0.15,7.13,-5.75,-2.11,1.60,-0.04,-1.29,0.00
4.561,-0.03,-0.53,0.15,7.13,-5.75,-2.11,1.38,-0.09,-1.37,0.00
4.562,-0.03,-0.53,0.15,8.24,-5.66,-3.27,1.38,-0.09,-1.37,0.00
4.563,0.11,-0.53,0.01,8.24,-5.66,-3.27,1.38,-0.09,-1.37,0.00
4.566,0.11,-0.53,0.01,8.24,-5.66,-3.27,1.15,-0.32,-1.33,0.00
4.567,0.11,-0.53,0.01,9.66,-5.63,-4.66,1.15,-0.32,-1.33,0.00
4.568,0.29,-0.49,-0.16,9.66,-5.63,-4.66,1.15,-0.32,-1.33,0.00
4.569,0.29,-0.49,-0.16,9.66,-5.63,-4.66,0.94,-0.68,-1.22,0.00
4.57,0.29,-0.49,-0.16,11.39,-5.16,-6.40,0.94,-0.68,-1.22,0.00
4.579,0.43,-0.42,-0.31,11.39,-5.16,-6.40,0.94,-0.68,-1.22,0.00
4.581,0.43,-0.42,-0.31,11.39,-5.16,-6.40,0.75,-0.99,-1.10,0.00
4.582,0.43,-0.42,-0.31,12.74,-4.47,-7.88,0.75,-0.99,-1.10,0.00
4.583,0.51,-0.36,-0.45,12.74,-4.47,-7.88,0.75,-0.99,-1.10,0.00
4.584,0.51,-0.36,-0.45,12.74,-4.47,-7.88,0.56,-1.17,-1.04,0.00
4.585,0.51,-0.36,-0.45,13.43,-3.82,-9.40,0.56,-1.17,-1.04,0.00
4.599,0.57,-0.31,-0.52,13.43,-3.82,-9.40,0.56,-1.17,-1.04,0.00
4.601,0.57,-0.31,-0.52,13.43,-3.82,-9.40,0.31,-1.17,-1.02,0.00
4.602,0.57,-0.31,-0.52,13.94,-3.26,-10.12,0.31,-1.17,-1.02,0.00
4.603,0.51,-0.28,-0.51,13.94,-3.26,-10.12,0.31,-1.17,-1.02,0.00
4.605,0.51,-0.28,-0.51,13.94,-3.26,-10.12,-0.02,-1.03,-1.04,0.00
4.606,0.51,-0.28,-0.51,13.38,-2.82,-10.19,-0.02,-1.03,-1.04,0.00
4.616,0.48,-0.26,-0.52,13.38,-2.82,-10.19,-0.02,-1.03,-1.04,0.00
4.617,0.48,-0.26,-0.52,13.38,-2.82,-10.19,-0.41,-0.90,-1.08,0.00
4.618,0.48,-0.26,-0.52,13.02,-2.51,-10.34,-0.41,-0.90,-1.08,0.00
4.625,0.40,-0.19,-0.52,13.02,-2.51,-10.34,-0.41,-0.90,-1.08,0.00
4.626,0.40,-0.19,-0.52,13.02,-2.51,-10.34,-0.84,-0.83,-1.13,0.00
4.626,0.40,-0.19,-0.52,12.16,-1.72,-10.42,-0.84,-0.83,-1.13,0.00
4.635,0.41,-0.31,-0.41,12.16,-1.72,-10.42,-0.84,-0.83,-1.13,0.00
4.635,0.41,-0.31,-0.41,12.16,-1.72,-10.42,-1.26,-0.74,-1.20,0.00
4.636,0.41,-0.31,-0.41,12.23,-2.78,-9.42,-1.26,-0.74,-1.20,0.00
4.658,0.29,-0.34,-0.31,12.23,-2.78,-9.42,-1.26,-0.74,-1.20,0.00
4.659,0.29,-0.34,-0.31,12.23,-2.78,-9.42,-1.70,-0.75,-1.25,0.00
4.66,0.29,-0.34,-0.31,10.96,-2.82,-8.49,-1.70,-0.75,-1.25,0.00
4.661,0.17,-0.40,-0.20,10.96,-2.82,-8.49,-1.70,-0.75,-1.25,0.00
4.662,0.17,-0.40,-0.20,10.96,-2.82,-8.49,-2.09,-0.82,-1.29,0.00
4.662,0.17,-0.40,-0.20,9.74,-3.17,-7.39,-2.09,-0.82,-1.29,0.00
4.663,0.03,-0.47,-0.12,9.74,-3.17,-7.39,-2.09,-0.82,-1.29,0.00
4.664,0.03,-0.47,-0.12,9.74,-3.17,-7.39,-2.39,-0.84,-1.35,0.00
4.665,0.03,-0.47,-0.12,8.33,-3.67,-6.70,-2.39,-0.84,-1.35,0.00
4.676,-0.19,-0.59,-0.02,8.33,-3.67,-6.70,-2.39,-0.84,-1.35,0.00
4.677,-0.19,-0.59,-0.02,8.33,-3.67,-6.70,-2.64,-0.82,-1.41,0.00
4.677,-0.19,-0.59,-0.02,6.17,-4.53,-5.74,-2.64,-0.82,-1.41,0.00
4.686,-0.47,-0.70,0.10,6.17,-4.53,-5.74,-2.64,-0.82,-1.41,0.00
4.686,-0.47,-0.70,0.10,6.17,-4.53,-5.74,-2.81,-0.72,-1.42,0.00
4.687,-0.47,-0.70,0.10,3.31,-5.34,-4.63,-2.81,-0.72,-1.42,0.00
4.695,-0.74,-0.84,0.20,3.31,-5.34,-4.63,-2.81,-0.72,-1.42,0.00
4.696,-0.74,-0.84,0.20,3.31,-5.34,-4.63,-2.88,-0.56,-1.33,0.00
4.697,-0.74,-0.84,0.20,0.58,-6.51,-3.60,-2.88,-0.56,-1.33,0.00
4.705,-1.09,-0.93,0.37,0.58,-6.51,-3.60,-2.88,-0.56,-1.33,0.00
4.707,-1.09,-0.93,0.37,0.58,-6.51,-3.60,-2.88,-0.28,-1.13,0.00
4.707,-1.09,-0.93,0.37,-2.84,-7.11,-1.96,-2.88,-0.28,-1.13,0.00
4.715,-1.35,-1.06,0.70,-2.84,-7.11,-1.96,-2.88,-0.28,-1.13,0.00
4.715,-1.35,-1.06,0.70,-2.84,-7.11,-1.96,-2.90,0.08,-0.92,0.00
4.716,-1.35,-1.06,0.70,-5.39,-8.19,1.36,-2.90,0.08,-0.92,0.00
4.725,-1.66,-1.21,1.11,-5.39,-8.19,1.36,-2.90,0.08,-0.92,0.00
4.726,-1.66,-1.21,1.11,-5.39,-8.19,1.36,-3.02,0.29,-0.75,0.00
4.726,-1.66,-1.21,1.11,-8.45,-9.43,5.47,-3.02,0.29,-0.75,0.00
4.736,-1.99,-1.33,1.58,-8.45,-9.43,5.47,-3.02,0.29,-0.75,0.00
4.737,-1.99,-1.33,1.58,-8.45,-9.43,5.47,-3.24,0.31,-0.72,0.00
4.737,-1.99,-1.33,1.58,-11.68,-10.36,10.20,-3.24,0.31,-0.72,0.00
4.75,-2.20,-1.44,1.87,-11.68,-10.36,10.20,-3.24,0.31,-0.72,0.00
4.752,-2.20,-1.44,1.87,-11.68,-10.36,10.20,-3.43,0.06,-0.74,0.00
4.753,-2.20,-1.44,1.87,-13.75,-11.22,13.14,-3.43,0.06,-0.74,0.00
4.759,-2.23,-1.40,1.79,-13.75,-11.22,13.14,-3.43,0.06,-0.74,0.00
4.76,-2.23,-1.40,1.79,-13.75,-11.22,13.14,-3.41,-0.55,-0.70,0.00
4.761,-2.23,-1.40,1.79,-14.10,-10.53,12.48,-3.41,-0.55,-0.70,0.00
4.765,-2.24,-1.27,1.66,-14.10,-10.53,12.48,-3.41,-0.55,-0.70,0.00
4.766,-2.24,-1.27,1.66,-14.10,-10.53,12.48,-3.25,-1.04,-0.54,0.00
4.769,-2.24,-1.27,1.66,-14.29,-9.08,11.18,-3.25,-1.04,-0.54,0.00
4.781,-2.22,-1.23,1.67,-14.29,-9.08,11.18,-3.25,-1.04,-0.54,0.00
4.782,-2.22,-1.23,1.67,-14.29,-9.08,11.18,-3.12,-0.89,-0.34,0.00
4.783,-2.22,-1.23,1.67,-14.16,-8.47,11.34,-3.12,-0.89,-0.34,0.00
4.784,-2.27,-1.14,1.80,-14.16,-8.47,11.34,-3.12,-0.89,-0.34,0.00
4.785,-2.27,-1.14,1.80,-14.16,-8.47,11.34,-3.02,-0.44,-0.15,0.00
4.786,-2.27,-1.14,1.80,-14.64,-7.46,12.70,-3.02,-0.44,-0.15,0.00
4.811,-2.19,-0.99,1.82,-14.64,-7.46,12.70,-3.02,-0.44,-0.15,0.00
4.812,-2.19,-0.99,1.82,-14.64,-7.46,12.70,-2.91,-0.28,0.04,0.00
4.813,-2.19,-0.99,1.82,-13.90,-5.86,12.97,-2.91,-0.28,0.04,0.00
4.814,-2.04,-0.78,1.75,-13.90,-5.86,12.97,-2.91,-0.28,0.04,0.00
4.815,-2.04,-0.78,1.75,-13.90,-5.86,12.97,-2.76,-0.49,0.19,0.00
4.815,-2.04,-0.78,1.75,-12.41,-3.63,12.34,-2.76,-0.49,0.19,0.00
4.816,-1.87,-0.56,1.64,-12.41,-3.63,12.34,-2.76,-0.49,0.19,0.00
4.817,-1.87,-0.56,1.64,-12.41,-3.63,12.34,-2.63,-0.79,0.29,0.00
4.817,-1.87,-0.56,1.64,-10.77,-1.38,11.35,-2.63,-0.79,0.29,0.00
4.827,-1.67,-0.35,1.52,-10.77,-1.38,11.35,-2.63,-0.79,0.29,0.00
4.828,-1.67,-0.35,1.52,-10.77,-1.38,11.35,-2.49,-0.98,0.38,0.00
4.828,-1.67,-0.35,1.52,-8.87,0.77,10.13,-2.49,-0.98,0.38,0.00
4.836,-1.50,-0.12,1.34,-8.87,0.77,10.13,-2.49,-0.98,0.38,0.00
4.837,-1.50,-0.12,1.34,-8.87,0.77,10.13,-2.31,-1.09,0.49,0.00
4.838,-1.50,-0.12,1.34,-7.24,3.04,8.40,-2.31,-1.09,0.49,0.00
4.846,-1.30,0.09,1.13,-7.24,3.04,8.40,-2.31,-1.09,0.49,0.00
4.847,-1.30,0.09,1.13,-7.24,3.04,8.40,-2.09,-1.14,0.63,0.00
4.848,-1.30,0.09,1.13,-5.28,5.22,6.40,-2.09,-1.14,0.63,0.00
4.867,-1.03,0.31,0.92,-5.28,5.22,6.40,-2.09,-1.14,0.63,0.00
4.869,-1.03,0.31,0.92,-5.28,5.22,6.40,-1.84,-1.12,0.79,0.00
4.869,-1.03,0.31,0.92,-2.65,7.42,4.34,-1.84,-1.12,0.79,0.00
4.87,-0.74,0.59,0.77,-2.65,7.42,4.34,-1.84,-1.12,0.79,0.00
4.871,-0.74,0.59,0.77,-2.65,7.42,4.34,-1.61,-1.06,0.93,0.00
4.871,-0.74,0.59,0.77,0.14,10.15,2.83,-1.61,-1.06,0.93,0.00
4.876,-0.54,0.90,0.68,0.14,10.15,2.83,-1.61,-1.06,0.93,0.00
4.877,-0.54,0.90,0.68,0.14,10.15,2.83,-1.38,-0.97,1.00,0.00
4.878,-0.54,0.90,0.68,2.17,13.14,1.94,-1.38,-0.97,1.00,0.00
4.889,-0.40,1.12,0.63,2.17,13.14,1.94,-1.38,-0.97,1.00,0.00
4.891,-0.40,1.12,0.63,2.17,13.14,1.94,-1.12,-0.85,1.04,0.00
4.892,-0.40,1.12,0.63,3.52,15.24,1.41,-1.12,-0.85,1.04,0.00
4.897,-0.32,1.22,0.54,3.52,15.24,1.41,-1.12,-0.85,1.04,0.00
4.898,-0.32,1.22,0.54,3.52,15.24,1.41,-0.78,-0.73,1.08,0.00
4.898,-0.32,1.22,0.54,4.34,16.27,0.57,-0.78,-0.73,1.08,0.00
4.908,-0.22,1.24,0.40,4.34,16.27,0.57,-0.78,-0.73,1.08,0.00
4.91,-0.22,1.24,0.40,4.34,16.27,0.57,-0.38,-0.60,1.16,0.00
4.911,-0.22,1.24,0.40,5.25,16.40,-0.82,-0.38,-0.60,1.16,0.00
4.917,-0.12,1.21,0.30,5.25,16.40,-0.82,-0.38,-0.60,1.16,0.00
4.918,-0.12,1.21,0.30,5.25,16.40,-0.82,0.06,-0.43,1.27,0.00
4.919,-0.12,1.21,0.30,6.28,15.93,-1.92,0.06,-0.43,1.27,0.00
4.928,-0.06,1.15,0.21,6.28,15.93,-1.92,0.06,-0.43,1.27,0.00
4.928,-0.06,1.15,0.21,6.28,15.93,-1.92,0.47,-0.20,1.37,0.00
4.929,-0.06,1.15,0.21,6.94,15.24,-2.82,0.47,-0.20,1.37,0.00
4.94,-0.07,1.12,0.14,6.94,15.24,-2.82,0.47,-0.20,1.37,0.00
4.941,-0.07,1.12,0.14,6.94,15.24,-2.82,0.85,0.02,1.42,0.00
4.942,-0.07,1.12,0.14,6.91,14.77,-3.50,0.85,0.02,1.42,0.00
4.948,-0.13,1.10,0.11,6.91,14.77,-3.50,0.85,0.02,1.42,0.00
4.949,-0.13,1.10,0.11,6.91,14.77,-3.50,1.17,0.17,1.46,0.00
4.949,-0.13,1.10,0.11,6.37,14.42,-3.82,1.17,0.17,1.46,0.00
4.96,-0.17,1.04,0.12,6.37,14.42,-3.82,1.17,0.17,1.46,0.00
4.961,-0.17,1.04,0.12,6.37,14.42,-3.82,1.45,0.23,1.50,0.00
4.962,-0.17,1.04,0.12,6.09,13.64,-3.80,1.45,0.23,1.50,0.00
4.968,-0.18,0.93,0.12,6.09,13.64,-3.80,1.45,0.23,1.50,0.00
4.968,-0.18,0.93,0.12,6.09,13.64,-3.80,1.70,0.25,1.54,0.00
4.969,-0.18,0.93,0.12,6.00,12.40,-3.85,1.70,0.25,1.54,0.00
4.986,-0.22,0.85,0.13,6.00,12.40,-3.85,1.70,0.25,1.54,0.00
4.987,-0.22,0.85,0.13,6.00,12.40,-3.85,1.93,0.26,1.56,0.00
4.988,-0.22,0.85,0.13,5.73,11.34,-3.75,1.93,0.26,1.56,0.00
4.989,-0.29,0.76,0.18,5.73,11.34,-3.75,1.93,0.26,1.56,0.00
4.99,-0.29,0.76,0.18,5.73,11.34,-3.75,2.14,0.32,1.56,0.00
4.99,-0.29,0.76,0.18,5.11,10.22,-3.28,2.14,0.32,1.56,0.00
4.998,-0.36,0.67,0.28,5.11,10.22,-3.28,2.14,0.32,1.56,0.00
4.998,-0.36,0.67,0.28,5.11,10.22,-3.28,2.34,0.43,1.59,0.00
4.999,-0.36,0.67,0.28,4.47,9.13,-2.37,2.34,0.43,1.59,0.00
5.011,-0.49,0.59,0.41,4.47,9.13,-2.37,2.34,0.43,1.59,0.00
5.013,-0.49,0.59,0.41,4.47,9.13,-2.37,2.51,0.54,1.62,0.00
5.014,-0.49,0.59,0.41,3.25,8.09,-1.14,2.51,0.54,1.62,0.00
5.02,-0.65,0.50,0.55,3.25,8.09,-1.14,2.51,0.54,1.62,0.00
5.021,-0.65,0.50,0.55,3.25,8.09,-1.14,2.68,0.63,1.66,0.00
5.022,-0.65,0.50,0.55,1.72,6.94,0.22,2.68,0.63,1.66,0.00
5.031,-0.83,0.43,0.67,1.72,6.94,0.22,2.68,0.63,1.66,0.00
5.032,-0.83,0.43,0.67,1.72,6.94,0.22,2.88,0.65,1.74,0.00
5.034,-0.83,0.43,0.67,0.05,5.95,1.41,2.88,0.65,1.74,0.00
5.043,-1.06,0.35,0.82,0.05,5.95,1.41,2.88,0.65,1.74,0.00
5.044,-1.06,0.35,0.82,0.05,5.95,1.41,3.11,0.61,1.84,0.00
5.045,-1.06,0.35,0.82,-2.14,4.82,2.91,3.11,0.61,1.84,0.00
5.047,-1.19,0.26,0.90,-2.14,4.82,2.91,3.11,0.61,1.84,0.00
5.048,-1.19,0.26,0.90,-2.14,4.82,2.91,3.39,0.56,1.97,0.00
5.048,-1.19,0.26,0.90,-3.34,3.59,3.68,3.39,0.56,1.97,0.00
5.06,-1.31,0.24,1.06,-3.34,3.59,3.68,3.39,0.56,1.97,0.00
5.061,-1.31,0.24,1.06,-3.34,3.59,3.68,3.65,0.51,2.07,0.00
5.062,-1.31,0.24,1.06,-4.54,3.04,5.30,3.65,0.51,2.07,0.00
5.069,-1.56,0.21,1.33,-4.54,3.04,5.30,3.65,0.51,2.07,0.00
5.07,-1.56,0.21,1.33,-4.54,3.04,5.30,3.82,0.54,2.04,0.00
5.071,-1.56,0.21,1.33,-6.87,2.39,7.92,3.82,0.54,2.04,0.00
5.088,-1.96,0.07,1.72,-6.87,2.39,7.92,3.82,0.54,2.04,0.00
5.089,-1.96,0.07,1.72,-6.87,2.39,7.92,3.79,0.87,1.81,0.00
5.09,-1.96,0.07,1.72,-10.77,0.74,11.80,3.79,0.87,1.81,0.00
5.091,-2.46,-0.22,2.09,-10.77,0.74,11.80,3.79,0.87,1.81,0.00
5.091,-2.46,-0.22,2.09,-10.77,0.74,11.80,3.55,1.49,1.45,0.00
5.092,-2.46,-0.22,2.09,-15.57,-2.47,15.55,3.55,1.49,1.45,0.00
5.099,-2.75,-0.54,2.19,-15.57,-2.47,15.55,3.55,1.49,1.45,0.00
5.1,-2.75,-0.54,2.19,-15.57,-2.47,15.55,3.37,1.82,1.21,0.00
5.1,-2.75,-0.54,2.19,-18.35,-5.88,16.75,3.37,1.82,1.21,0.00
5.115,-2.78,-0.86,2.04,-18.35,-5.88,16.75,3.37,1.82,1.21,0.00
5.116,-2.78,-0.86,2.04,-18.35,-5.88,16.75,3.34,1.51,1.13,0.00
5.117,-2.78,-0.86,2.04,-18.62,-9.23,15.46,3.34,1.51,1.13,0.00
5.118,-2.51,-0.99,1.70,-18.62,-9.23,15.46,3.34,1.51,1.13,0.00
5.119,-2.51,-0.99,1.70,-18.62,-9.23,15.46,3.37,0.85,1.07,0.00
5.12,-2.51,-0.99,1.70,-15.95,-10.74,12.22,3.37,0.85,1.07,0.00
5.13,-2.00,-0.96,1.31,-15.95,-10.74,12.22,3.37,0.85,1.07,0.00
5.132,-2.00,-0.96,1.31,-15.95,-10.74,12.22,3.32,0.18,1.03,0.00
5.132,-2.00,-0.96,1.31,-10.95,-10.69,8.40,3.32,0.18,1.03,0.00
5.143,-1.58,-0.85,1.09,-10.95,-10.69,8.40,3.32,0.18,1.03,0.00
5.144,-1.58,-0.85,1.09,-10.95,-10.69,8.40,3.14,-0.18,0.91,0.00
5.145,-1.58,-0.85,1.09,-6.81,-9.88,6.30,3.14,-0.18,0.91,0.00
5.149,-1.34,-0.78,1.02,-6.81,-9.88,6.30,3.14,-0.18,0.91,0.00
5.151,-1.34,-0.78,1.02,-6.81,-9.88,6.30,2.87,-0.15,0.68,0.00
5.153,-1.34,-0.78,1.02,-4.49,-9.32,5.65,2.87,-0.15,0.68,0.00
5.161,-1.16,-0.72,0.90,-4.49,-9.32,5.65,2.87,-0.15,0.68,0.00
5.161,-1.16,-0.72,0.90,-4.49,-9.32,5.65,2.59,-0.05,0.37,0.00
5.162,-1.16,-0.72,0.90,-2.74,-8.95,4.50,2.59,-0.05,0.37,0.00
5.169,-0.92,-0.64,0.81,-2.74,-8.95,4.50,2.59,-0.05,0.37,0.00
5.17,-0.92,-0.64,0.81,-2.74,-8.95,4.50,2.30,-0.03,0.01,0.00
5.171,-0.92,-0.64,0.81,-0.42,-8.19,3.67,2.30,-0.03,0.01,0.00
5.185,-0.64,-0.56,0.68,-0.42,-8.19,3.67,2.30,-0.03,0.01,0.00
5.186,-0.64,-0.56,0.68,-0.42,-8.19,3.67,2.00,-0.09,-0.38,0.00
5.187,-0.64,-0.56,0.68,2.33,-7.45,2.45,2.00,-0.09,-0.38,0.00
5.188,-0.35,-0.51,0.51,2.33,-7.45,2.45,2.00,-0.09,-0.38,0.00
5.189,-0.35,-0.51,0.51,2.33,-7.45,2.45,1.73,-0.18,-0.76,0.00
5.19,-0.35,-0.51,0.51,5.24,-7.03,0.81,1.73,-0.18,-0.76,0.00
5.199,-0.17,-0.50,0.34,5.24,-7.03,0.81,1.73,-0.18,-0.76,0.00
5.2,-0.17,-0.50,0.34,5.24,-7.03,0.81,1.47,-0.18,-1.11,0.00
5.201,-0.17,-0.50,0.34,7.00,-6.85,-0.88,1.47,-0.18,-1.11,0.00
5.21,-0.07,-0.51,0.22,7.00,-6.85,-0.88,1.47,-0.18,-1.11,0.00
5.211,-0.07,-0.51,0.22,7.00,-6.85,-0.88,1.20,-0.10,-1.40,0.00
5.212,-0.07,-0.51,0.22,8.00,-6.95,-2.03,1.20,-0.10,-1.40,0.00
5.22,0.03,-0.56,0.16,8.00,-6.95,-2.03,1.20,-0.10,-1.40,0.00
5.221,0.03,-0.56,0.16,8.00,-6.95,-2.03,0.92,-0.07,-1.58,0.00
5.222,0.03,-0.56,0.16,8.98,-7.34,-2.59,0.92,-0.07,-1.58,0.00
5.23,0.18,-0.61,0.05,8.98,-7.34,-2.59,0.92,-0.07,-1.58,0.00
5.231,0.18,-0.61,0.05,8.98,-7.34,-2.59,0.63,-0.22,-1.63,0.00
5.232,0.18,-0.61,0.05,10.49,-7.67,-3.64,0.63,-0.22,-1.63,0.00
5.241,0.33,-0.61,-0.13,10.49,-7.67,-3.64,0.63,-0.22,-1.63,0.00
5.242,0.33,-0.61,-0.13,10.49,-7.67,-3.64,0.40,-0.52,-1.60,0.00
5.243,0.33,-0.61,-0.13,11.95,-7.50,-5.45,0.40,-0.52,-1.60,0.00
5.251,0.46,-0.56,-0.28,11.95,-7.50,-5.45,0.40,-0.52,-1.60,0.00
5.252,0.46,-0.56,-0.28,11.95,-7.50,-5.45,0.23,-0.78,-1.54,0.00
5.253,0.46,-0.56,-0.28,13.21,-6.97,-7.00,0.23,-0.78,-1.54,0.00
5.261,0.54,-0.51,-0.38,13.21,-6.97,-7.00,0.23,-0.78,-1.54,0.00
5.261,0.54,-0.51,-0.38,13.21,-6.97,-7.00,0.07,-0.84,-1.51,0.00
5.262,0.54,-0.51,-0.38,13.98,-6.30,-8.11,0.07,-0.84,-1.51,0.00
5.271,0.55,-0.44,-0.41,13.98,-6.30,-8.11,0.07,-0.84,-1.51,0.00
5.272,0.55,-0.44,-0.41,13.98,-6.30,-8.11,-0.15,-0.77,-1.55,0.00
5.272,0.55,-0.44,-0.41,14.10,-5.51,-8.47,-0.15,-0.77,-1.55,0.00
5.281,0.51,-0.42,-0.38,14.10,-5.51,-8.47,-0.15,-0.77,-1.55,0.00
5.281,0.51,-0.42,-0.38,14.10,-5.51,-8.47,-0.46,-0.63,-1.63,0.00
5.282,0.51,-0.42,-0.38,13.63,-5.09,-8.23,-0.46,-0.63,-1.63,0.00
5.304,0.47,-0.40,-0.30,13.63,-5.09,-8.23,-0.46,-0.63,-1.63,0.00
5.305,0.47,-0.40,-0.30,13.63,-5.09,-8.23,-0.85,-0.55,-1.72,0.00
5.306,0.47,-0.40,-0.30,13.23,-4.69,-7.47,-0.85,-0.55,-1.72,0.00
5.307,0.36,-0.38,-0.21,13.23,-4.69,-7.47,-0.85,-0.55,-1.72,0.00
5.308,0.36,-0.38,-0.21,13.23,-4.69,-7.47,-1.28,-0.57,-1.80,0.00
5.308,0.36,-0.38,-0.21,12.21,-4.36,-6.70,-1.28,-0.57,-1.80,0.00
5.309,0.28,-0.43,-0.16,12.21,-4.36,-6.70,-1.28,-0.57,-1.80,0.00
5.31,0.28,-0.43,-0.16,12.21,-4.36,-6.70,-1.69,-0.70,-1.88,0.00
5.311,0.28,-0.43,-0.16,11.37,-4.57,-6.23,-1.69,-0.70,-1.88,0.00
5.332,0.19,-0.46,-0.10,11.37,-4.57,-6.23,-1.69,-0.70,-1.88,0.00
5.333,0.19,-0.46,-0.10,11.37,-4.57,-6.23,-2.07,-0.81,-1.92,0.00
5.334,0.19,-0.46,-0.10,10.42,-4.60,-5.74,-2.07,-0.81,-1.92,0.00
5.335,0.09,-0.52,-0.07,10.42,-4.60,-5.74,-2.07,-0.81,-1.92,0.00
5.336,0.09,-0.52,-0.07,10.42,-4.60,-5.74,-2.40,-0.89,-1.95,0.00
5.337,0.09,-0.52,-0.07,9.44,-4.92,-5.47,-2.40,-0.89,-1.95,0.00
5.344,-0.09,-0.54,-0.00,9.44,-4.92,-5.47,-2.40,-0.89,-1.95,0.00
5.345,-0.09,-0.54,-0.00,9.44,-4.92,-5.47,-2.67,-0.96,-1.98,0.00
5.346,-0.09,-0.54,-0.00,7.59,-4.82,-4.89,-2.67,-0.96,-1.98,0.00
5.352,-0.29,-0.58,0.09,7.59,-4.82,-4.89,-2.67,-0.96,-1.98,0.00
5.353,-0.29,-0.58,0.09,7.59,-4.82,-4.89,-2.87,-0.99,-1.98,0.00
5.354,-0.29,-0.58,0.09,5.56,-4.84,-4.05,-2.87,-0.99,-1.98,0.00
5.362,-0.53,-0.66,0.23,5.56,-4.84,-4.05,-2.87,-0.99,-1.98,0.00
5.364,-0.53,-0.66,0.23,5.56,-4.84,-4.05,-2.95,-0.91,-1.92,0.00
5.365,-0.53,-0.66,0.23,3.17,-5.35,-2.76,-2.95,-0.91,-1.92,0.00
5.375,-0.77,-0.73,0.35,3.17,-5.35,-2.76,-2.95,-0.91,-1.92,0.00
5.376,-0.77,-0.73,0.35,3.17,-5.35,-2.76,-2.93,-0.66,-1.80,0.00
5.377,-0.77,-0.73,0.35,0.71,-5.71,-1.58,-2.93,-0.66,-1.80,0.00
5.382,-1.01,-0.79,0.49,0.71,-5.71,-1.58,-2.93,-0.66,-1.80,0.00
5.383,-1.01,-0.79,0.49,0.71,-5.71,-1.58,-2.86,-0.34,-1.61,0.00
5.384,-1.01,-0.79,0.49,-1.63,-6.02,-0.23,-2.86,-0.34,-1.61,0.00
5.395,-1.22,-0.87,0.70,-1.63,-6.02,-0.23,-2.86,-0.34,-1.61,0.00
5.396,-1.22,-0.87,0.70,-1.63,-6.02,-0.23,-2.79,-0.06,-1.42,0.00
5.396,-1.22,-0.87,0.70,-3.69,-6.54,1.86,-2.79,-0.06,-1.42,0.00
5.402,-1.45,-0.96,0.96,-3.69,-6.54,1.86,-2.79,-0.06,-1.42,0.00
5.403,-1.45,-0.96,0.96,-3.69,-6.54,1.86,-2.81,0.08,-1.29,0.00
5.403,-1.45,-0.96,0.96,-5.99,-7.16,4.48,-2.81,0.08,-1.29,0.00
5.418,-1.84,-1.08,1.38,-5.99,-7.16,4.48,-2.81,0.08,-1.29,0.00
5.419,-1.84,-1.08,1.38,-5.99,-7.16,4.48,-3.03,0.10,-1.30,0.00
5.419,-1.84,-1.08,1.38,-9.86,-8.15,8.68,-3.03,0.10,-1.30,0.00
5.424,-2.32,-1.27,1.82,-9.86,-8.15,8.68,-3.03,0.10,-1.30,0.00
5.424,-2.32,-1.27,1.82,-9.86,-8.15,8.68,-3.38,0.02,-1.42,0.00
5.425,-2.32,-1.27,1.82,-14.62,-9.66,13.16,-3.38,0.02,-1.42,0.00
5.432,-2.46,-1.38,1.91,-14.62,-9.66,13.16,-3.38,0.02,-1.42,0.00
5.432,-2.46,-1.38,1.91,-14.62,-9.66,13.16,-3.55,-0.41,-1.48,0.00
5.433,-2.46,-1.38,1.91,-15.98,-10.49,14.03,-3.55,-0.41,-1.48,0.00
5.442,-2.44,-1.23,1.74,-15.98,-10.49,14.03,-3.55,-0.41,-1.48,0.00
5.443,-2.44,-1.23,1.74,-15.98,-10.49,14.03,-3.43,-1.21,-1.38,0.00
5.444,-2.44,-1.23,1.74,-15.90,-8.77,12.39,-3.43,-1.21,-1.38,0.00
5.453,-2.33,-1.17,1.59,-15.90,-8.77,12.39,-3.43,-1.21,-1.38,0.00
5.453,-2.33,-1.17,1.59,-15.90,-8.77,12.39,-3.21,-1.59,-1.15,0.00
5.454,-2.33,-1.17,1.59,-14.95,-7.91,10.88,-3.21,-1.59,-1.15,0.00
5.462,-2.27,-1.10,1.60,-14.95,-7.91,10.88,-3.21,-1.59,-1.15,0.00
5.463,-2.27,-1.10,1.60,-14.95,-7.91,10.88,-2.99,-1.20,-0.86,0.00
5.464,-2.27,-1.10,1.60,-14.50,-7.03,11.01,-2.99,-1.20,-0.86,0.00
5.474,-2.28,-0.98,1.66,-14.50,-7.03,11.01,-2.99,-1.20,-0.86,0.00
5.475,-2.28,-0.98,1.66,-14.50,-7.03,11.01,-2.77,-0.66,-0.61,0.00
5.476,-2.28,-0.98,1.66,-14.60,-5.63,11.69,-2.77,-0.66,-0.61,0.00
5.481,-2.23,-0.80,1.67,-14.60,-5.63,11.69,-2.77,-0.66,-0.61,0.00
5.482,-2.23,-0.80,1.67,-14.60,-5.63,11.69,-2.58,-0.51,-0.43,0.00
5.483,-2.23,-0.80,1.67,-14.17,-3.77,11.89,-2.58,-0.51,-0.43,0.00
5.494,-2.07,-0.62,1.58,-14.17,-3.77,11.89,-2.58,-0.51,-0.43,0.00
5.495,-2.07,-0.62,1.58,-14.17,-3.77,11.89,-2.43,-0.72,-0.30,0.00
5.495,-2.07,-0.62,1.58,-12.62,-1.91,10.98,-2.43,-0.72,-0.30,0.00
5.504,-1.86,-0.42,1.41,-12.62,-1.91,10.98,-2.43,-0.72,-0.30,0.00
5.505,-1.86,-0.42,1.41,-12.62,-1.91,10.98,-2.29,-1.00,-0.17,0.00
5.506,-1.86,-0.42,1.41,-10.59,0.19,9.39,-2.29,-1.00,-0.17,0.00
5.518,-1.64,-0.22,1.23,-10.59,0.19,9.39,-2.29,-1.00,-0.17,0.00
5.52,-1.64,-0.22,1.23,-10.59,0.19,9.39,-2.15,-1.18,-0.01,0.00
5.521,-1.64,-0.22,1.23,-8.58,2.28,7.64,-2.15,-1.18,-0.01,0.00
5.521,-1.39,-0.02,1.03,-8.58,2.28,7.64,-2.15,-1.18,-0.01,0.00
5.522,-1.39,-0.02,1.03,-8.58,2.28,7.64,-2.00,-1.25,0.16,0.00
5.523,-1.39,-0.02,1.03,-6.17,4.32,5.60,-2.00,-1.25,0.16,0.00
5.533,-1.14,0.22,0.85,-6.17,4.32,5.60,-2.00,-1.25,0.16,0.00
5.534,-1.14,0.22,0.85,-6.17,4.32,5.60,-1.84,-1.26,0.34,0.00
5.535,-1.14,0.22,0.85,-3.68,6.72,3.84,-1.84,-1.26,0.34,0.00
5.544,-0.91,0.48,0.70,-3.68,6.72,3.84,-1.84,-1.26,0.34,0.00
5.545,-0.91,0.48,0.70,-3.68,6.72,3.84,-1.68,-1.26,0.50,0.00
5.546,-0.91,0.48,0.70,-1.47,9.32,2.41,-1.68,-1.26,0.50,0.00
5.554,-0.72,0.74,0.57,-1.47,9.32,2.41,-1.68,-1.26,0.50,0.00
5.554,-0.72,0.74,0.57,-1.47,9.32,2.41,-1.50,-1.25,0.64,0.00
5.555,-0.72,0.74,0.57,0.34,11.83,1.07,-1.50,-1.25,0.64,0.00
5.564,-0.56,0.93,0.47,0.34,11.83,1.07,-1.50,-1.25,0.64,0.00
5.567,-0.56,0.93,0.47,0.34,11.83,1.07,-1.26,-1.19,0.76,0.00
5.567,-0.56,0.93,0.47,1.90,13.77,0.11,-1.26,-1.19,0.76,0.00
5.574,-0.42,1.05,0.39,1.90,13.77,0.11,-1.26,-1.19,0.76,0.00
5.575,-0.42,1.05,0.39,1.90,13.77,0.11,-0.95,-1.06,0.89,0.00
5.575,-0.42,1.05,0.39,3.28,14.87,-0.75,-0.95,-1.06,0.89,0.00
5.582,-0.29,1.12,0.32,3.28,14.87,-0.75,-0.95,-1.06,0.89,0.00
5.583,-0.29,1.12,0.32,3.28,14.87,-0.75,-0.58,-0.87,1.02,0.00
5.584,-0.29,1.12,0.32,4.57,15.47,-1.46,-0.58,-0.87,1.02,0.00
5.594,-0.20,1.16,0.23,4.57,15.47,-1.46,-0.58,-0.87,1.02,0.00
5.595,-0.20,1.16,0.23,4.57,15.47,-1.46,-0.15,-0.64,1.15,0.00
5.595,-0.20,1.16,0.23,5.47,15.86,-2.37,-0.15,-0.64,1.15,0.00
5.62,-0.16,1.18,0.19,5.47,15.86,-2.37,-0.15,-0.64,1.15,0.00
5.622,-0.16,1.18,0.19,5.47,15.86,-2.37,0.28,-0.38,1.26,0.00
5.622,-0.16,1.18,0.19,5.88,15.93,-2.82,0.28,-0.38,1.26,0.00
5.623,-0.18,1.18,0.19,5.88,15.93,-2.82,0.28,-0.38,1.26,0.00
5.624,-0.18,1.18,0.19,5.88,15.93,-2.82,0.68,-0.09,1.34,0.00
5.625,-0.18,1.18,0.19,5.70,15.82,-2.89,0.68,-0.09,1.34,0.00
5.626,-0.26,1.15,0.19,5.70,15.82,-2.89,0.68,-0.09,1.34,0.00
5.627,-0.26,1.15,0.19,5.70,15.82,-2.89,1.01,0.15,1.38,0.00
5.628,-0.26,1.15,0.19,4.99,15.36,-2.86,1.01,0.15,1.38,0.00
5.638,-0.34,1.08,0.23,4.99,15.36,-2.86,1.01,0.15,1.38,0.00
5.639,-0.34,1.08,0.23,4.99,15.36,-2.86,1.26,0.29,1.42,0.00
5.64,-0.34,1.08,0.23,4.30,14.49,-2.55,1.26,0.29,1.42,0.00
5.647,-0.38,0.95,0.26,4.30,14.49,-2.55,1.26,0.29,1.42,0.00
5.649,-0.38,0.95,0.26,4.30,14.49,-2.55,1.47,0.35,1.48,0.00
5.65,-0.38,0.95,0.26,3.99,13.03,-2.24,1.47,0.35,1.48,0.00
5.664,-0.36,0.83,0.32,3.99,13.03,-2.24,1.47,0.35,1.48,0.00
5.665,-0.36,0.83,0.32,3.99,13.03,-2.24,1.67,0.38,1.53,0.00
5.665,-0.36,0.83,0.32,4.21,11.61,-1.69,1.67,0.38,1.53,0.00
5.666,-0.39,0.72,0.38,4.21,11.61,-1.69,1.67,0.38,1.53,0.00
5.667,-0.39,0.72,0.38,4.21,11.61,-1.69,1.88,0.40,1.56,0.00
5.668,-0.39,0.72,0.38,4.06,10.35,-1.13,1.88,0.40,1.56,0.00
5.675,-0.48,0.64,0.39,4.06,10.35,-1.13,1.88,0.40,1.56,0.00
5.676,-0.48,0.64,0.39,4.06,10.35,-1.13,2.11,0.43,1.57,0.00
5.677,-0.48,0.64,0.39,3.24,9.34,-1.04,2.11,0.43,1.57,0.00
5.683,-0.65,0.57,0.43,3.24,9.34,-1.04,2.11,0.43,1.57,0.00
5.684,-0.65,0.57,0.43,3.24,9.34,-1.04,2.35,0.51,1.62,0.00
5.684,-0.65,0.57,0.43,1.58,8.46,-0.73,2.35,0.51,1.62,0.00
5.694,-0.86,0.53,0.49,1.58,8.46,-0.73,2.35,0.51,1.62,0.00
5.695,-0.86,0.53,0.49,1.58,8.46,-0.73,2.58,0.63,1.73,0.00
5.696,-0.86,0.53,0.49,-0.34,7.74,-0.14,2.58,0.63,1.73,0.00
5.704,-1.05,0.46,0.58,-0.34,7.74,-0.14,2.58,0.63,1.73,0.00
5.705,-1.05,0.46,0.58,-0.34,7.74,-0.14,2.79,0.70,1.92,0.00
5.705,-1.05,0.46,0.58,-2.17,6.80,0.74,2.79,0.70,1.92,0.00
5.714,-1.19,0.37,0.70,-2.17,6.80,0.74,2.79,0.70,1.92,0.00
5.715,-1.19,0.37,0.70,-2.17,6.80,0.74,3.00,0.68,2.16,0.00
5.716,-1.19,0.37,0.70,-3.48,5.53,1.84,3.00,0.68,2.16,0.00
5.738,-1.24,0.26,0.83,-3.48,5.53,1.84,3.00,0.68,2.16,0.00
5.74,-1.24,0.26,0.83,-3.48,5.53,1.84,3.22,0.57,2.39,0.00
5.74,-1.24,0.26,0.83,-3.88,4.09,3.15,3.22,0.57,2.39,0.00
5.741,-1.26,0.19,1.00,-3.88,4.09,3.15,3.22,0.57,2.39,0.00
5.742,-1.26,0.19,1.00,-3.88,4.09,3.15,3.44,0.46,2.54,0.00
5.743,-1.26,0.19,1.00,-4.02,3.04,4.83,3.44,0.46,2.54,0.00
5.744,-1.42,0.19,1.21,-4.02,3.04,4.83,3.44,0.46,2.54,0.00
5.744,-1.42,0.19,1.21,-4.02,3.04,4.83,3.62,0.46,2.53,0.00
5.745,-1.42,0.19,1.21,-5.52,2.70,6.89,3.62,0.46,2.53,0.00
5.754,-1.81,0.12,1.57,-5.52,2.70,6.89,3.62,0.46,2.53,0.00
5.755,-1.81,0.12,1.57,-5.52,2.70,6.89,3.65,0.73,2.31,0.00
5.756,-1.81,0.12,1.57,-9.33,1.55,10.41,3.65,0.73,2.31,0.00
5.765,-2.37,-0.18,1.97,-9.33,1.55,10.41,3.65,0.73,2.31,0.00
5.766,-2.37,-0.18,1.97,-9.33,1.55,10.41,3.47,1.40,1.92,0.00
5.767,-2.37,-0.18,1.97,-14.66,-1.72,14.44,3.47,1.40,1.92,0.00
5.777,-2.81,-0.60,2.17,-14.66,-1.72,14.44,3.47,1.40,1.92,0.00
5.778,-2.81,-0.60,2.17,-14.66,-1.72,14.44,3.28,2.04,1.62,0.00
5.779,-2.81,-0.60,2.17,-18.94,-6.15,16.58,3.28,2.04,1.62,0.00
5.784,-2.96,-0.96,2.16,-18.94,-6.15,16.58,3.28,2.04,1.62,0.00
5.785,-2.96,-0.96,2.16,-18.94,-6.15,16.58,3.24,1.97,1.54,0.00
5.785,-2.96,-0.96,2.16,-20.29,-9.87,16.65,3.24,1.97,1.54,0.00
5.794,-2.69,-1.17,1.98,-20.29,-9.87,16.65,3.24,1.97,1.54,0.00
5.795,-2.69,-1.17,1.98,-20.29,-9.87,16.65,3.24,1.27,1.53,0.00
5.796,-2.69,-1.17,1.98,-17.64,-12.20,15.05,3.24,1.27,1.53,0.00
5.804,-2.17,-1.17,1.58,-17.64,-12.20,15.05,3.24,1.27,1.53,0.00
5.805,-2.17,-1.17,1.58,-17.64,-12.20,15.05,3.24,0.40,1.45,0.00
5.805,-2.17,-1.17,1.58,-12.51,-12.50,11.19,3.24,0.40,1.45,0.00
5.814,-1.78,-1.02,1.28,-12.51,-12.50,11.19,3.24,0.40,1.45,0.00
5.815,-1.78,-1.02,1.28,-12.51,-12.50,11.19,3.11,-0.22,1.27,0.00
5.816,-1.78,-1.02,1.28,-8.76,-11.33,8.25,3.11,-0.22,1.27,0.00
5.836,-1.49,-0.89,1.17,-8.76,-11.33,8.25,3.11,-0.22,1.27,0.00
5.837,-1.49,-0.89,1.17,-8.76,-11.33,8.25,2.88,-0.31,1.01,0.00
5.838,-1.49,-0.89,1.17,-5.90,-10.22,7.23,2.88,-0.31,1.01,0.00
5.839,-1.25,-0.83,1.07,-5.90,-10.22,7.23,2.88,-0.31,1.01,0.00
5.84,-1.25,-0.83,1.07,-5.90,-10.22,7.23,2.62,-0.20,0.72,0.00
5.84,-1.25,-0.83,1.07,-3.61,-9.83,6.28,2.62,-0.20,0.72,0.00
5.845,-0.95,-0.76,0.95,-3.61,-9.83,6.28,2.62,-0.20,0.72,0.00
5.846,-0.95,-0.76,0.95,-3.61,-9.83,6.28,2.39,-0.20,0.38,0.00
5.847,-0.95,-0.76,0.95,-0.66,-9.29,5.08,2.39,-0.20,0.38,0.00
5.855,-0.67,-0.65,0.82,-0.66,-9.29,5.08,2.39,-0.20,0.38,0.00
5.856,-0.67,-0.65,0.82,-0.66,-9.29,5.08,2.16,-0.22,-0.02,0.00
5.857,-0.67,-0.65,0.82,2.14,-8.27,3.88,2.16,-0.22,-0.02,0.00
5.872,-0.39,-0.58,0.64,2.14,-8.27,3.88,2.16,-0.22,-0.02,0.00
5.873,-0.39,-0.58,0.64,2.14,-8.27,3.88,1.97,-0.24,-0.44,0.00
5.875,-0.39,-0.58,0.64,4.89,-7.68,2.14,1.97,-0.24,-0.44,0.00
5.875,-0.20,-0.58,0.43,4.89,-7.68,2.14,1.97,-0.24,-0.44,0.00
5.876,-0.20,-0.58,0.43,4.89,-7.68,2.14,1.81,-0.23,-0.80,0.00
5.877,-0.20,-0.58,0.43,6.73,-7.64,0.05,1.81,-0.23,-0.80,0.00
5.886,-0.05,-0.60,0.24,6.73,-7.64,0.05,1.81,-0.23,-0.80,0.00
5.887,-0.05,-0.60,0.24,6.73,-7.64,0.05,1.65,-0.16,-1.12,0.00
5.888,-0.05,-0.60,0.24,8.16,-7.78,-1.73,1.65,-0.16,-1.12,0.00
5.896,0.08,-0.64,0.11,8.16,-7.78,-1.73,1.65,-0.16,-1.12,0.00
5.898,0.08,-0.64,0.11,8.16,-7.78,-1.73,1.44,-0.12,-1.34,0.00
5.9,0.08,-0.64,0.11,9.48,-8.16,-3.00,1.44,-0.12,-1.34,0.00
5.909,0.23,-0.67,-0.03,9.48,-8.16,-3.00,1.44,-0.12,-1.34,0.00
5.911,0.23,-0.67,-0.03,9.48,-8.16,-3.00,1.21,-0.24,-1.43,0.00
5.912,0.23,-0.67,-0.03,10.96,-8.33,-4.43,1.21,-0.24,-1.43,0.00
5.917,0.38,-0.65,-0.20,10.96,-8.33,-4.43,1.21,-0.24,-1.43,0.00
5.917,0.38,-0.65,-0.20,10.96,-8.33,-4.43,0.99,-0.50,-1.45,0.00
5.918,0.38,-0.65,-0.20,12.46,-8.11,-6.10,0.99,-0.50,-1.45,0.00
5.928,0.51,-0.60,-0.36,12.46,-8.11,-6.10,0.99,-0.50,-1.45,0.00
5.929,0.51,-0.60,-0.36,12.46,-8.11,-6.10,0.77,-0.74,-1.42,0.00
5.93,0.51,-0.60,-0.36,13.70,-7.47,-7.74,0.77,-0.74,-1.42,0.00
5.937,0.58,-0.52,-0.49,13.70,-7.47,-7.74,0.77,-0.74,-1.42,0.00
5.938,0.58,-0.52,-0.49,13.70,-7.47,-7.74,0.56,-0.84,-1.40,0.00
5.939,0.58,-0.52,-0.49,14.41,-6.63,-9.06,0.56,-0.84,-1.40,0.00
5.96,0.59,-0.44,-0.53,14.41,-6.63,-9.06,0.56,-0.84,-1.40,0.00
5.961,0.59,-0.44,-0.53,14.41,-6.63,-9.06,0.29,-0.84,-1.41,0.00
5.962,0.59,-0.44,-0.53,14.50,-5.72,-9.55,0.29,-0.84,-1.41,0.00
5.962,0.56,-0.38,-0.49,14.50,-5.72,-9.55,0.29,-0.84,-1.41,0.00
5.964,0.56,-0.38,-0.49,14.50,-5.72,-9.55,-0.07,-0.79,-1.47,0.00
5.964,0.56,-0.38,-0.49,14.13,-5.04,-9.22,-0.07,-0.79,-1.47,0.00
5.965,0.52,-0.36,-0.43,14.13,-5.04,-9.22,-0.07,-0.79,-1.47,0.00
5.966,0.52,-0.36,-0.43,14.13,-5.04,-9.22,-0.52,-0.77,-1.57,0.00
5.967,0.52,-0.36,-0.43,13.79,-4.70,-8.70,-0.52,-0.77,-1.57,0.00
5.988,0.46,-0.35,-0.36,13.79,-4.70,-8.70,-0.52,-0.77,-1.57,0.00
5.99,0.46,-0.35,-0.36,13.79,-4.70,-8.70,-1.01,-0.81,-1.68,0.00
5.991,0.46,-0.35,-0.36,13.11,-4.34,-8.03,-1.01,-0.81,-1.68,0.00
5.992,0.39,-0.37,-0.28,13.11,-4.34,-8.03,-1.01,-0.81,-1.68,0.00
5.993,0.39,-0.37,-0.28,13.11,-4.34,-8.03,-1.47,-0.93,-1.78,0.00
5.994,0.39,-0.37,-0.28,12.44,-4.37,-7.39,-1.47,-0.93,-1.78,0.00
5.999,0.32,-0.38,-0.24,12.44,-4.37,-7.39,-1.47,-0.93,-1.78,0.00
6.0,0.32,-0.38,-0.24,12.44,-4.37,-7.39,-1.88,-1.01,-1.85,0.00
6.001,0.32,-0.38,-0.24,11.69,-4.15,-7.10,-1.88,-1.01,-1.85,0.00
6.01,0.22,-0.43,-0.18,11.69,-4.15,-7.10,-1.88,-1.01,-1.85,0.00
6.011,0.22,-0.43,-0.18,11.69,-4.15,-7.10,-2.27,-1.01,-1.91,0.00
6.012,0.22,-0.43,-0.18,10.68,-4.44,-6.57,-2.27,-1.01,-1.91,0.00
6.018,-0.01,-0.50,-0.04,10.68,-4.44,-6.57,-2.27,-1.01,-1.91,0.00
6.019,-0.01,-0.50,-0.04,10.68,-4.44,-6.57,-2.61,-0.89,-1.96,0.00
6.02,-0.01,-0.50,-0.04,8.36,-4.74,-5.28,-2.61,-0.89,-1.96,0.00
6.03,-0.27,-0.55,0.11,8.36,-4.74,-5.28,-2.61,-0.89,-1.96,0.00
6.031,-0.27,-0.55,0.11,8.36,-4.74,-5.28,-2.84,-0.79,-1.98,0.00
6.032,-0.27,-0.55,0.11,5.78,-4.97,-3.90,-2.84,-0.79,-1.98,0.00
6.039,-0.56,-0.64,0.25,5.78,-4.97,-3.90,-2.84,-0.79,-1.98,0.00
6.04,-0.56,-0.64,0.25,5.78,-4.97,-3.90,-2.96,-0.71,-1.92,0.00
6.041,-0.56,-0.64,0.25,2.94,-5.51,-2.59,-2.96,-0.71,-1.92,0.00
6.049,-0.79,-0.73,0.38,2.94,-5.51,-2.59,-2.96,-0.71,-1.92,0.00
6.05,-0.79,-0.73,0.38,2.94,-5.51,-2.59,-2.97,-0.59,-1.78,0.00
6.051,-0.79,-0.73,0.38,0.63,-6.15,-1.36,-2.97,-0.59,-1.78,0.00
6.072,-0.98,-0.79,0.48,0.63,-6.15,-1.36,-2.97,-0.59,-1.78,0.00
6.074,-0.98,-0.79,0.48,0.63,-6.15,-1.36,-2.91,-0.44,-1.56,0.00
6.074,-0.98,-0.79,0.48,-1.27,-6.43,-0.37,-2.91,-0.44,-1.56,0.00
6.075,-1.22,-0.80,0.60,-1.27,-6.43,-0.37,-2.91,-0.44,-1.56,0.00
6.076,-1.22,-0.80,0.60,-1.27,-6.43,-0.37,-2.82,-0.30,-1.29,0.00
6.077,-1.22,-0.80,0.60,-3.64,-6.27,0.83,-2.82,-0.30,-1.29,0.00
6.077,-1.42,-0.84,0.74,-3.64,-6.27,0.83,-2.82,-0.30,-1.29,0.00
6.079,-1.42,-0.84,0.74,-3.64,-6.27,0.83,-2.75,-0.15,-1.03,0.00
6.079,-1.42,-0.84,0.74,-5.68,-6.43,2.31,-2.75,-0.15,-1.03,0.00
6.089,-1.69,-0.91,0.99,-5.68,-6.43,2.31,-2.75,-0.15,-1.03,0.00
6.09,-1.69,-0.91,0.99,-5.68,-6.43,2.31,-2.82,-0.03,-0.84,0.00
6.091,-1.69,-0.91,0.99,-8.34,-6.90,4.81,-2.82,-0.03,-0.84,0.00
6.099,-2.05,-1.02,1.46,-8.34,-6.90,4.81,-2.82,-0.03,-0.84,0.00
6.1,-2.05,-1.02,1.46,-8.34,-6.90,4.81,-3.13,0.04,-0.82,0.00
6.101,-2.05,-1.02,1.46,-11.91,-7.76,9.47,-3.13,0.04,-0.82,0.00
6.11,-2.36,-1.11,1.83,-11.91,-7.76,9.47,-3.13,0.04,-0.82,0.00
6.111,-2.36,-1.11,1.83,-11.91,-7.76,9.47,-3.51,-0.12,-0.92,0.00
6.112,-2.36,-1.11,1.83,-14.95,-8.42,13.15,-3.51,-0.12,-0.92,0.00
6.118,-2.41,-1.04,1.79,-14.95,-8.42,13.15,-3.51,-0.12,-0.92,0.00
6.119,-2.41,-1.04,1.79,-14.95,-8.42,13.15,-3.65,-0.84,-0.97,0.00
6.12,-2.41,-1.04,1.79,-15.53,-7.43,12.80,-3.65,-0.84,-0.97,0.00
6.13,-2.28,-0.90,1.57,-15.53,-7.43,12.80,-3.65,-0.84,-0.97,0.00
6.132,-2.28,-0.90,1.57,-15.53,-7.43,12.80,-3.53,-1.61,-0.86,0.00
6.132,-2.28,-0.90,1.57,-14.31,-5.80,10.54,-3.53,-1.61,-0.86,0.00
6.138,-2.21,-0.81,1.46,-14.31,-5.80,10.54,-3.53,-1.61,-0.86,0.00
6.139,-2.21,-0.81,1.46,-14.31,-5.80,10.54,-3.36,-1.66,-0.62,0.00
6.14,-2.21,-0.81,1.46,-13.76,-4.77,9.52,-3.36,-1.66,-0.62,0.00
6.148,-2.23,-0.77,1.59,-13.76,-4.77,9.52,-3.36,-1.66,-0.62,0.00
6.149,-2.23,-0.77,1.59,-13.76,-4.77,9.52,-3.16,-0.98,-0.36,0.00
6.15,-2.23,-0.77,1.59,-14.00,-4.18,10.74,-3.16,-0.98,-0.36,0.00
6.173,-2.27,-0.70,1.74,-14.00,-4.18,10.74,-3.16,-0.98,-0.36,0.00
6.174,-2.27,-0.70,1.74,-14.00,-4.18,10.74,-2.94,-0.34,-0.14,0.00
6.175,-2.27,-0.70,1.74,-14.43,-3.38,12.37,-2.94,-0.34,-0.14,0.00
6.176,-2.24,-0.59,1.74,-14.43,-3.38,12.37,-2.94,-0.34,-0.14,0.00
6.177,-2.24,-0.59,1.74,-14.43,-3.38,12.37,-2.73,-0.27,-0.01,0.00
6.178,-2.24,-0.59,1.74,-14.08,-2.14,12.39,-2.73,-0.27,-0.01,0.00
6.178,-2.03,-0.48,1.56,-14.08,-2.14,12.39,-2.73,-0.27,-0.01,0.00
6.179,-2.03,-0.48,1.56,-14.08,-2.14,12.39,-2.52,-0.54,0.12,0.00
6.18,-2.03,-0.48,1.56,-12.14,-0.97,10.73,-2.52,-0.54,0.12,0.00
6.189,-1.79,-0.34,1.40,-12.14,-0.97,10.73,-2.52,-0.54,0.12,0.00
6.19,-1.79,-0.34,1.40,-12.14,-0.97,10.73,-2.32,-0.74,0.28,0.00
6.191,-1.79,-0.34,1.40,-9.72,0.47,9.13,-2.32,-0.74,0.28,0.00
6.199,-1.53,-0.18,1.22,-9.72,0.47,9.13,-2.32,-0.74,0.28,0.00
6.201,-1.53,-0.18,1.22,-9.72,0.47,9.13,-2.13,-0.80,0.47,0.00
6.202,-1.53,-0.18,1.22,-7.20,2.17,7.38,-2.13,-0.80,0.47,0.00
6.21,-1.22,0.04,1.02,-7.20,2.17,7.38,-2.13,-0.80,0.47,0.00
6.212,-1.22,0.04,1.02,-7.20,2.17,7.38,-1.94,-0.84,0.67,0.00
6.213,-1.22,0.04,1.02,-4.20,4.29,5.49,-1.94,-0.84,0.67,0.00
6.22,-0.91,0.29,0.84,-4.20,4.29,5.49,-1.94,-0.84,0.67,0.00
6.221,-0.91,0.29,0.84,-4.20,4.29,5.49,-1.76,-0.92,0.85,0.00
6.221,-0.91,0.29,0.84,-1.14,6.83,3.71,-1.76,-0.92,0.85,0.00
6.231,-0.66,0.55,0.71,-1.14,6.83,3.71,-1.76,-0.92,0.85,0.00
6.232,-0.66,0.55,0.71,-1.14,6.83,3.71,-1.60,-1.01,0.96,0.00
6.233,-0.66,0.55,0.71,1.23,9.36,2.38,-1.60,-1.01,0.96,0.00
6.24,-0.47,0.77,0.57,1.23,9.36,2.38,-1.60,-1.01,0.96,0.00
6.241,-0.47,0.77,0.57,1.23,9.36,2.38,-1.43,-1.04,1.01,0.00
6.242,-0.47,0.77,0.57,3.14,11.46,0.98,-1.43,-1.04,1.01,0.00
6.25,-0.29,0.92,0.48,3.14,11.46,0.98,-1.43,-1.04,1.01,0.00
6.251,-0.29,0.92,0.48,3.14,11.46,0.98,-1.22,-1.01,1.05,0.00
6.252,-0.29,0.92,0.48,4.89,12.92,0.15,-1.22,-1.01,1.05,0.00
6.274,-0.14,1.04,0.41,4.89,12.92,0.15,-1.22,-1.01,1.05,0.00
6.276,-0.14,1.04,0.41,4.89,12.92,0.15,-0.95,-0.90,1.09,0.00
6.276,-0.14,1.04,0.41,6.30,14.05,-0.63,-0.95,-0.90,1.09,0.00
6.277,-0.03,1.12,0.36,6.30,14.05,-0.63,-0.95,-0.90,1.09,0.00
6.278,-0.03,1.12,0.36,6.30,14.05,-0.63,-0.61,-0.76,1.12,0.00
6.278,-0.03,1.12,0.36,7.40,14.79,-1.12,-0.61,-0.76,1.12,0.00
6.279,0.04,1.14,0.29,7.40,14.79,-1.12,-0.61,-0.76,1.12,0.00
6.28,0.04,1.14,0.29,7.40,14.79,-1.12,-0.21,-0.56,1.15,0.00
6.281,0.04,1.14,0.29,8.15,14.95,-1.84,-0.21,-0.56,1.15,0.00
6.29,0.06,1.12,0.22,8.15,14.95,-1.84,-0.21,-0.56,1.15,0.00
6.291,0.06,1.12,0.22,8.15,14.95,-1.84,0.20,-0.33,1.18,0.00
6.292,0.06,1.12,0.22,8.33,14.66,-2.57,0.20,-0.33,1.18,0.00
6.301,0.03,1.10,0.19,8.33,14.66,-2.57,0.20,-0.33,1.18,0.00
6.302,0.03,1.10,0.19,8.33,14.66,-2.57,0.58,-0.08,1.16,0.00
6.303,0.03,1.10,0.19,8.14,14.26,-2.88,0.58,-0.08,1.16,0.00
6.311,-0.05,1.05,0.17,8.14,14.26,-2.88,0.58,-0.08,1.16,0.00
6.313,-0.05,1.05,0.17,8.14,14.26,-2.88,0.90,0.11,1.11,0.00
6.314,-0.05,1.05,0.17,7.41,13.66,-3.14,0.90,0.11,1.11,0.00
6.32,-0.12,1.01,0.20,7.41,13.66,-3.14,0.90,0.11,1.11,0.00
6.321,-0.12,1.01,0.20,7.41,13.66,-3.14,1.16,0.17,1.04,0.00
6.321,-0.12,1.01,0.20,6.71,13.11,-2.82,1.16,0.17,1.04,0.00
6.332,-0.16,0.95,0.22,6.71,13.11,-2.82,1.16,0.17,1.04,0.00
6.333,-0.16,0.95,0.22,6.71,13.11,-2.82,1.41,0.13,1.00,0.00
6.334,-0.16,0.95,0.22,6.34,12.40,-2.66,1.41,0.13,1.00,0.00
6.34,-0.21,0.85,0.25,6.34,12.40,-2.66,1.41,0.13,1.00,0.00
6.341,-0.21,0.85,0.25,6.34,12.40,-2.66,1.68,0.07,0.99,0.00
6.341,-0.21,0.85,0.25,5.96,11.31,-2.48,1.68,0.07,0.99,0.00
6.35,-0.28,0.78,0.27,5.96,11.31,-2.48,1.68,0.07,0.99,0.00
6.351,-0.28,0.78,0.27,5.96,11.31,-2.48,1.96,0.08,1.02,0.00
6.351,-0.28,0.78,0.27,5.25,10.38,-2.29,1.96,0.08,1.02,0.00
6.361,-0.40,0.71,0.35,5.25,10.38,-2.29,1.96,0.08,1.02,0.00
6.362,-0.40,0.71,0.35,5.25,10.38,-2.29,2.23,0.17,1.07,0.00
6.362,-0.40,0.71,0.35,4.08,9.54,-1.54,2.23,0.17,1.07,0.00
6.37,-0.60,0.64,0.46,4.08,9.54,-1.54,2.23,0.17,1.07,0.00
6.371,-0.60,0.64,0.46,4.08,9.54,-1.54,2.51,0.29,1.17,0.00
6.371,-0.60,0.64,0.46,2.20,8.61,-0.49,2.51,0.29,1.17,0.00
6.387,-0.77,0.56,0.60,2.20,8.61,-0.49,2.51,0.29,1.17,0.00
6.388,-0.77,0.56,0.60,2.20,8.61,-0.49,2.79,0.39,1.33,0.00
6.388,-0.77,0.56,0.60,0.56,7.60,0.86,2.79,0.39,1.33,0.00
6.413,-0.98,0.50,0.74,0.56,7.60,0.86,2.79,0.39,1.33,0.00
6.414,-0.98,0.50,0.74,0.56,7.60,0.86,3.06,0.45,1.52,0.00
6.414,-0.98,0.50,0.74,-1.38,6.67,2.17,3.06,0.45,1.52,0.00
6.415,-1.15,0.40,0.90,-1.38,6.67,2.17,3.06,0.45,1.52,0.00
6.416,-1.15,0.40,0.90,-1.38,6.67,2.17,3.32,0.40,1.71,0.00
6.417,-1.15,0.40,0.90,-3.04,5.44,3.71,3.32,0.40,1.71,0.00
6.417,-1.28,0.33,1.04,-3.04,5.44,3.71,3.32,0.40,1.71,0.00
6.418,-1.28,0.33,1.04,-3.04,5.44,3.71,3.59,0.27,1.88,0.00
6.418,-1.28,0.33,1.04,-4.24,4.42,5.03,3.59,0.27,1.88,0.00
6.419,-1.47,0.29,1.24,-4.24,4.42,5.03,3.59,0.27,1.88,0.00
6.42,-1.47,0.29,1.24,-4.24,4.42,5.03,3.80,0.26,1.91,0.00
6.42,-1.47,0.29,1.24,-6.06,3.59,7.02,3.80,0.26,1.91,0.00
6.431,-1.86,0.17,1.58,-6.06,3.59,7.02,3.80,0.26,1.91,0.00
6.432,-1.86,0.17,1.58,-6.06,3.59,7.02,3.84,0.54,1.73,0.00
6.432,-1.86,0.17,1.58,-9.91,2.08,10.33,3.84,0.54,1.73,0.00
6.443,-2.43,-0.10,1.97,-9.91,2.08,10.33,3.84,0.54,1.73,0.00
6.445,-2.43,-0.10,1.97,-9.91,2.08,10.33,3.72,1.20,1.39,0.00
6.445,-2.43,-0.10,1.97,-15.40,-0.84,14.26,3.72,1.20,1.39,0.00
6.45,-2.88,-0.48,2.25,-15.40,-0.84,14.26,3.72,1.20,1.39,0.00
6.451,-2.88,-0.48,2.25,-15.40,-0.84,14.26,3.58,1.82,1.13,0.00
6.452,-2.88,-0.48,2.25,-19.70,-4.89,17.19,3.58,1.82,1.13,0.00
6.462,-3.12,-0.87,2.29,-19.70,-4.89,17.19,3.58,1.82,1.13,0.00
6.463,-3.12,-0.87,2.29,-19.70,-4.89,17.19,3.56,1.80,1.07,0.00
6.464,-3.12,-0.87,2.29,-21.94,-8.94,17.71,3.56,1.80,1.07,0.00
6.472,-2.96,-1.09,2.06,-21.94,-8.94,17.71,3.56,1.80,1.07,0.00
6.472,-2.96,-1.09,2.06,-21.94,-8.94,17.71,3.57,1.08,1.05,0.00
6.473,-2.96,-1.09,2.06,-20.37,-11.39,15.57,3.57,1.08,1.05,0.00
6.481,-2.44,-1.06,1.56,-20.37,-11.39,15.57,3.57,1.08,1.05,0.00
6.482,-2.44,-1.06,1.56,-20.37,-11.39,15.57,3.54,0.06,1.01,0.00
6.482,-2.44,-1.06,1.56,-15.26,-11.31,10.72,3.54,0.06,1.01,0.00
6.504,-1.92,-0.98,1.20,-15.26,-11.31,10.72,3.54,0.06,1.01,0.00
6.505,-1.92,-0.98,1.20,-15.26,-11.31,10.72,3.40,-0.59,0.98,0.00
6.505,-1.92,-0.98,1.20,-10.22,-10.78,7.19,3.40,-0.59,0.98,0.00
6.506,-1.59,-0.88,1.06,-10.22,-10.78,7.19,3.40,-0.59,0.98,0.00
6.507,-1.59,-0.88,1.06,-10.22,-10.78,7.19,3.16,-0.55,0.83,0.00
6.507,-1.59,-0.88,1.06,-7.04,-9.99,5.76,3.16,-0.55,0.83,0.00
6.512,-1.37,-0.80,0.99,-7.04,-9.99,5.76,3.16,-0.55,0.83,0.00
6.512,-1.37,-0.80,0.99,-7.04,-9.99,5.76,2.89,-0.26,0.61,0.00
6.513,-1.37,-0.80,0.99,-4.93,-9.42,5.10,2.89,-0.26,0.61,0.00
6.522,-1.09,-0.71,0.92,-4.93,-9.42,5.10,2.89,-0.26,0.61,0.00
6.522,-1.09,-0.71,0.92,-4.93,-9.42,5.10,2.62,-0.14,0.30,0.00
6.523,-1.09,-0.71,0.92,-2.20,-8.67,4.45,2.62,-0.14,0.30,0.00
6.532,-0.80,-0.62,0.83,-2.20,-8.67,4.45,2.62,-0.14,0.30,0.00
6.533,-0.80,-0.62,0.83,-2.20,-8.67,4.45,2.37,-0.15,-0.07,0.00
6.534,-0.80,-0.62,0.83,0.64,-7.93,3.58,2.37,-0.15,-0.07,0.00
6.544,-0.54,-0.57,0.62,0.64,-7.93,3.58,2.37,-0.15,-0.07,0.00
6.545,-0.54,-0.57,0.62,0.64,-7.93,3.58,2.16,-0.25,-0.46,0.00
6.546,-0.54,-0.57,0.62,3.24,-7.45,1.63,2.16,-0.25,-0.46,0.00
6.551,-0.31,-0.56,0.37,3.24,-7.45,1.63,2.16,-0.25,-0.46,0.00
6.552,-0.31,-0.56,0.37,3.24,-7.45,1.63,1.97,-0.31,-0.80,0.00
6.552,-0.31,-0.56,0.37,5.50,-7.33,-0.87,1.97,-0.31,-0.80,0.00
6.562,-0.13,-0.55,0.16,5.50,-7.33,-0.87,1.97,-0.31,-0.80,0.00
