time,gFx,gFy,gFz,ax,ay,az,wx,wy,wz,P
0.004,-0.23,0.74,0.37,-0.92,0.30,-1.79,-0.34,-0.14,0.19,0.00
0.005,-0.23,0.74,0.37,-0.92,0.30,-1.79,-0.36,0.13,0.20,0.00
0.006,-0.23,0.74,0.37,0.77,-0.08,-2.21,-0.36,0.13,0.20,0.00
0.007,-0.18,0.73,0.45,0.77,-0.08,-2.21,-0.36,0.13,0.20,0.00
0.007,-0.18,0.73,0.45,0.77,-0.08,-2.21,-0.38,0.22,0.13,0.00
0.008,-0.18,0.73,0.45,1.26,-0.11,-1.39,-0.38,0.22,0.13,0.00
0.009,-0.22,0.74,0.40,1.26,-0.11,-1.39,-0.38,0.22,0.13,0.00
0.01,-0.22,0.74,0.40,1.26,-0.11,-1.39,-0.40,0.19,0.01,0.00
0.01,-0.22,0.74,0.40,0.88,0.02,-1.93,-0.40,0.19,0.01,0.00
0.026,-0.31,0.75,0.35,0.88,0.02,-1.93,-0.40,0.19,0.01,0.00
0.027,-0.31,0.75,0.35,0.88,0.02,-1.93,-0.39,0.12,-0.08,0.00
0.028,-0.31,0.75,0.35,0.04,0.16,-2.43,-0.39,0.12,-0.08,0.00
0.03,-0.40,0.77,0.33,0.04,0.16,-2.43,-0.39,0.12,-0.08,0.00
0.031,-0.40,0.77,0.33,0.04,0.16,-2.43,-0.41,0.19,-0.15,0.00
0.032,-0.40,0.77,0.33,-0.77,0.30,-2.61,-0.41,0.19,-0.15,0.00
0.04,-0.43,0.76,0.34,-0.77,0.30,-2.61,-0.41,0.19,-0.15,0.00
0.041,-0.43,0.76,0.34,-0.77,0.30,-2.61,-0.44,0.36,-0.17,0.00
0.042,-0.43,0.76,0.34,-1.13,0.27,-2.56,-0.44,0.36,-0.17,0.00
0.055,-0.43,0.75,0.36,-1.13,0.27,-2.56,-0.44,0.36,-0.17,0.00
0.057,-0.43,0.75,0.36,-1.13,0.27,-2.56,-0.48,0.49,-0.16,0.00
0.057,-0.43,0.75,0.36,-1.05,0.23,-2.35,-0.48,0.49,-0.16,0.00
0.06,-0.39,0.74,0.39,-1.05,0.23,-2.35,-0.48,0.49,-0.16,0.00
0.061,-0.39,0.74,0.39,-1.05,0.23,-2.35,-0.53,0.54,-0.15,0.00
0.061,-0.39,0.74,0.39,-0.61,0.11,-2.14,-0.53,0.54,-0.15,0.00
0.07,-0.37,0.72,0.42,-0.61,0.11,-2.14,-0.53,0.54,-0.15,0.00
0.071,-0.37,0.72,0.42,-0.61,0.11,-2.14,-0.59,0.53,-0.16,0.00
0.072,-0.37,0.72,0.42,-0.38,0.01,-1.81,-0.59,0.53,-0.16,0.00
0.08,-0.39,0.70,0.46,-0.38,0.01,-1.81,-0.59,0.53,-0.16,0.00
0.081,-0.39,0.70,0.46,-0.38,0.01,-1.81,-0.65,0.48,-0.19,0.00
0.081,-0.39,0.70,0.46,-0.52,-0.11,-1.54,-0.65,0.48,-0.19,0.00
0.098,-0.42,0.69,0.48,-0.52,-0.11,-1.54,-0.65,0.48,-0.19,0.00
0.1,-0.42,0.69,0.48,-0.52,-0.11,-1.54,-0.68,0.44,-0.21,0.00
0.101,-0.42,0.69,0.48,-0.77,-0.21,-1.37,-0.68,0.44,-0.21,0.00
0.102,-0.43,0.68,0.44,-0.77,-0.21,-1.37,-0.68,0.44,-0.21,0.00
0.103,-0.43,0.68,0.44,-0.77,-0.21,-1.37,-0.71,0.39,-0.19,0.00
0.104,-0.43,0.68,0.44,-0.88,-0.23,-1.73,-0.71,0.39,-0.19,0.00
0.11,-0.43,0.68,0.41,-0.88,-0.23,-1.73,-0.71,0.39,-0.19,0.00
0.111,-0.43,0.68,0.41,-0.88,-0.23,-1.73,-0.74,0.34,-0.17,0.00
0.113,-0.43,0.68,0.41,-0.84,-0.19,-2.08,-0.74,0.34,-0.17,0.00
0.126,-0.42,0.67,0.39,-0.84,-0.19,-2.08,-0.74,0.34,-0.17,0.00
0.127,-0.42,0.67,0.39,-0.84,-0.19,-2.08,-0.77,0.29,-0.17,0.00
0.128,-0.42,0.67,0.39,-0.63,-0.25,-2.31,-0.77,0.29,-0.17,0.00
0.13,-0.39,0.66,0.38,-0.63,-0.25,-2.31,-0.77,0.29,-0.17,0.00
0.132,-0.39,0.66,0.38,-0.63,-0.25,-2.31,-0.79,0.30,-0.18,0.00
0.133,-0.39,0.66,0.38,-0.32,-0.26,-2.50,-0.79,0.30,-0.18,0.00
0.141,-0.39,0.65,0.37,-0.32,-0.26,-2.50,-0.79,0.30,-0.18,0.00
0.142,-0.39,0.65,0.37,-0.32,-0.26,-2.50,-0.80,0.37,-0.20,0.00
0.143,-0.39,0.65,0.37,-0.27,-0.31,-2.58,-0.80,0.37,-0.20,0.00
0.153,-0.37,0.64,0.38,-0.27,-0.31,-2.58,-0.80,0.37,-0.20,0.00
0.154,-0.37,0.64,0.38,-0.27,-0.31,-2.58,-0.82,0.45,-0.22,0.00
0.155,-0.37,0.64,0.38,-0.10,-0.37,-2.51,-0.82,0.45,-0.22,0.00
0.16,-0.40,0.64,0.40,-0.10,-0.37,-2.51,-0.82,0.45,-0.22,0.00
0.161,-0.40,0.64,0.40,-0.10,-0.37,-2.51,-0.83,0.53,-0.24,0.00
0.162,-0.40,0.64,0.40,-0.35,-0.34,-2.38,-0.83,0.53,-0.24,0.00
0.17,-0.43,0.64,0.43,-0.35,-0.34,-2.38,-0.83,0.53,-0.24,0.00
0.172,-0.43,0.64,0.43,-0.35,-0.34,-2.38,-0.83,0.59,-0.26,0.00
0.172,-0.43,0.64,0.43,-0.55,-0.27,-2.18,-0.83,0.59,-0.26,0.00
0.181,-0.47,0.63,0.44,-0.55,-0.27,-2.18,-0.83,0.59,-0.26,0.00
0.182,-0.47,0.63,0.44,-0.55,-0.27,-2.18,-0.83,0.62,-0.26,0.00
0.183,-0.47,0.63,0.44,-0.86,-0.31,-2.05,-0.83,0.62,-0.26,0.00
0.197,-0.47,0.62,0.43,-0.86,-0.31,-2.05,-0.83,0.62,-0.26,0.00
0.198,-0.47,0.62,0.43,-0.86,-0.31,-2.05,-0.82,0.61,-0.26,0.00
0.2,-0.47,0.62,0.43,-0.87,-0.35,-2.20,-0.82,0.61,-0.26,0.00
0.201,-0.47,0.61,0.40,-0.87,-0.35,-2.20,-0.82,0.61,-0.26,0.00
0.218,-0.47,0.61,0.40,-0.87,-0.35,-2.20,-0.83,0.59,-0.27,0.00
0.219,-0.47,0.61,0.40,-0.77,-0.39,-2.51,-0.83,0.59,-0.27,0.00
0.22,-0.46,0.60,0.38,-0.77,-0.39,-2.51,-0.83,0.59,-0.27,0.00
0.221,-0.46,0.60,0.38,-0.77,-0.39,-2.51,-0.84,0.57,-0.32,0.00
0.221,-0.46,0.60,0.38,-0.64,-0.36,-2.79,-0.84,0.57,-0.32,0.00
0.222,-0.47,0.60,0.36,-0.64,-0.36,-2.79,-0.84,0.57,-0.32,0.00
0.223,-0.47,0.60,0.36,-0.64,-0.36,-2.79,-0.83,0.60,-0.40,0.00
0.223,-0.47,0.60,0.36,-0.69,-0.33,-3.01,-0.83,0.60,-0.40,0.00
0.231,-0.48,0.59,0.33,-0.69,-0.33,-3.01,-0.83,0.60,-0.40,0.00
0.233,-0.48,0.59,0.33,-0.69,-0.33,-3.01,-0.81,0.68,-0.47,0.00
0.234,-0.48,0.59,0.33,-0.67,-0.32,-3.29,-0.81,0.68,-0.47,0.00
0.246,-0.47,0.58,0.31,-0.67,-0.32,-3.29,-0.81,0.68,-0.47,0.00
0.247,-0.47,0.58,0.31,-0.67,-0.32,-3.29,-0.80,0.80,-0.54,0.00
0.248,-0.47,0.58,0.31,-0.54,-0.33,-3.54,-0.80,0.80,-0.54,0.00
0.253,-0.47,0.57,0.27,-0.54,-0.33,-3.54,-0.80,0.80,-0.54,0.00
0.254,-0.47,0.57,0.27,-0.54,-0.33,-3.54,-0.79,0.91,-0.62,0.00
0.255,-0.47,0.57,0.27,-0.43,-0.37,-3.89,-0.79,0.91,-0.62,0.00
0.261,-0.47,0.55,0.22,-0.43,-0.37,-3.89,-0.79,0.91,-0.62,0.00
0.262,-0.47,0.55,0.22,-0.43,-0.37,-3.89,-0.78,1.01,-0.71,0.00
0.263,-0.47,0.55,0.22,-0.28,-0.52,-4.36,-0.78,1.01,-0.71,0.00
0.272,-0.49,0.51,0.19,-0.28,-0.52,-4.36,-0.78,1.01,-0.71,0.00
0.273,-0.49,0.51,0.19,-0.28,-0.52,-4.36,-0.77,1.15,-0.84,0.00
0.274,-0.49,0.51,0.19,-0.37,-0.81,-4.70,-0.77,1.15,-0.84,0.00
0.281,-0.54,0.46,0.15,-0.37,-0.81,-4.70,-0.77,1.15,-0.84,0.00
0.282,-0.54,0.46,0.15,-0.37,-0.81,-4.70,-0.74,1.36,-0.99,0.00
0.283,-0.54,0.46,0.15,-0.75,-1.18,-5.04,-0.74,1.36,-0.99,0.00
0.298,-0.60,0.41,0.11,-0.75,-1.18,-5.04,-0.74,1.36,-0.99,0.00
0.3,-0.60,0.41,0.11,-0.75,-1.18,-5.04,-0.70,1.65,-1.14,0.00
0.3,-0.60,0.41,0.11,-1.13,-1.54,-5.41,-0.70,1.65,-1.14,0.00
0.301,-0.64,0.37,0.08,-1.13,-1.54,-5.41,-0.70,1.65,-1.14,0.00
0.302,-0.64,0.37,0.08,-1.13,-1.54,-5.41,-0.65,1.95,-1.27,0.00
0.304,-0.64,0.37,0.08,-1.29,-1.88,-5.67,-0.65,1.95,-1.27,0.00
0.312,-0.63,0.32,0.06,-1.29,-1.88,-5.67,-0.65,1.95,-1.27,0.00
0.313,-0.63,0.32,0.06,-1.29,-1.88,-5.67,-0.59,2.21,-1.39,0.00
0.313,-0.63,0.32,0.06,-1.03,-2.24,-5.79,-0.59,2.21,-1.39,0.00
0.322,-0.61,0.28,0.03,-1.03,-2.24,-5.79,-0.59,2.21,-1.39,0.00
0.324,-0.61,0.28,0.03,-1.03,-2.24,-5.79,-0.52,2.43,-1.52,0.00
0.325,-0.61,0.28,0.03,-0.59,-2.53,-5.95,-0.52,2.43,-1.52,0.00
0.332,-0.61,0.24,-0.03,-0.59,-2.53,-5.95,-0.52,2.43,-1.52,0.00
0.333,-0.61,0.24,-0.03,-0.59,-2.53,-5.95,-0.44,2.69,-1.68,0.00
0.334,-0.61,0.24,-0.03,-0.32,-2.77,-6.41,-0.44,2.69,-1.68,0.00
0.342,-0.64,0.21,-0.02,-0.32,-2.77,-6.41,-0.44,2.69,-1.68,0.00
0.343,-0.64,0.21,-0.02,-0.32,-2.77,-6.41,-0.40,2.99,-1.86,0.00
0.344,-0.64,0.21,-0.02,-0.35,-2.98,-6.16,-0.40,2.99,-1.86,0.00
0.353,-0.71,0.17,0.03,-0.35,-2.98,-6.16,-0.40,2.99,-1.86,0.00
0.354,-0.71,0.17,0.03,-0.35,-2.98,-6.16,-0.40,3.28,-2.01,0.00
0.355,-0.71,0.17,0.03,-0.67,-3.17,-5.45,-0.40,3.28,-2.01,0.00
0.362,-0.77,0.13,0.08,-0.67,-3.17,-5.45,-0.40,3.28,-2.01,0.00
0.363,-0.77,0.13,0.08,-0.67,-3.17,-5.45,-0.41,3.49,-2.12,0.00
0.364,-0.77,0.13,0.08,-0.98,-3.44,-4.78,-0.41,3.49,-2.12,0.00
0.373,-0.81,0.07,0.13,-0.98,-3.44,-4.78,-0.41,3.49,-2.12,0.00
0.374,-0.81,0.07,0.13,-0.98,-3.44,-4.78,-0.41,3.58,-2.23,0.00
0.375,-0.81,0.07,0.13,-1.11,-3.87,-4.08,-0.41,3.58,-2.23,0.00
0.382,-0.83,-0.01,0.14,-1.11,-3.87,-4.08,-0.41,3.58,-2.23,0.00
0.383,-0.83,-0.01,0.14,-1.11,-3.87,-4.08,-0.42,3.57,-2.36,0.00
0.385,-0.83,-0.01,0.14,-0.99,-4.41,-3.72,-0.42,3.57,-2.36,0.00
0.4,-0.85,-0.06,0.14,-0.99,-4.41,-3.72,-0.42,3.57,-2.36,0.00
0.402,-0.85,-0.06,0.14,-0.99,-4.41,-3.72,-0.41,3.51,-2.53,0.00
0.403,-0.85,-0.06,0.14,-0.87,-4.68,-3.46,-0.41,3.51,-2.53,0.00
0.405,-0.83,-0.11,0.17,-0.87,-4.68,-3.46,-0.41,3.51,-2.53,0.00
0.405,-0.83,-0.11,0.17,-0.87,-4.68,-3.46,-0.39,3.41,-2.75,0.00
0.406,-0.83,-0.11,0.17,-0.39,-5.00,-2.99,-0.39,3.41,-2.75,0.00
0.413,-0.82,-0.12,0.19,-0.39,-5.00,-2.99,-0.39,3.41,-2.75,0.00
0.414,-0.82,-0.12,0.19,-0.39,-5.00,-2.99,-0.33,3.28,-2.99,0.00
0.415,-0.82,-0.12,0.19,-0.07,-4.85,-2.53,-0.33,3.28,-2.99,0.00
0.423,-0.77,-0.12,0.19,-0.07,-4.85,-2.53,-0.33,3.28,-2.99,0.00
0.425,-0.77,-0.12,0.19,-0.07,-4.85,-2.53,-0.25,3.10,-3.22,0.00
0.426,-0.77,-0.12,0.19,0.67,-4.59,-2.28,-0.25,3.10,-3.22,0.00
0.436,-0.69,-0.13,0.21,0.67,-4.59,-2.28,-0.25,3.10,-3.22,0.00
0.438,-0.69,-0.13,0.21,0.67,-4.59,-2.28,-0.17,2.89,-3.39,0.00
0.439,-0.69,-0.13,0.21,1.65,-4.34,-1.83,-0.17,2.89,-3.39,0.00
0.443,-0.62,-0.14,0.26,1.65,-4.34,-1.83,-0.17,2.89,-3.39,0.00
0.445,-0.62,-0.14,0.26,1.65,-4.34,-1.83,-0.13,2.68,-3.54,0.00
0.445,-0.62,-0.14,0.26,2.59,-4.15,-1.11,-0.13,2.68,-3.54,0.00
0.453,-0.57,-0.14,0.33,2.59,-4.15,-1.11,-0.13,2.68,-3.54,0.00
0.455,-0.57,-0.14,0.33,2.59,-4.15,-1.11,-0.11,2.50,-3.72,0.00
0.456,-0.57,-0.14,0.33,3.29,-3.84,-0.20,-0.11,2.50,-3.72,0.00
0.463,-0.54,-0.15,0.41,3.29,-3.84,-0.20,-0.11,2.50,-3.72,0.00
0.464,-0.54,-0.15,0.41,3.29,-3.84,-0.20,-0.09,2.33,-3.88,0.00
0.465,-0.54,-0.15,0.41,3.76,-3.59,0.81,-0.09,2.33,-3.88,0.00
0.474,-0.54,-0.17,0.47,3.76,-3.59,0.81,-0.09,2.33,-3.88,0.00
0.475,-0.54,-0.17,0.47,3.76,-3.59,0.81,-0.05,2.13,-4.01,0.00
0.476,-0.54,-0.17,0.47,3.84,-3.38,1.56,-0.05,2.13,-4.01,0.00
0.483,-0.56,-0.22,0.54,3.84,-3.38,1.56,-0.05,2.13,-4.01,0.00
0.484,-0.56,-0.22,0.54,3.84,-3.38,1.56,-0.02,1.90,-4.07,0.00
0.485,-0.56,-0.22,0.54,3.83,-3.48,2.44,-0.02,1.90,-4.07,0.00
0.498,-0.58,-0.23,0.59,3.83,-3.48,2.44,-0.02,1.90,-4.07,0.00
0.499,-0.58,-0.23,0.59,3.83,-3.48,2.44,0.01,1.67,-4.08,0.00
0.5,-0.58,-0.23,0.59,3.64,-3.18,3.08,0.01,1.67,-4.08,0.00
0.515,-0.62,-0.17,0.69,3.64,-3.18,3.08,0.01,1.67,-4.08,0.00
0.516,-0.62,-0.17,0.69,3.64,-3.18,3.08,0.01,1.39,-4.10,0.00
0.517,-0.62,-0.17,0.69,3.33,-2.29,4.16,0.01,1.39,-4.10,0.00
0.518,-0.67,-0.10,0.76,3.33,-2.29,4.16,0.01,1.39,-4.10,0.00
0.519,-0.67,-0.10,0.76,3.33,-2.29,4.16,-0.01,1.02,-4.11,0.00
0.52,-0.67,-0.10,0.76,2.93,-1.15,4.96,-0.01,1.02,-4.11,0.00
0.535,-0.73,-0.05,0.85,2.93,-1.15,4.96,-0.01,1.02,-4.11,0.00
0.537,-0.73,-0.05,0.85,2.93,-1.15,4.96,-0.04,0.53,-4.08,0.00
0.538,-0.73,-0.05,0.85,2.33,-0.29,5.88,-0.04,0.53,-4.08,0.00
0.539,-0.83,-0.00,0.99,2.33,-0.29,5.88,-0.04,0.53,-4.08,0.00
0.54,-0.83,-0.00,0.99,2.33,-0.29,5.88,-0.09,-0.08,-4.04,0.00
0.54,-0.83,-0.00,0.99,1.38,0.55,7.20,-0.09,-0.08,-4.04,0.00
0.544,-0.96,0.06,1.02,1.38,0.55,7.20,-0.09,-0.08,-4.04,0.00
0.545,-0.96,0.06,1.02,1.38,0.55,7.20,-0.08,-0.75,-3.96,0.00
0.546,-0.96,0.06,1.02,0.05,1.60,7.46,-0.08,-0.75,-3.96,0.00
0.554,-1.14,0.18,1.03,0.05,1.60,7.46,-0.08,-0.75,-3.96,0.00
0.555,-1.14,0.18,1.03,0.05,1.60,7.46,-0.01,-1.43,-3.79,0.00
0.556,-1.14,0.18,1.03,-1.85,3.12,7.43,-0.01,-1.43,-3.79,0.00
0.564,-1.37,0.39,0.95,-1.85,3.12,7.43,-0.01,-1.43,-3.79,0.00
0.565,-1.37,0.39,0.95,-1.85,3.12,7.43,0.15,-2.06,-3.52,0.00
0.565,-1.37,0.39,0.95,-4.22,5.46,6.46,0.15,-2.06,-3.52,0.00
0.574,-1.62,0.67,0.78,-4.22,5.46,6.46,0.15,-2.06,-3.52,0.00
0.576,-1.62,0.67,0.78,-4.22,5.46,6.46,0.37,-2.42,-3.14,0.00
0.577,-1.62,0.67,0.78,-6.78,8.51,4.56,0.37,-2.42,-3.14,0.00
0.587,-1.96,1.05,0.58,-6.78,8.51,4.56,0.37,-2.42,-3.14,0.00
0.588,-1.96,1.05,0.58,-6.78,8.51,4.56,0.57,-2.47,-2.68,0.00
0.59,-1.96,1.05,0.58,-10.20,12.41,2.36,0.57,-2.47,-2.68,0.00
0.595,-2.41,1.45,0.56,-10.20,12.41,2.36,0.57,-2.47,-2.68,0.00
0.596,-2.41,1.45,0.56,-10.20,12.41,2.36,0.66,-2.19,-2.12,0.00
0.597,-2.41,1.45,0.56,-14.78,16.52,1.97,0.66,-2.19,-2.12,0.00
0.604,-2.98,1.78,0.79,-14.78,16.52,1.97,0.66,-2.19,-2.12,0.00
0.606,-2.98,1.78,0.79,-14.78,16.52,1.97,0.70,-1.55,-1.35,0.00
0.607,-2.98,1.78,0.79,-20.45,19.83,4.05,0.70,-1.55,-1.35,0.00
0.615,-3.53,1.92,1.10,-20.45,19.83,4.05,0.70,-1.55,-1.35,0.00
0.616,-3.53,1.92,1.10,-20.45,19.83,4.05,0.82,-0.65,-0.34,0.00
0.617,-3.53,1.92,1.10,-25.82,21.23,6.98,0.82,-0.65,-0.34,0.00
0.634,-4.03,1.82,1.34,-25.82,21.23,6.98,0.82,-0.65,-0.34,0.00
0.635,-4.03,1.82,1.34,-25.82,21.23,6.98,1.09,0.25,0.86,0.00
0.637,-4.03,1.82,1.34,-30.79,20.18,9.35,1.09,0.25,0.86,0.00
0.639,-4.44,1.56,1.21,-30.79,20.18,9.35,1.09,0.25,0.86,0.00
0.64,-4.44,1.56,1.21,-30.79,20.18,9.35,1.41,0.93,1.96,0.00
0.64,-4.44,1.56,1.21,-34.64,17.37,8.13,1.41,0.93,1.96,0.00
0.645,-4.85,1.22,0.89,-34.64,17.37,8.13,1.41,0.93,1.96,0.00
0.646,-4.85,1.22,0.89,-34.64,17.37,8.13,1.72,1.34,2.85,0.00
0.647,-4.85,1.22,0.89,-38.57,13.73,5.10,1.72,1.34,2.85,0.00
0.656,-4.64,0.89,0.50,-38.57,13.73,5.10,1.72,1.34,2.85,0.00
0.657,-4.64,0.89,0.50,-38.57,13.73,5.10,2.07,1.40,3.65,0.00
0.66,-4.64,0.89,0.50,-36.40,10.05,1.35,2.07,1.40,3.65,0.00
0.665,-4.07,0.58,0.13,-36.40,10.05,1.35,2.07,1.40,3.65,0.00
0.667,-4.07,0.58,0.13,-36.40,10.05,1.35,2.53,1.04,4.30,0.00
0.667,-4.07,0.58,0.13,-30.79,6.59,-2.18,2.53,1.04,4.30,0.00
0.675,-3.59,0.43,-0.19,-30.79,6.59,-2.18,2.53,1.04,4.30,0.00
0.677,-3.59,0.43,-0.19,-30.79,6.59,-2.18,2.94,0.39,4.53,0.00
0.678,-3.59,0.43,-0.19,-25.98,4.61,-5.29,2.94,0.39,4.53,0.00
0.686,-3.11,0.39,-0.39,-25.98,4.61,-5.29,2.94,0.39,4.53,0.00
0.688,-3.11,0.39,-0.39,-25.98,4.61,-5.29,3.16,0.13,4.53,0.00
0.689,-3.11,0.39,-0.39,-21.33,3.67,-7.25,3.16,0.13,4.53,0.00
0.696,-2.69,0.36,-0.45,-21.33,3.67,-7.25,3.16,0.13,4.53,0.00
0.697,-2.69,0.36,-0.45,-21.33,3.67,-7.25,3.16,0.59,4.54,0.00
0.698,-2.69,0.36,-0.45,-17.21,2.80,-7.75,3.16,0.59,4.54,0.00
0.705,-2.34,0.27,-0.35,-17.21,2.80,-7.75,3.16,0.59,4.54,0.00
0.706,-2.34,0.27,-0.35,-17.21,2.80,-7.75,3.03,1.49,4.50,0.00
0.707,-2.34,0.27,-0.35,-13.75,1.41,-6.67,3.03,1.49,4.50,0.00
0.716,-1.97,0.04,-0.18,-13.75,1.41,-6.67,3.03,1.49,4.50,0.00
0.717,-1.97,0.04,-0.18,-13.75,1.41,-6.67,2.81,2.41,4.40,0.00
0.718,-1.97,0.04,-0.18,-10.12,-1.29,-4.74,2.81,2.41,4.40,0.00
0.734,-1.55,-0.24,-0.04,-10.12,-1.29,-4.74,2.81,2.41,4.40,0.00
0.736,-1.55,-0.24,-0.04,-10.12,-1.29,-4.74,2.53,2.96,4.23,0.00
0.737,-1.55,-0.24,-0.04,-5.96,-4.48,-2.96,2.53,2.96,4.23,0.00
0.738,-1.11,-0.51,0.15,-5.96,-4.48,-2.96,2.53,2.96,4.23,0.00
0.739,-1.11,-0.51,0.15,-5.96,-4.48,-2.96,2.19,3.07,3.89,0.00
0.74,-1.11,-0.51,0.15,-1.66,-7.57,-0.83,2.19,3.07,3.89,0.00
0.746,-0.66,-0.81,0.40,-1.66,-7.57,-0.83,2.19,3.07,3.89,0.00
0.747,-0.66,-0.81,0.40,-1.66,-7.57,-0.83,1.81,2.88,3.34,0.00
0.748,-0.66,-0.81,0.40,2.72,-10.90,2.01,1.81,2.88,3.34,0.00
0.757,-0.30,-1.12,0.57,2.72,-10.90,2.01,1.81,2.88,3.34,0.00
0.758,-0.30,-1.12,0.57,2.72,-10.90,2.01,1.46,2.45,2.57,0.00
0.759,-0.30,-1.12,0.57,6.18,-14.17,3.92,1.46,2.45,2.57,0.00
0.766,-0.03,-1.40,0.72,6.18,-14.17,3.92,1.46,2.45,2.57,0.00
0.768,-0.03,-1.40,0.72,6.18,-14.17,3.92,1.10,1.61,1.66,0.00
0.769,-0.03,-1.40,0.72,8.79,-17.12,5.59,1.10,1.61,1.66,0.00
0.776,0.12,-1.52,0.68,8.79,-17.12,5.59,1.10,1.61,1.66,0.00
0.778,0.12,-1.52,0.68,8.79,-17.12,5.59,0.70,0.33,0.70,0.00
0.779,0.12,-1.52,0.68,10.27,-18.32,5.23,0.70,0.33,0.70,0.00
0.787,0.26,-1.42,0.52,10.27,-18.32,5.23,0.70,0.33,0.70,0.00
0.789,0.26,-1.42,0.52,10.27,-18.32,5.23,0.37,-1.06,-0.18,0.00
0.79,0.26,-1.42,0.52,11.60,-17.33,3.53,0.37,-1.06,-0.18,0.00
0.796,0.46,-1.34,0.17,11.60,-17.33,3.53,0.37,-1.06,-0.18,0.00
0.797,0.46,-1.34,0.17,11.60,-17.33,3.53,0.14,-2.21,-0.90,0.00
0.798,0.46,-1.34,0.17,13.54,-16.50,-0.08,0.14,-2.21,-0.90,0.00
0.806,0.69,-1.32,-0.01,13.54,-16.50,-0.08,0.14,-2.21,-0.90,0.00
0.807,0.69,-1.32,-0.01,13.54,-16.50,-0.08,-0.06,-2.71,-1.46,0.00
0.808,0.69,-1.32,-0.01,15.81,-16.17,-2.07,-0.06,-2.71,-1.46,0.00
0.816,0.83,-1.27,-0.10,15.81,-16.17,-2.07,-0.06,-2.71,-1.46,0.00
0.818,0.83,-1.27,-0.10,15.81,-16.17,-2.07,-0.27,-2.57,-1.94,0.00
0.819,0.83,-1.27,-0.10,17.19,-15.45,-3.22,-0.27,-2.57,-1.94,0.00
0.83,0.90,-1.20,-0.11,17.19,-15.45,-3.22,-0.27,-2.57,-1.94,0.00
0.831,0.90,-1.20,-0.11,17.19,-15.45,-3.22,-0.56,-2.22,-2.28,0.00
0.832,0.90,-1.20,-0.11,17.92,-14.63,-3.54,-0.56,-2.22,-2.28,0.00
0.851,0.84,-1.16,-0.04,17.92,-14.63,-3.54,-0.56,-2.22,-2.28,0.00
0.852,0.84,-1.16,-0.04,17.92,-14.63,-3.54,-0.97,-1.91,-2.40,0.00
0.853,0.84,-1.16,-0.04,17.34,-13.99,-3.03,-0.97,-1.91,-2.40,0.00
0.856,0.74,-1.14,0.13,17.34,-13.99,-3.03,-0.97,-1.91,-2.40,0.00
0.857,0.74,-1.14,0.13,17.34,-13.99,-3.03,-1.48,-1.75,-2.40,0.00
0.858,0.74,-1.14,0.13,16.38,-13.54,-1.52,-1.48,-1.75,-2.40,0.00
0.859,0.62,-1.13,0.28,16.38,-13.54,-1.52,-1.48,-1.75,-2.40,0.00
0.86,0.62,-1.13,0.28,16.38,-13.54,-1.52,-1.98,-1.85,-2.48,0.00
0.861,0.62,-1.13,0.28,15.18,-13.09,-0.26,-1.98,-1.85,-2.48,0.00
0.867,0.54,-1.11,0.36,15.18,-13.09,-0.26,-1.98,-1.85,-2.48,0.00
0.868,0.54,-1.11,0.36,15.18,-13.09,-0.26,-2.43,-2.14,-2.64,0.00
0.868,0.54,-1.11,0.36,14.33,-12.63,0.19,-2.43,-2.14,-2.64,0.00
0.883,0.39,-1.12,0.45,14.33,-12.63,0.19,-2.43,-2.14,-2.64,0.00
0.884,0.39,-1.12,0.45,14.33,-12.63,0.19,-2.84,-2.50,-2.82,0.00
0.885,0.39,-1.12,0.45,12.88,-12.36,0.88,-2.84,-2.50,-2.82,0.00
0.898,0.16,-1.13,0.46,12.88,-12.36,0.88,-2.84,-2.50,-2.82,0.00
0.9,0.16,-1.13,0.46,12.88,-12.36,0.88,-3.21,-2.82,-3.02,0.00
0.901,0.16,-1.13,0.46,10.51,-12.04,0.67,-3.21,-2.82,-3.02,0.00
0.902,-0.07,-1.11,0.43,10.51,-12.04,0.67,-3.21,-2.82,-3.02,0.00
0.903,-0.07,-1.11,0.43,10.51,-12.04,0.67,-3.59,-3.12,-3.15,0.00
0.904,-0.07,-1.11,0.43,8.13,-11.39,0.02,-3.59,-3.12,-3.15,0.00
0.917,-0.29,-1.07,0.42,8.13,-11.39,0.02,-3.59,-3.12,-3.15,0.00
0.919,-0.29,-1.07,0.42,8.13,-11.39,0.02,-4.05,-3.36,-3.21,0.00
0.92,-0.29,-1.07,0.42,5.87,-10.54,-0.33,-4.05,-3.36,-3.21,0.00
0.921,-0.50,-1.04,0.47,5.87,-10.54,-0.33,-4.05,-3.36,-3.21,0.00
0.922,-0.50,-1.04,0.47,5.87,-10.54,-0.33,-4.51,-3.47,-3.26,0.00
0.923,-0.50,-1.04,0.47,3.66,-9.80,-0.16,-4.51,-3.47,-3.26,0.00
0.927,-0.71,-1.05,0.58,3.66,-9.80,-0.16,-4.51,-3.47,-3.26,0.00
0.928,-0.71,-1.05,0.58,3.66,-9.80,-0.16,-4.85,-3.36,-3.29,0.00
0.929,-0.71,-1.05,0.58,1.44,-9.37,0.61,-4.85,-3.36,-3.29,0.00
0.937,-0.90,-1.08,0.75,1.44,-9.37,0.61,-4.85,-3.36,-3.29,0.00
0.939,-0.90,-1.08,0.75,1.44,-9.37,0.61,-5.01,-3.02,-3.31,0.00
0.94,-0.90,-1.08,0.75,-0.67,-9.11,2.12,-5.01,-3.02,-3.31,0.00
0.947,-1.18,-1.14,0.92,-0.67,-9.11,2.12,-5.01,-3.02,-3.31,0.00
0.949,-1.18,-1.14,0.92,-0.67,-9.11,2.12,-5.06,-2.70,-3.37,0.00
0.949,-1.18,-1.14,0.92,-3.59,-9.19,3.69,-5.06,-2.70,-3.37,0.00
0.961,-1.65,-1.22,1.11,-3.59,-9.19,3.69,-5.06,-2.70,-3.37,0.00
0.962,-1.65,-1.22,1.11,-3.59,-9.19,3.69,-5.12,-2.55,-3.53,0.00
0.963,-1.65,-1.22,1.11,-8.46,-9.42,5.44,-5.12,-2.55,-3.53,0.00
0.968,-2.23,-1.31,1.34,-8.46,-9.42,5.44,-5.12,-2.55,-3.53,0.00
0.969,-2.23,-1.31,1.34,-8.46,-9.42,5.44,-5.27,-2.36,-3.73,0.00
0.97,-2.23,-1.31,1.34,-14.34,-9.66,7.72,-5.27,-2.36,-3.73,0.00
0.983,-2.99,-1.33,1.76,-14.34,-9.66,7.72,-5.27,-2.36,-3.73,0.00
0.985,-2.99,-1.33,1.76,-14.34,-9.66,7.72,-5.51,-1.90,-3.81,0.00
0.986,-2.99,-1.33,1.76,-22.01,-9.27,11.87,-5.51,-1.90,-3.81,0.00
0.989,-3.25,-1.45,2.05,-22.01,-9.27,11.87,-5.51,-1.90,-3.81,0.00
0.99,-3.25,-1.45,2.05,-22.01,-9.27,11.87,-5.65,-1.33,-3.59,0.00
0.991,-3.25,-1.45,2.05,-24.81,-9.89,14.81,-5.65,-1.33,-3.59,0.00
0.998,-3.21,-1.57,2.09,-24.81,-9.89,14.81,-5.65,-1.33,-3.59,0.00
0.999,-3.21,-1.57,2.09,-24.81,-9.89,14.81,-5.50,-1.30,-3.21,0.00
1.0,-3.21,-1.57,2.09,-24.61,-10.60,15.38,-5.50,-1.30,-3.21,0.00
1.009,-3.09,-1.39,1.84,-24.61,-10.60,15.38,-5.50,-1.30,-3.21,0.00
1.011,-3.09,-1.39,1.84,-24.61,-10.60,15.38,-5.19,-1.86,-3.03,0.00
1.012,-3.09,-1.39,1.84,-23.74,-8.29,13.07,-5.19,-1.86,-3.03,0.00
1.019,-2.78,-1.06,1.48,-23.74,-8.29,13.07,-5.19,-1.86,-3.03,0.00
1.02,-2.78,-1.06,1.48,-23.74,-8.29,13.07,-4.85,-2.31,-2.87,0.00
1.021,-2.78,-1.06,1.48,-20.91,-4.69,9.68,-4.85,-2.31,-2.87,0.00
1.028,-2.39,-0.70,1.24,-20.91,-4.69,9.68,-4.85,-2.31,-2.87,0.00
1.03,-2.39,-0.70,1.24,-20.91,-4.69,9.68,-4.59,-2.26,-2.54,0.00
1.031,-2.39,-0.70,1.24,-17.33,-0.78,7.47,-4.59,-2.26,-2.54,0.00
1.044,-2.05,-0.34,1.16,-17.33,-0.78,7.47,-4.59,-2.26,-2.54,0.00
1.046,-2.05,-0.34,1.16,-17.33,-0.78,7.47,-4.39,-1.92,-2.17,0.00
1.047,-2.05,-0.34,1.16,-14.28,3.05,6.80,-4.39,-1.92,-2.17,0.00
1.05,-1.79,0.01,1.27,-14.28,3.05,6.80,-4.39,-1.92,-2.17,0.00
1.052,-1.79,0.01,1.27,-14.28,3.05,6.80,-4.22,-1.53,-1.81,0.00
1.053,-1.79,0.01,1.27,-11.87,6.80,8.05,-4.22,-1.53,-1.81,0.00
1.063,-1.61,0.35,1.55,-11.87,6.80,8.05,-4.22,-1.53,-1.81,0.00
1.065,-1.61,0.35,1.55,-11.87,6.80,8.05,-4.10,-1.10,-1.50,0.00
1.066,-1.61,0.35,1.55,-10.31,10.40,11.01,-4.10,-1.10,-1.50,0.00
1.069,-1.45,0.57,1.83,-10.31,10.40,11.01,-4.10,-1.10,-1.50,0.00
1.07,-1.45,0.57,1.83,-10.31,10.40,11.01,-3.92,-0.77,-1.23,0.00
1.071,-1.45,0.57,1.83,-8.85,12.77,14.01,-3.92,-0.77,-1.23,0.00
1.08,-1.28,0.72,1.90,-8.85,12.77,14.01,-3.92,-0.77,-1.23,0.00
1.082,-1.28,0.72,1.90,-8.85,12.77,14.01,-3.60,-0.81,-0.98,0.00
1.083,-1.28,0.72,1.90,-7.31,14.44,14.95,-3.60,-0.81,-0.98,0.00
1.093,-1.12,0.88,1.71,-7.31,14.44,14.95,-3.60,-0.81,-0.98,0.00
1.094,-1.12,0.88,1.71,-7.31,14.44,14.95,-3.12,-1.28,-0.77,0.00
1.095,-1.12,0.88,1.71,-5.82,16.23,13.23,-3.12,-1.28,-0.77,0.00
1.1,-0.93,1.05,1.43,-5.82,16.23,13.23,-3.12,-1.28,-0.77,0.00
1.101,-0.93,1.05,1.43,-5.82,16.23,13.23,-2.56,-1.94,-0.59,0.00
1.102,-0.93,1.05,1.43,-4.04,17.97,10.55,-2.56,-1.94,-0.59,0.00
1.109,-0.74,1.22,1.15,-4.04,17.97,10.55,-2.56,-1.94,-0.59,0.00
1.111,-0.74,1.22,1.15,-4.04,17.97,10.55,-1.99,-2.54,-0.38,0.00
1.111,-0.74,1.22,1.15,-2.34,19.76,7.91,-1.99,-2.54,-0.38,0.00
1.121,-0.53,1.30,0.86,-2.34,19.76,7.91,-1.99,-2.54,-0.38,0.00
1.122,-0.53,1.30,0.86,-2.34,19.76,7.91,-1.44,-3.03,-0.11,0.00
1.123,-0.53,1.30,0.86,-0.42,20.58,5.03,-1.44,-3.03,-0.11,0.00
1.129,-0.37,1.35,0.67,-0.42,20.58,5.03,-1.44,-3.03,-0.11,0.00
1.13,-0.37,1.35,0.67,-0.42,20.58,5.03,-0.96,-3.28,0.20,0.00
1.131,-0.37,1.35,0.67,1.07,21.04,3.01,-0.96,-3.28,0.20,0.00
1.139,-0.30,1.43,0.62,1.07,21.04,3.01,-0.96,-3.28,0.20,0.00
1.14,-0.30,1.43,0.62,1.07,21.04,3.01,-0.53,-3.21,0.47,0.00
1.141,-0.30,1.43,0.62,1.68,21.83,2.42,-0.53,-3.21,0.47,0.00
1.149,-0.35,1.60,0.64,1.68,21.83,2.42,-0.53,-3.21,0.47,0.00
1.15,-0.35,1.60,0.64,1.68,21.83,2.42,-0.05,-2.80,0.71,0.00
1.151,-0.35,1.60,0.64,1.17,23.53,2.56,-0.05,-2.80,0.71,0.00
1.161,-0.48,1.85,0.78,1.17,23.53,2.56,-0.05,-2.80,0.71,0.00
1.162,-0.48,1.85,0.78,1.17,23.53,2.56,0.53,-2.13,0.97,0.00
1.164,-0.48,1.85,0.78,-0.11,25.83,3.76,0.53,-2.13,0.97,0.00
1.182,-0.62,2.05,0.96,-0.11,25.83,3.76,0.53,-2.13,0.97,0.00
1.183,-0.62,2.05,0.96,-0.11,25.83,3.76,1.16,-1.29,1.31,0.00
1.184,-0.62,2.05,0.96,-1.41,27.73,5.33,1.16,-1.29,1.31,0.00
1.186,-0.73,2.09,1.22,-1.41,27.73,5.33,1.16,-1.29,1.31,0.00
1.187,-0.73,2.09,1.22,-1.41,27.73,5.33,1.75,-0.53,1.69,0.00
1.188,-0.73,2.09,1.22,-2.42,27.96,7.72,1.75,-0.53,1.69,0.00
1.195,-0.88,1.85,1.48,-2.42,27.96,7.72,1.75,-0.53,1.69,0.00
1.197,-0.88,1.85,1.48,-2.42,27.96,7.72,2.23,-0.15,1.99,0.00
1.198,-0.88,1.85,1.48,-3.74,25.42,10.12,2.23,-0.15,1.99,0.00
1.2,-1.05,1.42,1.50,-3.74,25.42,10.12,2.23,-0.15,1.99,0.00
1.202,-1.05,1.42,1.50,-3.74,25.42,10.12,2.68,-0.16,2.17,0.00
1.203,-1.05,1.42,1.50,-5.25,21.02,10.14,2.68,-0.16,2.17,0.00
1.211,-1.18,0.99,1.46,-5.25,21.02,10.14,2.68,-0.16,2.17,0.00
1.213,-1.18,0.99,1.46,-5.25,21.02,10.14,3.20,-0.32,2.34,0.00
1.214,-1.18,0.99,1.46,-6.40,16.54,9.45,3.20,-0.32,2.34,0.00
1.221,-1.28,0.58,1.49,-6.40,16.54,9.45,3.20,-0.32,2.34,0.00
1.223,-1.28,0.58,1.49,-6.40,16.54,9.45,3.74,-0.33,2.57,0.00
1.224,-1.28,0.58,1.49,-7.19,12.17,9.48,3.74,-0.33,2.57,0.00
1.23,-1.36,0.20,1.51,-7.19,12.17,9.48,3.74,-0.33,2.57,0.00
1.231,-1.36,0.20,1.51,-7.19,12.17,9.48,4.31,-0.06,2.85,0.00
1.231,-1.36,0.20,1.51,-7.84,8.06,9.42,4.31,-0.06,2.85,0.00
1.241,-1.47,-0.16,1.59,-7.84,8.06,9.42,4.31,-0.06,2.85,0.00
1.242,-1.47,-0.16,1.59,-7.84,8.06,9.42,4.81,0.40,3.16,0.00
1.243,-1.47,-0.16,1.59,-8.71,4.07,9.97,4.81,0.40,3.16,0.00
1.251,-1.68,-0.49,1.68,-8.71,4.07,9.97,4.81,0.40,3.16,0.00
1.253,-1.68,-0.49,1.68,-8.71,4.07,9.97,5.18,0.86,3.46,0.00
1.254,-1.68,-0.49,1.68,-10.46,0.30,10.60,5.18,0.86,3.46,0.00
1.261,-1.94,-0.78,1.81,-10.46,0.30,10.60,5.18,0.86,3.46,0.00
1.262,-1.94,-0.78,1.81,-10.46,0.30,10.60,5.41,1.26,3.74,0.00
1.263,-1.94,-0.78,1.81,-12.82,-3.11,11.67,5.41,1.26,3.74,0.00
1.278,-2.44,-1.06,2.02,-12.82,-3.11,11.67,5.41,1.26,3.74,0.00
1.279,-2.44,-1.06,2.02,-12.82,-3.11,11.67,5.47,1.68,3.89,0.00
1.28,-2.44,-1.06,2.02,-17.41,-6.40,13.65,5.47,1.68,3.89,0.00
1.283,-2.94,-1.38,2.39,-17.41,-6.40,13.65,5.47,1.68,3.89,0.00
1.284,-2.94,-1.38,2.39,-17.41,-6.40,13.65,5.37,2.34,3.86,0.00
1.285,-2.94,-1.38,2.39,-22.05,-10.08,17.26,5.37,2.34,3.86,0.00
1.302,-3.21,-1.73,2.68,-22.05,-10.08,17.26,5.37,2.34,3.86,0.00
1.303,-3.21,-1.73,2.68,-22.05,-10.08,17.26,5.27,3.05,3.81,0.00
1.305,-3.21,-1.73,2.68,-24.38,-14.12,20.11,5.27,3.05,3.81,0.00
1.307,-3.11,-2.07,2.57,-24.38,-14.12,20.11,5.27,3.05,3.81,0.00
1.308,-3.11,-2.07,2.57,-24.38,-14.12,20.11,5.34,2.94,3.79,0.00
1.309,-3.11,-2.07,2.57,-23.13,-18.10,19.07,5.34,2.94,3.79,0.00
1.311,-2.72,-2.33,2.03,-23.13,-18.10,19.07,5.34,2.94,3.79,0.00
1.312,-2.72,-2.33,2.03,-23.13,-18.10,19.07,5.57,1.88,3.57,0.00
1.313,-2.72,-2.33,2.03,-19.10,-21.26,13.80,5.57,1.88,3.57,0.00
1.322,-2.17,-2.34,1.57,-19.10,-21.26,13.80,5.57,1.88,3.57,0.00
1.324,-2.17,-2.34,1.57,-19.10,-21.26,13.80,5.67,0.89,3.03,0.00
1.325,-2.17,-2.34,1.57,-13.66,-21.97,9.33,5.67,0.89,3.03,0.00
1.331,-1.70,-2.22,1.22,-13.66,-21.97,9.33,5.67,0.89,3.03,0.00
1.334,-1.70,-2.22,1.22,-13.66,-21.97,9.33,5.59,0.63,2.28,0.00
1.335,-1.70,-2.22,1.22,-8.93,-21.25,5.92,5.59,0.63,2.28,0.00
1.342,-1.26,-2.03,0.94,-8.93,-21.25,5.92,5.59,0.63,2.28,0.00
1.344,-1.26,-2.03,0.94,-8.93,-21.25,5.92,5.42,0.74,1.54,0.00
1.344,-1.26,-2.03,0.94,-4.56,-19.88,3.22,5.42,0.74,1.54,0.00
1.351,-0.86,-1.87,0.70,-4.56,-19.88,3.22,5.42,0.74,1.54,0.00
1.352,-0.86,-1.87,0.70,-4.56,-19.88,3.22,5.15,0.98,0.88,0.00
1.353,-0.86,-1.87,0.70,-0.59,-18.63,0.89,5.15,0.98,0.88,0.00
1.361,-0.52,-1.73,0.49,-0.59,-18.63,0.89,5.15,0.98,0.88,0.00
1.362,-0.52,-1.73,0.49,-0.59,-18.63,0.89,4.77,1.36,0.28,0.00
1.363,-0.52,-1.73,0.49,2.80,-17.60,-0.95,4.77,1.36,0.28,0.00
1.378,-0.26,-1.52,0.31,2.80,-17.60,-0.95,4.77,1.36,0.28,0.00
1.38,-0.26,-1.52,0.31,2.80,-17.60,-0.95,4.29,1.79,-0.28,0.00
1.381,-0.26,-1.52,0.31,5.45,-15.79,-2.62,4.29,1.79,-0.28,0.00
1.383,-0.03,-1.28,0.17,5.45,-15.79,-2.62,4.29,1.79,-0.28,0.00
1.384,-0.03,-1.28,0.17,5.45,-15.79,-2.62,3.75,2.11,-0.81,0.00
1.385,-0.03,-1.28,0.17,7.83,-13.51,-3.77,3.75,2.11,-0.81,0.00
1.4,0.18,-1.06,0.09,7.83,-13.51,-3.77,3.75,2.11,-0.81,0.00
1.402,0.18,-1.06,0.09,7.83,-13.51,-3.77,3.20,2.22,-1.27,0.00
1.403,0.18,-1.06,0.09,9.99,-11.47,-4.27,3.20,2.22,-1.27,0.00
1.405,0.35,-0.93,0.09,9.99,-11.47,-4.27,3.20,2.22,-1.27,0.00
1.406,0.35,-0.93,0.09,9.99,-11.47,-4.27,2.62,2.12,-1.64,0.00
1.407,0.35,-0.93,0.09,11.82,-10.17,-4.08,2.62,2.12,-1.64,0.00
1.413,0.49,-0.92,0.12,11.82,-10.17,-4.08,2.62,2.12,-1.64,0.00
1.414,0.49,-0.92,0.12,11.82,-10.17,-4.08,2.03,1.90,-1.96,0.00
1.415,0.49,-0.92,0.12,13.28,-10.06,-3.67,2.03,1.90,-1.96,0.00
1.426,0.58,-0.96,0.14,13.28,-10.06,-3.67,2.03,1.90,-1.96,0.00
1.427,0.58,-0.96,0.14,13.28,-10.06,-3.67,1.43,1.58,-2.24,0.00
1.428,0.58,-0.96,0.14,14.31,-10.33,-3.28,1.43,1.58,-2.24,0.00
1.432,0.63,-1.00,0.15,14.31,-10.33,-3.28,1.43,1.58,-2.24,0.00
1.433,0.63,-1.00,0.15,14.31,-10.33,-3.28,0.83,1.09,-2.52,0.00
1.434,0.63,-1.00,0.15,14.81,-10.55,-3.05,0.83,1.09,-2.52,0.00
1.442,0.63,-0.99,0.12,14.81,-10.55,-3.05,0.83,1.09,-2.52,0.00
1.444,0.63,-0.99,0.12,14.81,-10.55,-3.05,0.25,0.34,-2.77,0.00
1.444,0.63,-0.99,0.12,14.86,-10.17,-3.34,0.25,0.34,-2.77,0.00
1.453,0.70,-0.97,0.09,14.86,-10.17,-3.34,0.25,0.34,-2.77,0.00
1.454,0.70,-0.97,0.09,14.86,-10.17,-3.34,-0.30,-0.62,-2.92,0.00
1.455,0.70,-0.97,0.09,15.48,-9.66,-3.71,-0.30,-0.62,-2.92,0.00
1.462,0.76,-0.90,0.03,15.48,-9.66,-3.71,-0.30,-0.62,-2.92,0.00
1.463,0.76,-0.90,0.03,15.48,-9.66,-3.71,-0.84,-1.61,-2.99,0.00
1.464,0.76,-0.90,0.03,16.07,-8.75,-4.38,-0.84,-1.61,-2.99,0.00
1.478,0.79,-0.82,-0.08,16.07,-8.75,-4.38,-0.84,-1.61,-2.99,0.00
1.48,0.79,-0.82,-0.08,16.07,-8.75,-4.38,-1.36,-2.51,-3.00,0.00
1.481,0.79,-0.82,-0.08,16.24,-7.60,-5.74,-1.36,-2.51,-3.00,0.00
1.505,0.80,-0.72,-0.17,16.24,-7.60,-5.74,-1.36,-2.51,-3.00,0.00
1.506,0.80,-0.72,-0.17,16.24,-7.60,-5.74,-1.87,-3.22,-2.96,0.00
1.507,0.80,-0.72,-0.17,16.15,-6.29,-6.87,-1.87,-3.22,-2.96,0.00
1.508,0.73,-0.65,-0.23,16.15,-6.29,-6.87,-1.87,-3.22,-2.96,0.00
1.508,0.73,-0.65,-0.23,16.15,-6.29,-6.87,-2.40,-3.65,-2.87,0.00
1.509,0.73,-0.65,-0.23,15.25,-5.26,-7.73,-2.40,-3.65,-2.87,0.00
1.51,0.62,-0.62,-0.29,15.25,-5.26,-7.73,-2.40,-3.65,-2.87,0.00
1.511,0.62,-0.62,-0.29,15.25,-5.26,-7.73,-2.88,-3.74,-2.72,0.00
1.512,0.62,-0.62,-0.29,13.89,-4.53,-8.60,-2.88,-3.74,-2.72,0.00
1.514,0.48,-0.59,-0.42,13.89,-4.53,-8.60,-2.88,-3.74,-2.72,0.00
1.515,0.48,-0.59,-0.42,13.89,-4.53,-8.60,-3.31,-3.53,-2.47,0.00
1.516,0.48,-0.59,-0.42,12.27,-3.85,-10.09,-3.31,-3.53,-2.47,0.00
1.525,0.37,-0.60,-0.46,12.27,-3.85,-10.09,-3.31,-3.53,-2.47,0.00
1.526,0.37,-0.60,-0.46,12.27,-3.85,-10.09,-3.68,-3.03,-2.15,0.00
1.527,0.37,-0.60,-0.46,10.99,-3.58,-10.62,-3.68,-3.03,-2.15,0.00
1.535,0.28,-0.69,-0.34,10.99,-3.58,-10.62,-3.68,-3.03,-2.15,0.00
1.537,0.28,-0.69,-0.34,10.99,-3.58,-10.62,-4.00,-2.25,-1.80,0.00
1.537,0.28,-0.69,-0.34,9.90,-4.13,-9.48,-4.00,-2.25,-1.80,0.00
1.543,0.06,-0.83,-0.02,9.90,-4.13,-9.48,-4.00,-2.25,-1.80,0.00
1.544,0.06,-0.83,-0.02,9.90,-4.13,-9.48,-4.20,-1.35,-1.57,0.00
1.545,0.06,-0.83,-0.02,7.59,-5.10,-6.36,-4.20,-1.35,-1.57,0.00
1.553,-0.24,-1.04,0.40,7.59,-5.10,-6.36,-4.20,-1.35,-1.57,0.00
1.554,-0.24,-1.04,0.40,7.59,-5.10,-6.36,-4.22,-0.53,-1.39,0.00
1.554,-0.24,-1.04,0.40,4.54,-6.77,-2.11,-4.22,-0.53,-1.39,0.00
1.563,-0.61,-1.22,0.70,4.54,-6.77,-2.11,-4.22,-0.53,-1.39,0.00
1.564,-0.61,-1.22,0.70,4.54,-6.77,-2.11,-4.01,0.04,-1.13,0.00
1.565,-0.61,-1.22,0.70,0.95,-8.22,1.00,-4.01,0.04,-1.13,0.00
1.573,-1.08,-1.33,0.84,0.95,-8.22,1.00,-4.01,0.04,-1.13,0.00
1.574,-1.08,-1.33,0.84,0.95,-8.22,1.00,-3.73,0.29,-0.81,0.00
1.575,-1.08,-1.33,0.84,-3.69,-9.06,2.47,-3.73,0.29,-0.81,0.00
1.583,-1.61,-1.50,0.87,-3.69,-9.06,2.47,-3.73,0.29,-0.81,0.00
1.584,-1.61,-1.50,0.87,-3.69,-9.06,2.47,-3.69,0.32,-0.45,0.00
1.585,-1.61,-1.50,0.87,-8.88,-10.43,2.98,-3.69,0.32,-0.45,0.00
1.594,-2.27,-1.65,1.12,-8.88,-10.43,2.98,-3.69,0.32,-0.45,0.00
1.595,-2.27,-1.65,1.12,-8.88,-10.43,2.98,-4.04,0.50,-0.35,0.00
1.596,-2.27,-1.65,1.12,-15.31,-11.66,5.62,-4.04,0.50,-0.35,0.00
1.614,-2.55,-1.74,1.60,-15.31,-11.66,5.62,-4.04,0.50,-0.35,0.00
1.615,-2.55,-1.74,1.60,-15.31,-11.66,5.62,-4.53,0.87,-0.51,0.00
1.616,-2.55,-1.74,1.60,-18.03,-12.28,10.66,-4.53,0.87,-0.51,0.00
1.617,-2.41,-1.90,1.94,-18.03,-12.28,10.66,-4.53,0.87,-0.51,0.00
1.618,-2.41,-1.90,1.94,-18.03,-12.28,10.66,-4.70,0.86,-0.51,0.00
1.619,-2.41,-1.90,1.94,-16.67,-13.56,14.28,-4.70,0.86,-0.51,0.00
1.626,-2.16,-1.86,1.93,-16.67,-13.56,14.28,-4.70,0.86,-0.51,0.00
1.627,-2.16,-1.86,1.93,-16.67,-13.56,14.28,-4.57,-0.00,-0.47,0.00
1.628,-2.16,-1.86,1.93,-14.26,-12.99,14.37,-4.57,-0.00,-0.47,0.00
1.635,-2.03,-1.60,1.70,-14.26,-12.99,14.37,-4.57,-0.00,-0.47,0.00
1.636,-2.03,-1.60,1.70,-14.26,-12.99,14.37,-4.38,-1.39,-0.63,0.00
1.636,-2.03,-1.60,1.70,-13.09,-10.16,12.30,-4.38,-1.39,-0.63,0.00
1.645,-1.91,-1.35,1.56,-13.09,-10.16,12.30,-4.38,-1.39,-0.63,0.00
1.646,-1.91,-1.35,1.56,-13.09,-10.16,12.30,-4.25,-2.41,-0.88,0.00
1.647,-1.91,-1.35,1.56,-12.06,-7.43,10.94,-4.25,-2.41,-0.88,0.00
1.655,-1.69,-1.23,1.62,-12.06,-7.43,10.94,-4.25,-2.41,-0.88,0.00
1.657,-1.69,-1.23,1.62,-12.06,-7.43,10.94,-4.08,-2.54,-1.06,0.00
1.657,-1.69,-1.23,1.62,-10.06,-6.03,11.61,-4.08,-2.54,-1.06,0.00
1.664,-1.49,-1.06,1.64,-10.06,-6.03,11.61,-4.08,-2.54,-1.06,0.00
1.665,-1.49,-1.06,1.64,-10.06,-6.03,11.61,-3.89,-2.29,-1.22,0.00
1.666,-1.49,-1.06,1.64,-8.33,-4.15,11.91,-3.89,-2.29,-1.22,0.00
1.673,-1.33,-0.80,1.60,-8.33,-4.15,11.91,-3.89,-2.29,-1.22,0.00
1.675,-1.33,-0.80,1.60,-8.33,-4.15,11.91,-3.67,-2.09,-1.38,0.00
1.675,-1.33,-0.80,1.60,-6.92,-1.38,11.59,-3.67,-2.09,-1.38,0.00
1.684,-1.17,-0.55,1.55,-6.92,-1.38,11.59,-3.67,-2.09,-1.38,0.00
1.685,-1.17,-0.55,1.55,-6.92,-1.38,11.59,-3.37,-1.78,-1.52,0.00
1.685,-1.17,-0.55,1.55,-5.53,1.36,11.25,-3.37,-1.78,-1.52,0.00
1.695,-1.08,-0.39,1.52,-5.53,1.36,11.25,-3.37,-1.78,-1.52,0.00
1.696,-1.08,-0.39,1.52,-5.53,1.36,11.25,-3.05,-1.26,-1.68,0.00
1.697,-1.08,-0.39,1.52,-4.78,3.14,11.06,-3.05,-1.26,-1.68,0.00
1.714,-1.06,-0.25,1.44,-4.78,3.14,11.06,-3.05,-1.26,-1.68,0.00
1.715,-1.06,-0.25,1.44,-4.78,3.14,11.06,-2.69,-0.74,-1.84,0.00
1.717,-1.06,-0.25,1.44,-4.79,4.65,10.47,-2.69,-0.74,-1.84,0.00
1.717,-1.11,-0.02,1.36,-4.79,4.65,10.47,-2.69,-0.74,-1.84,0.00
1.718,-1.11,-0.02,1.36,-4.79,4.65,10.47,-2.29,-0.47,-1.96,0.00
1.719,-1.11,-0.02,1.36,-5.37,7.16,9.86,-2.29,-0.47,-1.96,0.00
1.742,-1.16,0.25,1.26,-5.37,7.16,9.86,-2.29,-0.47,-1.96,0.00
1.743,-1.16,0.25,1.26,-5.37,7.16,9.86,-1.87,-0.56,-1.97,0.00
1.744,-1.16,0.25,1.26,-6.06,9.97,8.90,-1.87,-0.56,-1.97,0.00
1.745,-1.18,0.50,1.09,-6.06,9.97,8.90,-1.87,-0.56,-1.97,0.00
1.747,-1.18,0.50,1.09,-6.06,9.97,8.90,-1.43,-0.92,-1.79,0.00
1.748,-1.18,0.50,1.09,-6.44,12.57,7.33,-1.43,-0.92,-1.79,0.00
1.749,-1.16,0.73,0.88,-6.44,12.57,7.33,-1.43,-0.92,-1.79,0.00
1.75,-1.16,0.73,0.88,-6.44,12.57,7.33,-0.99,-1.37,-1.43,0.00
1.751,-1.16,0.73,0.88,-6.33,14.87,5.32,-0.99,-1.37,-1.43,0.00
1.757,-1.13,0.96,0.61,-6.33,14.87,5.32,-0.99,-1.37,-1.43,0.00
1.759,-1.13,0.96,0.61,-6.33,14.87,5.32,-0.57,-1.76,-0.96,0.00
1.76,-1.13,0.96,0.61,-6.18,17.21,2.61,-0.57,-1.76,-0.96,0.00
1.766,-1.07,1.21,0.38,-6.18,17.21,2.61,-0.57,-1.76,-0.96,0.00
1.767,-1.07,1.21,0.38,-6.18,17.21,2.61,-0.18,-1.99,-0.44,0.00
1.768,-1.07,1.21,0.38,-5.72,19.76,0.25,-0.18,-1.99,-0.44,0.00
1.776,-0.98,1.49,0.24,-5.72,19.76,0.25,-0.18,-1.99,-0.44,0.00
1.778,-0.98,1.49,0.24,-5.72,19.76,0.25,0.18,-1.99,0.09,0.00
1.779,-0.98,1.49,0.24,-4.89,22.45,-1.25,0.18,-1.99,0.09,0.00
1.786,-0.88,1.73,0.25,-4.89,22.45,-1.25,0.18,-1.99,0.09,0.00
1.787,-0.88,1.73,0.25,-4.89,22.45,-1.25,0.51,-1.73,0.57,0.00
1.788,-0.88,1.73,0.25,-3.92,24.75,-1.23,0.51,-1.73,0.57,0.00
1.797,-0.75,1.84,0.35,-3.92,24.75,-1.23,0.51,-1.73,0.57,0.00
1.798,-0.75,1.84,0.35,-3.92,24.75,-1.23,0.84,-1.25,1.00,0.00
1.798,-0.75,1.84,0.35,-2.66,25.72,-0.34,0.84,-1.25,1.00,0.00
1.813,-0.64,1.76,0.54,-2.66,25.72,-0.34,0.84,-1.25,1.00,0.00
1.814,-0.64,1.76,0.54,-2.66,25.72,-0.34,1.15,-0.69,1.37,0.00
1.815,-0.64,1.76,0.54,-1.45,24.87,1.40,1.15,-0.69,1.37,0.00
1.818,-0.60,1.53,0.68,-1.45,24.87,1.40,1.15,-0.69,1.37,0.00
1.82,-0.60,1.53,0.68,-1.45,24.87,1.40,1.48,-0.19,1.61,0.00
1.821,-0.60,1.53,0.68,-1.03,22.45,2.57,1.48,-0.19,1.61,0.00
1.84,-0.72,1.32,0.69,-1.03,22.45,2.57,1.48,-0.19,1.61,0.00
1.841,-0.72,1.32,0.69,-1.03,22.45,2.57,1.88,0.23,1.74,0.00
1.842,-0.72,1.32,0.69,-2.02,20.24,2.56,1.88,0.23,1.74,0.00
1.843,-0.90,1.15,0.72,-2.02,20.24,2.56,1.88,0.23,1.74,0.00
1.844,-0.90,1.15,0.72,-2.02,20.24,2.56,2.35,0.55,1.85,0.00
1.845,-0.90,1.15,0.72,-3.65,18.33,2.69,2.35,0.55,1.85,0.00
1.851,-1.06,1.00,0.70,-3.65,18.33,2.69,2.35,0.55,1.85,0.00
1.852,-1.06,1.00,0.70,-3.65,18.33,2.69,2.85,0.79,2.06,0.00
1.853,-1.06,1.00,0.70,-4.98,16.65,2.38,2.85,0.79,2.06,0.00
1.869,-1.12,0.86,0.64,-4.98,16.65,2.38,2.85,0.79,2.06,0.00
1.87,-1.12,0.86,0.64,-4.98,16.65,2.38,3.36,0.98,2.40,0.00
1.871,-1.12,0.86,0.64,-5.39,15.04,1.66,3.36,0.98,2.40,0.00
1.873,-1.12,0.69,0.72,-5.39,15.04,1.66,3.36,0.98,2.40,0.00
1.874,-1.12,0.69,0.72,-5.39,15.04,1.66,3.78,1.15,2.78,0.00
1.875,-1.12,0.69,0.72,-5.19,13.03,2.22,3.78,1.15,2.78,0.00
1.888,-1.18,0.49,0.90,-5.19,13.03,2.22,3.78,1.15,2.78,0.00
1.889,-1.18,0.49,0.90,-5.19,13.03,2.22,4.11,1.36,3.12,0.00
1.89,-1.18,0.49,0.90,-5.53,10.69,3.77,4.11,1.36,3.12,0.00
1.892,-1.33,0.30,1.04,-5.53,10.69,3.77,4.11,1.36,3.12,0.00
1.893,-1.33,0.30,1.04,-5.53,10.69,3.77,4.46,1.67,3.44,0.00
1.894,-1.33,0.30,1.04,-6.70,8.36,5.02,4.46,1.67,3.44,0.00
1.903,-1.56,0.07,1.19,-6.70,8.36,5.02,4.46,1.67,3.44,0.00
1.905,-1.56,0.07,1.19,-6.70,8.36,5.02,4.77,2.05,3.81,0.00
1.906,-1.56,0.07,1.19,-8.65,5.59,6.37,4.77,2.05,3.81,0.00
1.921,-1.87,-0.18,1.46,-8.65,5.59,6.37,4.77,2.05,3.81,0.00
1.922,-1.87,-0.18,1.46,-8.65,5.59,6.37,4.95,2.46,4.23,0.00
1.924,-1.87,-0.18,1.46,-11.37,2.59,9.02,4.95,2.46,4.23,0.00
1.925,-2.21,-0.43,1.70,-11.37,2.59,9.02,4.95,2.46,4.23,0.00
1.927,-2.21,-0.43,1.70,-11.37,2.59,9.02,5.07,2.89,4.66,0.00
1.928,-2.21,-0.43,1.70,-14.29,-0.50,11.35,5.07,2.89,4.66,0.00
1.93,-2.64,-0.81,1.97,-14.29,-0.50,11.35,5.07,2.89,4.66,0.00
1.931,-2.64,-0.81,1.97,-14.29,-0.50,11.35,5.08,3.31,5.03,0.00
1.932,-2.64,-0.81,1.97,-18.17,-4.89,14.03,5.08,3.31,5.03,0.00
1.944,-3.17,-1.31,2.18,-18.17,-4.89,14.03,5.08,3.31,5.03,0.00
1.945,-3.17,-1.31,2.18,-18.17,-4.89,14.03,4.93,3.73,5.18,0.00
1.947,-3.17,-1.31,2.18,-23.02,-10.39,16.30,4.93,3.73,5.18,0.00
1.974,-3.55,-1.65,2.32,-23.02,-10.39,16.30,4.93,3.73,5.18,0.00
1.975,-3.55,-1.65,2.32,-23.02,-10.39,16.30,4.69,4.11,5.11,0.00
1.976,-3.55,-1.65,2.32,-26.46,-14.41,17.92,4.69,4.11,5.11,0.00
1.978,-3.42,-1.92,2.25,-26.46,-14.41,17.92,4.69,4.11,5.11,0.00
1.979,-3.42,-1.92,2.25,-26.46,-14.41,17.92,4.53,4.05,5.00,0.00
1.98,-3.42,-1.92,2.25,-24.94,-17.73,17.52,4.53,4.05,5.00,0.00
1.982,-2.85,-2.12,2.01,-24.94,-17.73,17.52,4.53,4.05,5.00,0.00
1.983,-2.85,-2.12,2.01,-24.94,-17.73,17.52,4.48,3.05,4.88,0.00
1.984,-2.85,-2.12,2.01,-19.20,-20.32,15.38,4.48,3.05,4.88,0.00
1.985,-2.39,-2.04,1.69,-19.20,-20.32,15.38,4.48,3.05,4.88,0.00
1.986,-2.39,-2.04,1.69,-19.20,-20.32,15.38,4.39,1.74,4.39,0.00
1.987,-2.39,-2.04,1.69,-14.55,-20.14,12.33,4.39,1.74,4.39,0.00
1.988,-1.89,-1.91,1.39,-14.55,-20.14,12.33,4.39,1.74,4.39,0.00
1.989,-1.89,-1.91,1.39,-14.55,-20.14,12.33,4.25,0.93,3.61,0.00
1.99,-1.89,-1.91,1.39,-9.61,-19.34,9.53,4.25,0.93,3.61,0.00
1.997,-1.36,-1.79,1.16,-9.61,-19.34,9.53,4.25,0.93,3.61,0.00
1.998,-1.36,-1.79,1.16,-9.61,-19.34,9.53,4.04,0.64,2.94,0.00
1.999,-1.36,-1.79,1.16,-4.40,-18.53,7.41,4.04,0.64,2.94,0.00
2.009,-0.97,-1.63,0.96,-4.40,-18.53,7.41,4.04,0.64,2.94,0.00
2.01,-0.97,-1.63,0.96,-4.40,-18.53,7.41,3.75,0.55,2.32,0.00
2.011,-0.97,-1.63,0.96,-0.63,-17.36,5.51,3.75,0.55,2.32,0.00
2.02,-0.61,-1.41,0.72,-0.63,-17.36,5.51,3.75,0.55,2.32,0.00
2.021,-0.61,-1.41,0.72,-0.63,-17.36,5.51,3.38,0.50,1.66,0.00
2.021,-0.61,-1.41,0.72,2.92,-15.44,3.28,3.38,0.50,1.66,0.00
2.033,-0.26,-1.19,0.46,2.92,-15.44,3.28,3.38,0.50,1.66,0.00
2.034,-0.26,-1.19,0.46,2.92,-15.44,3.28,2.95,0.52,1.09,0.00
2.035,-0.26,-1.19,0.46,6.35,-13.52,0.83,2.95,0.52,1.09,0.00
2.056,0.06,-1.07,0.25,6.35,-13.52,0.83,2.95,0.52,1.09,0.00
2.057,0.06,-1.07,0.25,6.35,-13.52,0.83,2.50,0.57,0.57,0.00
2.058,0.06,-1.07,0.25,9.44,-12.50,-1.14,2.50,0.57,0.57,0.00
2.06,0.27,-0.96,0.17,9.44,-12.50,-1.14,2.50,0.57,0.57,0.00
2.06,0.27,-0.96,0.17,9.44,-12.50,-1.14,2.07,0.57,0.04,0.00
2.061,0.27,-0.96,0.17,11.58,-11.54,-1.89,2.07,0.57,0.04,0.00
2.063,0.36,-0.92,0.09,11.58,-11.54,-1.89,2.07,0.57,0.04,0.00
2.064,0.36,-0.92,0.09,11.58,-11.54,-1.89,1.69,0.47,-0.53,0.00
2.065,0.36,-0.92,0.09,12.48,-11.09,-2.54,1.69,0.47,-0.53,0.00
2.071,0.44,-0.91,0.02,12.48,-11.09,-2.54,1.69,0.47,-0.53,0.00
2.072,0.44,-0.91,0.02,12.48,-11.09,-2.54,1.36,0.32,-1.05,0.00
2.073,0.44,-0.91,0.02,13.24,-11.01,-3.23,1.36,0.32,-1.05,0.00
2.086,0.54,-0.91,-0.08,13.24,-11.01,-3.23,1.36,0.32,-1.05,0.00
2.088,0.54,-0.91,-0.08,13.24,-11.01,-3.23,1.07,0.10,-1.44,0.00
2.089,0.54,-0.91,-0.08,14.33,-10.92,-4.11,1.07,0.10,-1.44,0.00
2.09,0.64,-0.91,-0.15,14.33,-10.92,-4.11,1.07,0.10,-1.44,0.00
2.091,0.64,-0.91,-0.15,14.33,-10.92,-4.11,0.79,-0.22,-1.74,0.00
2.092,0.64,-0.91,-0.15,15.28,-10.73,-4.82,0.79,-0.22,-1.74,0.00
2.1,0.72,-0.88,-0.19,15.28,-10.73,-4.82,0.79,-0.22,-1.74,0.00
2.101,0.72,-0.88,-0.19,15.28,-10.73,-4.82,0.44,-0.64,-1.98,0.00
2.101,0.72,-0.88,-0.19,16.06,-10.27,-5.25,0.44,-0.64,-1.98,0.00
2.11,0.78,-0.84,-0.21,16.06,-10.27,-5.25,0.44,-0.64,-1.98,0.00
2.111,0.78,-0.84,-0.21,16.06,-10.27,-5.25,0.04,-1.06,-2.16,0.00
2.112,0.78,-0.84,-0.21,16.72,-9.68,-5.55,0.04,-1.06,-2.16,0.00
2.119,0.85,-0.80,-0.18,16.72,-9.68,-5.55,0.04,-1.06,-2.16,0.00
2.12,0.85,-0.80,-0.18,16.72,-9.68,-5.55,-0.43,-1.43,-2.27,0.00
2.121,0.85,-0.80,-0.18,17.33,-9.09,-5.44,-0.43,-1.43,-2.27,0.00
2.13,0.79,-0.78,-0.13,17.33,-9.09,-5.44,-0.43,-1.43,-2.27,0.00
2.131,0.79,-0.78,-0.13,17.33,-9.09,-5.44,-0.91,-1.72,-2.42,0.00
2.131,0.79,-0.78,-0.13,16.68,-8.61,-5.11,-0.91,-1.72,-2.42,0.00
2.147,0.72,-0.79,-0.11,16.68,-8.61,-5.11,-0.91,-1.72,-2.42,0.00
2.149,0.72,-0.79,-0.11,16.68,-8.61,-5.11,-1.36,-1.91,-2.55,0.00
2.15,0.72,-0.79,-0.11,16.00,-8.49,-5.04,-1.36,-1.91,-2.55,0.00
2.152,0.65,-0.77,-0.15,16.00,-8.49,-5.04,-1.36,-1.91,-2.55,0.00
2.153,0.65,-0.77,-0.15,16.00,-8.49,-5.04,-1.75,-2.05,-2.62,0.00
2.154,0.65,-0.77,-0.15,15.22,-7.95,-5.61,-1.75,-2.05,-2.62,0.00
2.176,0.61,-0.70,-0.21,15.22,-7.95,-5.61,-1.75,-2.05,-2.62,0.00
2.178,0.61,-0.70,-0.21,15.22,-7.95,-5.61,-2.13,-2.20,-2.60,0.00
2.179,0.61,-0.70,-0.21,14.75,-6.96,-6.42,-2.13,-2.20,-2.60,0.00
2.18,0.54,-0.63,-0.24,14.75,-6.96,-6.42,-2.13,-2.20,-2.60,0.00
2.181,0.54,-0.63,-0.24,14.75,-6.96,-6.42,-2.51,-2.26,-2.46,0.00
2.182,0.54,-0.63,-0.24,13.92,-5.92,-6.93,-2.51,-2.26,-2.46,0.00
2.185,0.44,-0.61,-0.27,13.92,-5.92,-6.93,-2.51,-2.26,-2.46,0.00
2.187,0.44,-0.61,-0.27,13.92,-5.92,-6.93,-2.83,-2.19,-2.24,0.00
2.188,0.44,-0.61,-0.27,12.84,-5.36,-7.44,-2.83,-2.19,-2.24,0.00
2.194,0.32,-0.68,-0.24,12.84,-5.36,-7.44,-2.83,-2.19,-2.24,0.00
2.195,0.32,-0.68,-0.24,12.84,-5.36,-7.44,-3.09,-1.92,-1.93,0.00
2.197,0.32,-0.68,-0.24,11.55,-5.78,-7.25,-3.09,-1.92,-1.93,0.00
2.199,0.07,-0.80,-0.00,11.55,-5.78,-7.25,-3.09,-1.92,-1.93,0.00
2.2,0.07,-0.80,-0.00,11.55,-5.78,-7.25,-3.31,-1.35,-1.63,0.00
2.201,0.07,-0.80,-0.00,9.02,-6.65,-5.00,-3.31,-1.35,-1.63,0.00
2.211,-0.27,-0.92,0.34,9.02,-6.65,-5.00,-3.31,-1.35,-1.63,0.00
2.212,-0.27,-0.92,0.34,9.02,-6.65,-5.00,-3.47,-0.64,-1.50,0.00
2.214,-0.27,-0.92,0.34,5.65,-7.47,-1.66,-3.47,-0.64,-1.50,0.00
2.22,-0.61,-1.02,0.62,5.65,-7.47,-1.66,-3.47,-0.64,-1.50,0.00
2.221,-0.61,-1.02,0.62,5.65,-7.47,-1.66,-3.51,-0.06,-1.41,0.00
2.222,-0.61,-1.02,0.62,2.31,-8.19,1.17,-3.51,-0.06,-1.41,0.00
2.231,-1.05,-1.12,0.93,2.31,-8.19,1.17,-3.51,-0.06,-1.41,0.00
2.232,-1.05,-1.12,0.93,2.31,-8.19,1.17,-3.56,0.30,-1.35,0.00
2.233,-1.05,-1.12,0.93,-2.05,-8.88,4.29,-3.56,0.30,-1.35,0.00
2.246,-1.89,-1.25,1.31,-2.05,-8.88,4.29,-3.56,0.30,-1.35,0.00
2.248,-1.89,-1.25,1.31,-2.05,-8.88,4.29,-3.89,0.52,-1.38,0.00
2.248,-1.89,-1.25,1.31,-10.28,-9.83,8.18,-3.89,0.52,-1.38,0.00
2.251,-2.89,-1.38,1.76,-10.28,-9.83,8.18,-3.89,0.52,-1.38,0.00
2.252,-2.89,-1.38,1.76,-10.28,-9.83,8.18,-4.39,0.72,-1.55,0.00
2.252,-2.89,-1.38,1.76,-20.10,-10.79,12.74,-4.39,0.72,-1.55,0.00
2.27,-3.35,-1.47,2.21,-20.10,-10.79,12.74,-4.39,0.72,-1.55,0.00
2.271,-3.35,-1.47,2.21,-20.10,-10.79,12.74,-4.60,0.83,-1.71,0.00
2.272,-3.35,-1.47,2.21,-24.53,-11.34,17.34,-4.60,0.83,-1.71,0.00
2.274,-3.14,-1.47,2.26,-24.53,-11.34,17.34,-4.60,0.83,-1.71,0.00
2.274,-3.14,-1.47,2.26,-24.53,-11.34,17.34,-4.33,0.10,-1.73,0.00
2.275,-3.14,-1.47,2.26,-22.55,-11.04,17.92,-4.33,0.10,-1.73,0.00
2.28,-2.72,-1.29,2.00,-22.55,-11.04,17.92,-4.33,0.10,-1.73,0.00
2.28,-2.72,-1.29,2.00,-22.55,-11.04,17.92,-3.95,-1.58,-1.72,0.00
2.281,-2.72,-1.29,2.00,-18.56,-8.92,15.44,-3.95,-1.58,-1.72,0.00
2.29,-2.40,-1.09,1.63,-18.56,-8.92,15.44,-3.95,-1.58,-1.72,0.00
2.292,-2.40,-1.09,1.63,-18.56,-8.92,15.44,-3.66,-3.06,-1.67,0.00
2.293,-2.40,-1.09,1.63,-15.64,-6.67,11.69,-3.66,-3.06,-1.67,0.00
2.3,-2.18,-0.84,1.34,-15.64,-6.67,11.69,-3.66,-3.06,-1.67,0.00
2.301,-2.18,-0.84,1.34,-15.64,-6.67,11.69,-3.40,-3.44,-1.61,0.00
2.302,-2.18,-0.84,1.34,-13.69,-3.97,8.68,-3.40,-3.44,-1.61,0.00
2.31,-1.93,-0.59,1.21,-13.69,-3.97,8.68,-3.40,-3.44,-1.61,0.00
2.312,-1.93,-0.59,1.21,-13.69,-3.97,8.68,-3.18,-2.87,-1.51,0.00
2.312,-1.93,-0.59,1.21,-11.47,-1.23,7.42,-3.18,-2.87,-1.51,0.00
2.32,-1.74,-0.39,1.28,-11.47,-1.23,7.42,-3.18,-2.87,-1.51,0.00
2.32,-1.74,-0.39,1.28,-11.47,-1.23,7.42,-3.00,-1.91,-1.37,0.00
2.321,-1.74,-0.39,1.28,-9.74,0.93,8.08,-3.00,-1.91,-1.37,0.00
2.33,-1.66,-0.26,1.31,-9.74,0.93,8.08,-3.00,-1.91,-1.37,0.00
2.331,-1.66,-0.26,1.31,-9.74,0.93,8.08,-2.80,-1.14,-1.32,0.00
2.332,-1.66,-0.26,1.31,-9.05,2.41,8.40,-2.80,-1.14,-1.32,0.00
2.34,-1.59,-0.09,1.18,-9.05,2.41,8.40,-2.80,-1.14,-1.32,0.00
2.344,-1.59,-0.09,1.18,-9.05,2.41,8.40,-2.55,-0.82,-1.35,0.00
2.345,-1.59,-0.09,1.18,-8.55,4.35,7.20,-2.55,-0.82,-1.35,0.00
2.35,-1.50,0.12,1.01,-8.55,4.35,7.20,-2.55,-0.82,-1.35,0.00
2.351,-1.50,0.12,1.01,-8.55,4.35,7.20,-2.32,-0.79,-1.36,0.00
2.352,-1.50,0.12,1.01,-7.71,6.57,5.65,-2.32,-0.79,-1.36,0.00
2.361,-1.33,0.31,0.85,-7.71,6.57,5.65,-2.32,-0.79,-1.36,0.00
2.362,-1.33,0.31,0.85,-7.71,6.57,5.65,-2.13,-0.92,-1.28,0.00
2.363,-1.33,0.31,0.85,-6.16,8.59,4.07,-2.13,-0.92,-1.28,0.00
2.371,-1.13,0.44,0.76,-6.16,8.59,4.07,-2.13,-0.92,-1.28,0.00
2.372,-1.13,0.44,0.76,-6.16,8.59,4.07,-1.96,-1.19,-1.08,0.00
2.373,-1.13,0.44,0.76,-4.35,10.01,3.26,-1.96,-1.19,-1.08,0.00
2.383,-0.97,0.53,0.67,-4.35,10.01,3.26,-1.96,-1.19,-1.08,0.00
2.385,-0.97,0.53,0.67,-4.35,10.01,3.26,-1.78,-1.53,-0.78,0.00
2.386,-0.97,0.53,0.67,-2.90,11.05,2.35,-1.78,-1.53,-0.78,0.00
2.412,-0.85,0.62,0.54,-2.90,11.05,2.35,-1.78,-1.53,-0.78,0.00
2.414,-0.85,0.62,0.54,-2.90,11.05,2.35,-1.56,-1.78,-0.41,0.00
2.415,-0.85,0.62,0.54,-1.81,12.00,1.03,-1.56,-1.78,-0.41,0.00
2.416,-0.75,0.71,0.46,-1.81,12.00,1.03,-1.56,-1.78,-0.41,0.00
2.417,-0.75,0.71,0.46,-1.81,12.00,1.03,-1.32,-1.85,-0.02,0.00
2.418,-0.75,0.71,0.46,-0.93,13.00,0.20,-1.32,-1.85,-0.02,0.00
2.419,-0.68,0.82,0.34,-0.93,13.00,0.20,-1.32,-1.85,-0.02,0.00
2.42,-0.68,0.82,0.34,-0.93,13.00,0.20,-1.03,-1.76,0.37,0.00
2.421,-0.68,0.82,0.34,-0.21,14.10,-1.00,-1.03,-1.76,0.37,0.00
2.423,-0.66,0.98,0.28,-0.21,14.10,-1.00,-1.03,-1.76,0.37,0.00
2.424,-0.66,0.98,0.28,-0.21,14.10,-1.00,-0.69,-1.53,0.76,0.00
2.425,-0.66,0.98,0.28,-0.06,15.63,-1.61,-0.69,-1.53,0.76,0.00
2.43,-0.54,1.10,0.23,-0.06,15.63,-1.61,-0.69,-1.53,0.76,0.00
2.432,-0.54,1.10,0.23,-0.06,15.63,-1.61,-0.34,-1.27,1.11,0.00
2.433,-0.54,1.10,0.23,1.15,16.77,-2.20,-0.34,-1.27,1.11,0.00
2.441,-0.39,1.21,0.26,1.15,16.77,-2.20,-0.34,-1.27,1.11,0.00
2.443,-0.39,1.21,0.26,1.15,16.77,-2.20,-0.04,-0.97,1.34,0.00
2.444,-0.39,1.21,0.26,2.60,17.70,-1.92,-0.04,-0.97,1.34,0.00
2.452,-0.31,1.27,0.29,2.60,17.70,-1.92,-0.04,-0.97,1.34,0.00
2.453,-0.31,1.27,0.29,2.60,17.70,-1.92,0.23,-0.61,1.42,0.00
2.454,-0.31,1.27,0.29,3.42,18.17,-1.67,0.23,-0.61,1.42,0.00
2.462,-0.39,1.27,0.31,3.42,18.17,-1.67,0.23,-0.61,1.42,0.00
2.464,-0.39,1.27,0.31,3.42,18.17,-1.67,0.49,-0.27,1.42,0.00
2.464,-0.39,1.27,0.31,2.75,18.08,-1.60,0.49,-0.27,1.42,0.00
2.471,-0.54,1.24,0.36,2.75,18.08,-1.60,0.49,-0.27,1.42,0.00
2.472,-0.54,1.24,0.36,2.75,18.08,-1.60,0.76,0.04,1.42,0.00
2.473,-0.54,1.24,0.36,1.39,17.68,-1.11,0.76,0.04,1.42,0.00
2.484,-0.63,1.19,0.40,1.39,17.68,-1.11,0.76,0.04,1.42,0.00
2.485,-0.63,1.19,0.40,1.39,17.68,-1.11,1.12,0.36,1.46,0.00
2.486,-0.63,1.19,0.40,0.58,17.05,-0.75,1.12,0.36,1.46,0.00
2.507,-0.65,1.13,0.42,0.58,17.05,-0.75,1.12,0.36,1.46,0.00
2.508,-0.65,1.13,0.42,0.58,17.05,-0.75,1.60,0.59,1.55,0.00
2.509,-0.65,1.13,0.42,0.46,16.23,-0.57,1.60,0.59,1.55,0.00
2.51,-0.69,1.05,0.44,0.46,16.23,-0.57,1.60,0.59,1.55,0.00
2.511,-0.69,1.05,0.44,0.46,16.23,-0.57,2.14,0.64,1.66,0.00
2.512,-0.69,1.05,0.44,0.24,15.24,-0.48,2.14,0.64,1.66,0.00
2.513,-0.67,0.92,0.42,0.24,15.24,-0.48,2.14,0.64,1.66,0.00
2.513,-0.67,0.92,0.42,0.24,15.24,-0.48,2.69,0.58,1.80,0.00
2.514,-0.67,0.92,0.42,0.53,13.76,-0.80,2.69,0.58,1.80,0.00
2.521,-0.73,0.79,0.51,0.53,13.76,-0.80,2.69,0.58,1.80,0.00
2.523,-0.73,0.79,0.51,0.53,13.76,-0.80,3.16,0.53,1.93,0.00
2.524,-0.73,0.79,0.51,0.01,12.14,0.05,3.16,0.53,1.93,0.00
2.532,-0.87,0.64,0.59,0.01,12.14,0.05,3.16,0.53,1.93,0.00
2.533,-0.87,0.64,0.59,0.01,12.14,0.05,3.61,0.64,2.05,0.00
2.534,-0.87,0.64,0.59,-1.20,10.39,0.69,3.61,0.64,2.05,0.00
2.542,-0.98,0.48,0.70,-1.20,10.39,0.69,3.61,0.64,2.05,0.00
2.544,-0.98,0.48,0.70,-1.20,10.39,0.69,4.05,0.98,2.21,0.00
2.544,-0.98,0.48,0.70,-2.18,8.44,1.69,4.05,0.98,2.21,0.00
2.552,-1.20,0.33,0.90,-2.18,8.44,1.69,4.05,0.98,2.21,0.00
2.553,-1.20,0.33,0.90,-2.18,8.44,1.69,4.41,1.46,2.37,0.00
2.553,-1.20,0.33,0.90,-4.10,6.53,3.56,4.41,1.46,2.37,0.00
2.563,-1.49,0.14,1.06,-4.10,6.53,3.56,4.41,1.46,2.37,0.00
2.564,-1.49,0.14,1.06,-4.10,6.53,3.56,4.67,2.00,2.51,0.00
2.565,-1.49,0.14,1.06,-6.76,4.25,5.14,4.67,2.00,2.51,0.00
2.582,-1.83,-0.14,1.30,-6.76,4.25,5.14,4.67,2.00,2.51,0.00
2.583,-1.83,-0.14,1.30,-6.76,4.25,5.14,4.77,2.63,2.63,0.00
2.584,-1.83,-0.14,1.30,-9.97,1.07,7.61,4.77,2.63,2.63,0.00
2.585,-2.32,-0.62,1.59,-9.97,1.07,7.61,4.77,2.63,2.63,0.00
2.586,-2.32,-0.62,1.59,-9.97,1.07,7.61,4.66,3.44,2.61,0.00
2.587,-2.32,-0.62,1.59,-14.49,-4.15,10.67,4.66,3.44,2.61,0.00
2.611,-2.93,-1.09,1.80,-14.49,-4.15,10.67,4.66,3.44,2.61,0.00
2.613,-2.93,-1.09,1.80,-14.49,-4.15,10.67,4.48,4.36,2.42,0.00
2.614,-2.93,-1.09,1.80,-20.20,-9.20,12.94,4.48,4.36,2.42,0.00
2.616,-3.36,-1.48,1.97,-20.20,-9.20,12.94,4.48,4.36,2.42,0.00
2.617,-3.36,-1.48,1.97,-20.20,-9.20,12.94,4.26,4.96,2.25,0.00
2.618,-3.36,-1.48,1.97,-24.15,-13.37,14.97,4.26,4.96,2.25,0.00
2.619,-3.34,-1.73,2.05,-24.15,-13.37,14.97,4.26,4.96,2.25,0.00
2.62,-3.34,-1.73,2.05,-24.15,-13.37,14.97,4.02,4.63,2.22,0.00
2.621,-3.34,-1.73,2.05,-23.77,-16.15,16.20,4.02,4.63,2.22,0.00
2.626,-3.10,-1.79,2.03,-23.77,-16.15,16.20,4.02,4.63,2.22,0.00
2.628,-3.10,-1.79,2.03,-23.77,-16.15,16.20,3.76,3.46,2.05,0.00
2.628,-3.10,-1.79,2.03,-21.30,-17.07,16.31,3.76,3.46,2.05,0.00
2.633,-2.60,-1.73,1.87,-21.30,-17.07,16.31,3.76,3.46,2.05,0.00
2.634,-2.60,-1.73,1.87,-21.30,-17.07,16.31,3.56,2.18,1.55,0.00
2.635,-2.60,-1.73,1.87,-16.32,-16.74,14.91,3.56,2.18,1.55,0.00
2.644,-2.03,-1.53,1.55,-16.32,-16.74,14.91,3.56,2.18,1.55,0.00
2.645,-2.03,-1.53,1.55,-16.32,-16.74,14.91,3.40,1.10,1.11,0.00
2.646,-2.03,-1.53,1.55,-10.68,-15.07,11.84,3.40,1.10,1.11,0.00
2.654,-1.51,-1.31,1.16,-10.68,-15.07,11.84,3.40,1.10,1.11,0.00
2.655,-1.51,-1.31,1.16,-10.68,-15.07,11.84,3.22,0.33,0.85,0.00
2.656,-1.51,-1.31,1.16,-5.61,-13.12,8.07,3.22,0.33,0.85,0.00
2.664,-1.05,-1.16,0.79,-5.61,-13.12,8.07,3.22,0.33,0.85,0.00
2.665,-1.05,-1.16,0.79,-5.61,-13.12,8.07,2.94,0.02,0.67,0.00
2.666,-1.05,-1.16,0.79,-1.07,-11.75,4.45,2.94,0.02,0.67,0.00
2.682,-0.70,-0.93,0.54,-1.07,-11.75,4.45,2.94,0.02,0.67,0.00
2.684,-0.70,-0.93,0.54,-1.07,-11.75,4.45,2.56,0.05,0.45,0.00
2.687,-0.70,-0.93,0.54,2.34,-9.66,2.06,2.56,0.05,0.45,0.00
2.688,-0.49,-0.70,0.51,2.34,-9.66,2.06,2.56,0.05,0.45,0.00
2.688,-0.49,-0.70,0.51,2.34,-9.66,2.06,2.10,0.23,0.21,0.00
2.689,-0.49,-0.70,0.51,4.43,-7.48,1.72,2.10,0.23,0.21,0.00
2.712,-0.33,-0.60,0.49,4.43,-7.48,1.72,2.10,0.23,0.21,0.00
2.714,-0.33,-0.60,0.49,4.43,-7.48,1.72,1.66,0.38,0.00,0.00
2.715,-0.33,-0.60,0.49,6.05,-6.54,1.65,1.66,0.38,0.00,0.00
2.716,-0.15,-0.57,0.43,6.05,-6.54,1.65,1.66,0.38,0.00,0.00
2.717,-0.15,-0.57,0.43,6.05,-6.54,1.65,1.32,0.36,-0.16,0.00
2.718,-0.15,-0.57,0.43,7.83,-6.30,1.08,1.32,0.36,-0.16,0.00
2.719,0.06,-0.59,0.30,7.83,-6.30,1.08,1.32,0.36,-0.16,0.00
2.72,0.06,-0.59,0.30,7.83,-6.30,1.08,1.06,0.23,-0.32,0.00
2.721,0.06,-0.59,0.30,9.88,-6.47,-0.13,1.06,0.23,-0.32,0.00
2.727,0.28,-0.59,0.10,9.88,-6.47,-0.13,1.06,0.23,-0.32,0.00
2.729,0.28,-0.59,0.10,9.88,-6.47,-0.13,0.84,0.05,-0.46,0.00
2.73,0.28,-0.59,0.10,11.99,-6.48,-2.08,0.84,0.05,-0.46,0.00
2.734,0.48,-0.57,-0.10,11.99,-6.48,-2.08,0.84,0.05,-0.46,0.00
2.735,0.48,-0.57,-0.10,11.99,-6.48,-2.08,0.61,-0.13,-0.58,0.00
2.736,0.48,-0.57,-0.10,13.96,-6.20,-4.08,0.61,-0.13,-0.58,0.00
2.744,0.64,-0.56,-0.11,13.96,-6.20,-4.08,0.61,-0.13,-0.58,0.00
2.746,0.64,-0.56,-0.11,13.96,-6.20,-4.08,0.31,-0.33,-0.66,0.00
2.747,0.64,-0.56,-0.11,15.56,-6.09,-4.19,0.31,-0.33,-0.66,0.00
2.755,0.78,-0.58,-0.08,15.56,-6.09,-4.19,0.31,-0.33,-0.66,0.00
2.756,0.78,-0.58,-0.08,15.56,-6.09,-4.19,-0.02,-0.61,-0.73,0.00
2.757,0.78,-0.58,-0.08,16.94,-6.17,-4.03,-0.02,-0.61,-0.73,0.00
2.765,0.82,-0.56,-0.10,16.94,-6.17,-4.03,-0.02,-0.61,-0.73,0.00
2.766,0.82,-0.56,-0.10,16.94,-6.17,-4.03,-0.34,-1.06,-0.89,0.00
2.767,0.82,-0.56,-0.10,17.27,-5.92,-4.24,-0.34,-1.06,-0.89,0.00
2.776,0.82,-0.55,-0.12,17.27,-5.92,-4.24,-0.34,-1.06,-0.89,0.00
2.777,0.82,-0.55,-0.12,17.27,-5.92,-4.24,-0.69,-1.51,-1.08,0.00
2.778,0.82,-0.55,-0.12,17.21,-5.70,-4.58,-0.69,-1.51,-1.08,0.00
2.785,0.80,-0.55,-0.11,17.21,-5.70,-4.58,-0.69,-1.51,-1.08,0.00
2.786,0.80,-0.55,-0.11,17.21,-5.70,-4.58,-1.07,-1.82,-1.29,0.00
2.787,0.80,-0.55,-0.11,16.91,-5.50,-4.67,-1.07,-1.82,-1.29,0.00
2.795,0.80,-0.60,-0.16,16.91,-5.50,-4.67,-1.07,-1.82,-1.29,0.00
2.796,0.80,-0.60,-0.16,16.91,-5.50,-4.67,-1.40,-1.98,-1.54,0.00
2.797,0.80,-0.60,-0.16,16.92,-5.88,-5.39,-1.40,-1.98,-1.54,0.00
2.806,0.75,-0.60,-0.24,16.92,-5.88,-5.39,-1.40,-1.98,-1.54,0.00
2.807,0.75,-0.60,-0.24,16.92,-5.88,-5.39,-1.71,-2.08,-1.80,0.00
2.808,0.75,-0.60,-0.24,16.26,-5.65,-6.30,-1.71,-2.08,-1.80,0.00
2.82,0.62,-0.54,-0.30,16.26,-5.65,-6.30,-1.71,-2.08,-1.80,0.00
2.821,0.62,-0.54,-0.30,16.26,-5.65,-6.30,-2.05,-2.18,-1.99,0.00
2.822,0.62,-0.54,-0.30,14.91,-4.74,-7.14,-2.05,-2.18,-1.99,0.00
2.856,0.50,-0.48,-0.30,14.91,-4.74,-7.14,-2.05,-2.18,-1.99,0.00
2.858,0.50,-0.48,-0.30,14.91,-4.74,-7.14,-2.34,-2.20,-2.01,0.00
2.859,0.50,-0.48,-0.30,13.67,-3.89,-7.33,-2.34,-2.20,-2.01,0.00
2.86,0.43,-0.49,-0.36,13.67,-3.89,-7.33,-2.34,-2.20,-2.01,0.00
2.861,0.43,-0.49,-0.36,13.67,-3.89,-7.33,-2.51,-2.09,-1.86,0.00
2.862,0.43,-0.49,-0.36,12.89,-3.75,-8.05,-2.51,-2.09,-1.86,0.00
2.864,0.31,-0.55,-0.38,12.89,-3.75,-8.05,-2.51,-2.09,-1.86,0.00
2.865,0.31,-0.55,-0.38,12.89,-3.75,-8.05,-2.62,-1.79,-1.64,0.00
2.866,0.31,-0.55,-0.38,11.61,-4.01,-8.38,-2.62,-1.79,-1.64,0.00
2.867,0.09,-0.69,-0.21,11.61,-4.01,-8.38,-2.62,-1.79,-1.64,0.00
2.868,0.09,-0.69,-0.21,11.61,-4.01,-8.38,-2.72,-1.24,-1.44,0.00
2.868,0.09,-0.69,-0.21,9.32,-5.17,-6.77,-2.72,-1.24,-1.44,0.00
2.869,-0.29,-0.87,0.10,9.32,-5.17,-6.77,-2.72,-1.24,-1.44,0.00
2.87,-0.29,-0.87,0.10,9.32,-5.17,-6.77,-2.78,-0.53,-1.27,0.00
2.871,-0.29,-0.87,0.10,5.61,-6.66,-3.68,-2.78,-0.53,-1.27,0.00
2.876,-0.76,-1.02,0.43,5.61,-6.66,-3.68,-2.78,-0.53,-1.27,0.00
2.878,-0.76,-1.02,0.43,5.61,-6.66,-3.68,-2.72,0.10,-1.06,0.00
2.879,-0.76,-1.02,0.43,0.98,-7.93,-0.43,-2.72,0.10,-1.06,0.00
2.886,-1.33,-1.02,0.63,0.98,-7.93,-0.43,-2.72,0.10,-1.06,0.00
2.887,-1.33,-1.02,0.63,0.98,-7.93,-0.43,-2.59,0.51,-0.76,0.00
2.888,-1.33,-1.02,0.63,-4.65,-7.75,1.67,-2.59,0.51,-0.76,0.00
2.895,-1.98,-1.02,0.92,-4.65,-7.75,1.67,-2.59,0.51,-0.76,0.00
2.896,-1.98,-1.02,0.92,-4.65,-7.75,1.67,-2.63,0.88,-0.42,0.00
2.897,-1.98,-1.02,0.92,-10.98,-7.63,4.57,-2.63,0.88,-0.42,0.00
2.905,-2.85,-1.00,1.41,-10.98,-7.63,4.57,-2.63,0.88,-0.42,0.00
2.907,-2.85,-1.00,1.41,-10.98,-7.63,4.57,-3.00,1.39,-0.39,0.00
2.908,-2.85,-1.00,1.41,-19.48,-7.26,9.64,-3.00,1.39,-0.39,0.00
2.919,-3.32,-0.86,1.98,-19.48,-7.26,9.64,-3.00,1.39,-0.39,0.00
2.92,-3.32,-0.86,1.98,-19.48,-7.26,9.64,-3.46,1.68,-0.68,0.00
2.921,-3.32,-0.86,1.98,-23.98,-5.66,15.45,-3.46,1.68,-0.68,0.00
2.95,-3.06,-0.72,2.06,-23.98,-5.66,15.45,-3.46,1.68,-0.68,0.00
2.952,-3.06,-0.72,2.06,-23.98,-5.66,15.45,-3.51,0.96,-0.70,0.00
2.953,-3.06,-0.72,2.06,-21.43,-4.10,16.36,-3.51,0.96,-0.70,0.00
2.955,-2.58,-0.63,1.64,-21.43,-4.10,16.36,-3.51,0.96,-0.70,0.00
2.956,-2.58,-0.63,1.64,-21.43,-4.10,16.36,-3.20,-0.91,-0.46,0.00
2.957,-2.58,-0.63,1.64,-16.83,-3.05,12.35,-3.20,-0.91,-0.46,0.00
2.959,-2.29,-0.49,1.25,-16.83,-3.05,12.35,-3.20,-0.91,-0.46,0.00
2.96,-2.29,-0.49,1.25,-16.83,-3.05,12.35,-2.99,-2.75,-0.32,0.00
2.961,-2.29,-0.49,1.25,-14.10,-1.56,8.31,-2.99,-2.75,-0.32,0.00
2.963,-2.10,-0.38,1.10,-14.10,-1.56,8.31,-2.99,-2.75,-0.32,0.00
2.964,-2.10,-0.38,1.10,-14.10,-1.56,8.31,-2.97,-3.31,-0.30,0.00
2.964,-2.10,-0.38,1.10,-12.34,-0.29,6.70,-2.97,-3.31,-0.30,0.00
2.966,-1.87,-0.29,1.06,-12.34,-0.29,6.70,-2.97,-3.31,-0.30,0.00
2.967,-1.87,-0.29,1.06,-12.34,-0.29,6.70,-2.96,-2.75,-0.27,0.00
2.967,-1.87,-0.29,1.06,-10.19,0.70,6.18,-2.96,-2.75,-0.27,0.00
2.976,-1.70,-0.23,1.11,-10.19,0.70,6.18,-2.96,-2.75,-0.27,0.00
2.979,-1.70,-0.23,1.11,-10.19,0.70,6.18,-2.88,-1.92,-0.20,0.00
2.979,-1.70,-0.23,1.11,-8.59,1.44,6.59,-2.88,-1.92,-0.20,0.00
2.986,-1.61,-0.13,1.09,-8.59,1.44,6.59,-2.88,-1.92,-0.20,0.00
2.987,-1.61,-0.13,1.09,-8.59,1.44,6.59,-2.78,-1.38,-0.22,0.00
2.988,-1.61,-0.13,1.09,-7.77,2.53,6.47,-2.78,-1.38,-0.22,0.00
2.997,-1.50,-0.04,0.99,-7.77,2.53,6.47,-2.78,-1.38,-0.22,0.00
2.998,-1.50,-0.04,0.99,-7.77,2.53,6.47,-2.62,-1.21,-0.33,0.00
2.998,-1.50,-0.04,0.99,-6.77,3.57,5.42,-2.62,-1.21,-0.33,0.00
3.006,-1.33,0.03,0.84,-6.77,3.57,5.42,-2.62,-1.21,-0.33,0.00
3.007,-1.33,0.03,0.84,-6.77,3.57,5.42,-2.40,-1.17,-0.45,0.00
3.008,-1.33,0.03,0.84,-5.23,4.37,3.94,-2.40,-1.17,-0.45,0.00
3.019,-1.13,0.07,0.71,-5.23,4.37,3.94,-2.40,-1.17,-0.45,0.00
3.021,-1.13,0.07,0.71,-5.23,4.37,3.94,-2.17,-1.17,-0.52,0.00
3.022,-1.13,0.07,0.71,-3.36,4.97,2.72,-2.17,-1.17,-0.52,0.00
3.054,-0.90,0.11,0.65,-3.36,4.97,2.72,-2.17,-1.17,-0.52,0.00
3.055,-0.90,0.11,0.65,-3.36,4.97,2.72,-1.94,-1.26,-0.52,0.00
3.057,-0.90,0.11,0.65,-1.13,5.45,2.14,-1.94,-1.26,-0.52,0.00
3.058,-0.77,0.13,0.67,-1.13,5.45,2.14,-1.94,-1.26,-0.52,0.00
3.059,-0.77,0.13,0.67,-1.13,5.45,2.14,-1.70,-1.40,-0.45,0.00
3.06,-0.77,0.13,0.67,0.08,5.73,2.24,-1.70,-1.40,-0.45,0.00
3.061,-0.68,0.17,0.57,0.08,5.73,2.24,-1.70,-1.40,-0.45,0.00
3.062,-0.68,0.17,0.57,0.08,5.73,2.24,-1.35,-1.47,-0.30,0.00
3.063,-0.68,0.17,0.57,0.89,6.22,1.23,-1.35,-1.47,-0.30,0.00
3.064,-0.61,0.27,0.46,0.89,6.22,1.23,-1.35,-1.47,-0.30,0.00
3.065,-0.61,0.27,0.46,0.89,6.22,1.23,-0.94,-1.39,-0.09,0.00
3.066,-0.61,0.27,0.46,1.49,7.24,0.06,-0.94,-1.39,-0.09,0.00
3.067,-0.55,0.41,0.33,1.49,7.24,0.06,-0.94,-1.39,-0.09,0.00
3.068,-0.55,0.41,0.33,1.49,7.24,0.06,-0.56,-1.22,0.13,0.00
3.069,-0.55,0.41,0.33,1.99,8.64,-1.28,-0.56,-1.22,0.13,0.00
3.078,-0.51,0.57,0.22,1.99,8.64,-1.28,-0.56,-1.22,0.13,0.00
3.08,-0.51,0.57,0.22,1.99,8.64,-1.28,-0.18,-0.98,0.32,0.00
3.081,-0.51,0.57,0.22,2.42,10.18,-2.39,-0.18,-0.98,0.32,0.00
3.087,-0.44,0.70,0.25,2.42,10.18,-2.39,-0.18,-0.98,0.32,0.00
3.088,-0.44,0.70,0.25,2.42,10.18,-2.39,0.15,-0.74,0.48,0.00
3.089,-0.44,0.70,0.25,3.02,11.46,-2.14,0.15,-0.74,0.48,0.00
3.098,-0.39,0.80,0.24,3.02,11.46,-2.14,0.15,-0.74,0.48,0.00
3.099,-0.39,0.80,0.24,3.02,11.46,-2.14,0.45,-0.54,0.58,0.00
3.1,-0.39,0.80,0.24,3.51,12.37,-2.31,0.45,-0.54,0.58,0.00
3.109,-0.40,0.87,0.22,3.51,12.37,-2.31,0.45,-0.54,0.58,0.00
3.111,-0.40,0.87,0.22,3.51,12.37,-2.31,0.73,-0.37,0.62,0.00
3.113,-0.40,0.87,0.22,3.47,12.97,-2.55,0.73,-0.37,0.62,0.00
3.117,-0.43,0.89,0.21,3.47,12.97,-2.55,0.73,-0.37,0.62,0.00
3.118,-0.43,0.89,0.21,3.47,12.97,-2.55,0.94,-0.16,0.65,0.00
3.118,-0.43,0.89,0.21,3.16,13.01,-2.76,0.94,-0.16,0.65,0.00
3.129,-0.48,0.87,0.24,3.16,13.01,-2.76,0.94,-0.16,0.65,0.00
3.13,-0.48,0.87,0.24,3.16,13.01,-2.76,1.12,0.10,0.69,0.00
3.131,-0.48,0.87,0.24,2.76,12.71,-2.44,1.12,0.10,0.69,0.00
3.137,-0.50,0.86,0.28,2.76,12.71,-2.44,1.12,0.10,0.69,0.00
3.138,-0.50,0.86,0.28,2.76,12.71,-2.44,1.37,0.35,0.74,0.00
3.139,-0.50,0.86,0.28,2.60,12.55,-2.14,1.37,0.35,0.74,0.00
3.15,-0.50,0.89,0.24,2.60,12.55,-2.14,1.37,0.35,0.74,0.00
3.152,-0.50,0.89,0.24,2.60,12.55,-2.14,1.74,0.49,0.82,0.00
3.153,-0.50,0.89,0.24,2.68,12.68,-2.55,1.74,0.49,0.82,0.00
3.157,-0.49,0.94,0.23,2.68,12.68,-2.55,1.74,0.49,0.82,0.00
3.158,-0.49,0.94,0.23,2.68,12.68,-2.55,2.17,0.55,0.96,0.00
3.159,-0.49,0.94,0.23,2.79,12.97,-2.70,2.17,0.55,0.96,0.00
3.186,-0.51,0.97,0.22,2.79,12.97,-2.70,2.17,0.55,0.96,0.00
3.188,-0.51,0.97,0.22,2.79,12.97,-2.70,2.62,0.58,1.17,0.00
3.189,-0.51,0.97,0.22,2.64,13.02,-2.83,2.62,0.58,1.17,0.00
3.191,-0.58,0.92,0.28,2.64,13.02,-2.83,2.62,0.58,1.17,0.00
3.192,-0.58,0.92,0.28,2.64,13.02,-2.83,3.08,0.61,1.45,0.00
3.193,-0.58,0.92,0.28,2.06,12.27,-2.32,3.08,0.61,1.45,0.00
3.194,-0.67,0.79,0.38,2.06,12.27,-2.32,3.08,0.61,1.45,0.00
3.195,-0.67,0.79,0.38,2.06,12.27,-2.32,3.50,0.71,1.81,0.00
3.196,-0.67,0.79,0.38,1.33,10.66,-1.35,3.50,0.71,1.81,0.00
3.2,-0.75,0.63,0.53,1.33,10.66,-1.35,3.50,0.71,1.81,0.00
3.201,-0.75,0.63,0.53,1.33,10.66,-1.35,3.91,0.96,2.19,0.00
3.202,-0.75,0.63,0.53,0.59,8.72,0.06,3.91,0.96,2.19,0.00
3.213,-0.96,0.49,0.71,0.59,8.72,0.06,3.91,0.96,2.19,0.00
3.214,-0.96,0.49,0.71,0.59,8.72,0.06,4.24,1.37,2.53,0.00
3.215,-0.96,0.49,0.71,-1.33,6.99,1.87,4.24,1.37,2.53,0.00
3.218,-1.29,0.36,0.88,-1.33,6.99,1.87,4.24,1.37,2.53,0.00
3.219,-1.29,0.36,0.88,-1.33,6.99,1.87,4.44,1.94,2.78,0.00
3.22,-1.29,0.36,0.88,-4.45,5.28,3.56,4.44,1.94,2.78,0.00
3.228,-1.80,0.25,1.13,-4.45,5.28,3.56,4.44,1.94,2.78,0.00
3.23,-1.80,0.25,1.13,-4.45,5.28,3.56,4.42,2.63,2.93,0.00
3.23,-1.80,0.25,1.13,-9.18,3.64,6.18,4.42,2.63,2.93,0.00
3.238,-2.38,0.00,1.57,-9.18,3.64,6.18,4.42,2.63,2.93,0.00
3.239,-2.38,0.00,1.57,-9.18,3.64,6.18,4.12,3.38,2.94,0.00
3.24,-2.38,0.00,1.57,-14.74,0.79,10.74,4.12,3.38,2.94,0.00
3.25,-3.03,-0.31,1.98,-14.74,0.79,10.74,4.12,3.38,2.94,0.00
3.252,-3.03,-0.31,1.98,-14.74,0.79,10.74,3.80,4.04,2.86,0.00
3.253,-3.03,-0.31,1.98,-20.88,-2.65,15.09,3.80,4.04,2.86,0.00
3.283,-3.25,-0.63,2.11,-20.88,-2.65,15.09,3.80,4.04,2.86,0.00
3.285,-3.25,-0.63,2.11,-20.88,-2.65,15.09,3.80,4.21,2.90,0.00
3.286,-3.25,-0.63,2.11,-22.89,-6.23,16.78,3.80,4.21,2.90,0.00
3.287,-2.95,-0.89,1.94,-22.89,-6.23,16.78,3.80,4.21,2.90,0.00
3.288,-2.95,-0.89,1.94,-22.89,-6.23,16.78,4.02,3.56,3.03,0.00
3.289,-2.95,-0.89,1.94,-19.75,-9.24,15.40,4.02,3.56,3.03,0.00
3.291,-2.68,-1.03,1.63,-19.75,-9.24,15.40,4.02,3.56,3.03,0.00
3.292,-2.68,-1.03,1.63,-19.75,-9.24,15.40,4.13,2.40,2.92,0.00
3.293,-2.68,-1.03,1.63,-17.05,-11.03,12.62,4.13,2.40,2.92,0.00
3.296,-2.51,-1.07,1.54,-17.05,-11.03,12.62,4.13,2.40,2.92,0.00
3.297,-2.51,-1.07,1.54,-17.05,-11.03,12.62,4.05,1.78,2.35,0.00
3.298,-2.51,-1.07,1.54,-15.37,-11.74,11.94,4.05,1.78,2.35,0.00
3.302,-2.26,-1.03,1.54,-15.37,-11.74,11.94,4.05,1.78,2.35,0.00
3.303,-2.26,-1.03,1.54,-15.37,-11.74,11.94,3.86,1.75,1.68,0.00
3.304,-2.26,-1.03,1.54,-12.94,-11.63,12.19,3.86,1.75,1.68,0.00
3.312,-1.95,-0.93,1.33,-12.94,-11.63,12.19,3.86,1.75,1.68,0.00
3.314,-1.95,-0.93,1.33,-12.94,-11.63,12.19,3.67,1.28,1.15,0.00
3.314,-1.95,-0.93,1.33,-9.83,-10.86,10.25,3.67,1.28,1.15,0.00
3.32,-1.49,-0.88,1.00,-9.83,-10.86,10.25,3.67,1.28,1.15,0.00
3.321,-1.49,-0.88,1.00,-9.83,-10.86,10.25,3.44,0.49,0.80,0.00
3.321,-1.49,-0.88,1.00,-5.32,-10.55,7.22,3.44,0.49,0.80,0.00
3.33,-1.03,-0.82,0.69,-5.32,-10.55,7.22,3.44,0.49,0.80,0.00
3.331,-1.03,-0.82,0.69,-5.32,-10.55,7.22,3.14,0.03,0.50,0.00
3.332,-1.03,-0.82,0.69,-0.86,-10.06,4.21,3.14,0.03,0.50,0.00
3.34,-0.69,-0.68,0.45,-0.86,-10.06,4.21,3.14,0.03,0.50,0.00
3.341,-0.69,-0.68,0.45,-0.86,-10.06,4.21,2.82,-0.08,0.15,0.00
3.341,-0.69,-0.68,0.45,2.48,-8.75,1.95,2.82,-0.08,0.15,0.00
3.353,-0.48,-0.56,0.34,2.48,-8.75,1.95,2.82,-0.08,0.15,0.00
3.356,-0.48,-0.56,0.34,2.48,-8.75,1.95,2.49,-0.07,-0.17,0.00
3.357,-0.48,-0.56,0.34,4.57,-7.68,0.83,2.49,-0.07,-0.17,0.00
3.39,-0.31,-0.50,0.26,4.57,-7.68,0.83,2.49,-0.07,-0.17,0.00
3.392,-0.31,-0.50,0.26,4.57,-7.68,0.83,2.17,-0.12,-0.40,0.00
3.393,-0.31,-0.50,0.26,6.24,-7.05,0.10,2.17,-0.12,-0.40,0.00
3.394,-0.15,-0.49,0.22,6.24,-7.05,0.10,2.17,-0.12,-0.40,0.00
3.394,-0.15,-0.49,0.22,6.24,-7.05,0.10,1.87,-0.23,-0.60,0.00
3.395,-0.15,-0.49,0.22,7.82,-6.99,-0.21,1.87,-0.23,-0.60,0.00
3.396,0.02,-0.52,0.12,7.82,-6.99,-0.21,1.87,-0.23,-0.60,0.00
3.397,0.02,-0.52,0.12,7.82,-6.99,-0.21,1.64,-0.34,-0.79,0.00
3.398,0.02,-0.52,0.12,9.48,-7.20,-1.24,1.64,-0.34,-0.79,0.00
3.399,0.19,-0.56,-0.02,9.48,-7.20,-1.24,1.64,-0.34,-0.79,0.00
3.4,0.19,-0.56,-0.02,9.48,-7.20,-1.24,1.46,-0.41,-0.95,0.00
3.401,0.19,-0.56,-0.02,11.12,-7.55,-2.62,1.46,-0.41,-0.95,0.00
3.401,0.33,-0.56,-0.14,11.12,-7.55,-2.62,1.46,-0.41,-0.95,0.00
3.402,0.33,-0.56,-0.14,11.12,-7.55,-2.62,1.26,-0.45,-1.06,0.00
3.403,0.33,-0.56,-0.14,12.48,-7.55,-3.81,1.26,-0.45,-1.06,0.00
3.413,0.54,-0.61,-0.17,12.48,-7.55,-3.81,1.26,-0.45,-1.06,0.00
3.414,0.54,-0.61,-0.17,12.48,-7.55,-3.81,0.98,-0.55,-1.13,0.00
3.415,0.54,-0.61,-0.17,14.55,-7.87,-4.09,0.98,-0.55,-1.13,0.00
3.421,0.60,-0.60,-0.15,14.55,-7.87,-4.09,0.98,-0.55,-1.13,0.00
3.422,0.60,-0.60,-0.15,14.55,-7.87,-4.09,0.61,-0.79,-1.23,0.00
3.423,0.60,-0.60,-0.15,15.20,-7.73,-4.00,0.61,-0.79,-1.23,0.00
3.431,0.64,-0.59,-0.11,15.20,-7.73,-4.00,0.61,-0.79,-1.23,0.00
3.433,0.64,-0.59,-0.11,15.20,-7.73,-4.00,0.16,-1.17,-1.39,0.00
3.434,0.64,-0.59,-0.11,15.59,-7.47,-3.67,0.16,-1.17,-1.39,0.00
3.441,0.66,-0.57,-0.07,15.59,-7.47,-3.67,0.16,-1.17,-1.39,0.00
3.442,0.66,-0.57,-0.07,15.59,-7.47,-3.67,-0.33,-1.62,-1.54,0.00
3.443,0.66,-0.57,-0.07,15.76,-7.11,-3.43,-0.33,-1.62,-1.54,0.00
3.451,0.68,-0.58,-0.07,15.76,-7.11,-3.43,-0.33,-1.62,-1.54,0.00
3.452,0.68,-0.58,-0.07,15.76,-7.11,-3.43,-0.81,-2.02,-1.71,0.00
3.453,0.68,-0.58,-0.07,15.87,-7.06,-3.67,-0.81,-2.02,-1.71,0.00
3.469,0.65,-0.59,-0.11,15.87,-7.06,-3.67,-0.81,-2.02,-1.71,0.00
3.471,0.65,-0.59,-0.11,15.87,-7.06,-3.67,-1.26,-2.33,-1.92,0.00
3.472,0.65,-0.59,-0.11,15.57,-6.96,-4.27,-1.26,-2.33,-1.92,0.00
3.473,0.62,-0.58,-0.18,15.57,-6.96,-4.27,-1.26,-2.33,-1.92,0.00
3.474,0.62,-0.58,-0.18,15.57,-6.96,-4.27,-1.67,-2.53,-2.08,0.00
3.475,0.62,-0.58,-0.18,15.23,-6.54,-5.21,-1.67,-2.53,-2.08,0.00
3.506,0.58,-0.56,-0.26,15.23,-6.54,-5.21,-1.67,-2.53,-2.08,0.00
3.508,0.58,-0.56,-0.26,15.23,-6.54,-5.21,-2.05,-2.58,-2.11,0.00
3.509,0.58,-0.56,-0.26,14.78,-6.09,-6.25,-2.05,-2.58,-2.11,0.00
3.511,0.52,-0.56,-0.38,14.78,-6.09,-6.25,-2.05,-2.58,-2.11,0.00
3.514,0.52,-0.56,-0.38,14.78,-6.09,-6.25,-2.39,-2.43,-2.00,0.00
3.515,0.52,-0.56,-0.38,14.05,-5.81,-7.64,-2.39,-2.43,-2.00,0.00
3.516,0.42,-0.59,-0.45,14.05,-5.81,-7.64,-2.39,-2.43,-2.00,0.00
3.517,0.42,-0.59,-0.45,14.05,-5.81,-7.64,-2.67,-2.05,-1.78,0.00
3.518,0.42,-0.59,-0.45,13.01,-5.91,-8.56,-2.67,-2.05,-1.78,0.00
3.519,0.25,-0.73,-0.38,13.01,-5.91,-8.56,-2.67,-2.05,-1.78,0.00
3.52,0.25,-0.73,-0.38,13.01,-5.91,-8.56,-2.92,-1.49,-1.51,0.00
3.521,0.25,-0.73,-0.38,11.28,-6.95,-7.96,-2.92,-1.49,-1.51,0.00
3.522,-0.06,-0.94,-0.10,11.28,-6.95,-7.96,-2.92,-1.49,-1.51,0.00
3.523,-0.06,-0.94,-0.10,11.28,-6.95,-7.96,-3.14,-0.80,-1.30,0.00
3.524,-0.06,-0.94,-0.10,8.19,-8.83,-5.28,-3.14,-0.80,-1.30,0.00
3.532,-0.44,-1.18,0.31,8.19,-8.83,-5.28,-3.14,-0.80,-1.30,0.00
3.534,-0.44,-1.18,0.31,8.19,-8.83,-5.28,-3.31,-0.19,-1.20,0.00
3.535,-0.44,-1.18,0.31,4.44,-10.86,-1.31,-3.31,-0.19,-1.20,0.00
3.541,-0.88,-1.28,0.67,4.44,-10.86,-1.31,-3.31,-0.19,-1.20,0.00
3.542,-0.88,-1.28,0.67,4.44,-10.86,-1.31,-3.38,0.13,-1.15,0.00
3.543,-0.88,-1.28,0.67,0.11,-11.66,2.31,-3.38,0.13,-1.15,0.00
3.551,-1.45,-1.25,0.92,0.11,-11.66,2.31,-3.38,0.13,-1.15,0.00
3.552,-1.45,-1.25,0.92,0.11,-11.66,2.31,-3.43,0.29,-1.11,0.00
3.553,-1.45,-1.25,0.92,-5.40,-11.10,4.81,-3.43,0.29,-1.11,0.00
3.568,-2.23,-1.28,1.31,-5.40,-11.10,4.81,-3.43,0.29,-1.11,0.00
3.569,-2.23,-1.28,1.31,-5.40,-11.10,4.81,-3.71,0.63,-1.11,0.00
3.571,-2.23,-1.28,1.31,-13.06,-11.15,8.74,-3.71,0.63,-1.11,0.00
3.572,-3.12,-1.18,1.72,-13.06,-11.15,8.74,-3.71,0.63,-1.11,0.00
3.573,-3.12,-1.18,1.72,-13.06,-11.15,8.74,-4.13,1.05,-1.34,0.00
3.574,-3.12,-1.18,1.72,-21.75,-9.88,12.92,-4.13,1.05,-1.34,0.00
3.6,-3.39,-1.01,2.03,-21.75,-9.88,12.92,-4.13,1.05,-1.34,0.00
3.602,-3.39,-1.01,2.03,-21.75,-9.88,12.92,-4.24,0.91,-1.52,0.00
3.603,-3.39,-1.01,2.03,-24.38,-7.84,16.11,-4.24,0.91,-1.52,0.00
3.604,-3.04,-0.90,1.93,-24.38,-7.84,16.11,-4.24,0.91,-1.52,0.00
3.605,-3.04,-0.90,1.93,-24.38,-7.84,16.11,-3.92,-0.28,-1.39,0.00
3.606,-3.04,-0.90,1.93,-21.05,-6.51,15.17,-3.92,-0.28,-1.39,0.00
3.608,-2.63,-0.79,1.66,-21.05,-6.51,15.17,-3.92,-0.28,-1.39,0.00
3.611,-2.63,-0.79,1.66,-21.05,-6.51,15.17,-3.53,-1.96,-1.25,0.00
3.612,-2.63,-0.79,1.66,-17.07,-5.20,12.45,-3.53,-1.96,-1.25,0.00
3.614,-2.40,-0.65,1.39,-17.07,-5.20,12.45,-3.53,-1.96,-1.25,0.00
3.615,-2.40,-0.65,1.39,-17.07,-5.20,12.45,-3.30,-2.88,-1.22,0.00
3.616,-2.40,-0.65,1.39,-14.99,-3.65,9.59,-3.30,-2.88,-1.22,0.00
3.622,-2.20,-0.45,1.18,-14.99,-3.65,9.59,-3.30,-2.88,-1.22,0.00
3.623,-2.20,-0.45,1.18,-14.99,-3.65,9.59,-3.06,-2.78,-1.16,0.00
3.624,-2.20,-0.45,1.18,-13.18,-1.38,7.41,-3.06,-2.78,-1.16,0.00
3.633,-1.95,-0.23,1.09,-13.18,-1.38,7.41,-3.06,-2.78,-1.16,0.00
3.634,-1.95,-0.23,1.09,-13.18,-1.38,7.41,-2.82,-2.22,-1.05,0.00
3.635,-1.95,-0.23,1.09,-10.89,0.97,6.40,-2.82,-2.22,-1.05,0.00
3.645,-1.73,-0.09,1.08,-10.89,0.97,6.40,-2.82,-2.22,-1.05,0.00
3.647,-1.73,-0.09,1.08,-10.89,0.97,6.40,-2.65,-1.62,-0.93,0.00
3.648,-1.73,-0.09,1.08,-8.80,2.51,6.27,-2.65,-1.62,-0.93,0.00
3.652,-1.60,0.00,1.06,-8.80,2.51,6.27,-2.65,-1.62,-0.93,0.00
3.653,-1.60,0.00,1.06,-8.80,2.51,6.27,-2.51,-1.14,-0.92,0.00
3.654,-1.60,0.00,1.06,-7.58,3.59,6.09,-2.51,-1.14,-0.92,0.00
3.663,-1.51,0.10,0.96,-7.58,3.59,6.09,-2.51,-1.14,-0.92,0.00
3.664,-1.51,0.10,0.96,-7.58,3.59,6.09,-2.35,-0.82,-1.00,0.00
3.665,-1.51,0.10,0.96,-6.77,4.76,5.10,-2.35,-0.82,-1.00,0.00
3.672,-1.38,0.20,0.83,-6.77,4.76,5.10,-2.35,-0.82,-1.00,0.00
3.673,-1.38,0.20,0.83,-6.77,4.76,5.10,-2.18,-0.72,-1.10,0.00
3.674,-1.38,0.20,0.83,-5.62,5.92,3.88,-2.18,-0.72,-1.10,0.00
3.685,-1.21,0.29,0.72,-5.62,5.92,3.88,-2.18,-0.72,-1.10,0.00
3.687,-1.21,0.29,0.72,-5.62,5.92,3.88,-2.04,-0.84,-1.14,0.00
3.69,-1.21,0.29,0.72,-4.02,6.92,2.84,-2.04,-0.84,-1.14,0.00
3.724,-1.04,0.34,0.60,-4.02,6.92,2.84,-2.04,-0.84,-1.14,0.00
3.726,-1.04,0.34,0.60,-4.02,6.92,2.84,-1.86,-1.14,-1.07,0.00
3.727,-1.04,0.34,0.60,-2.41,7.59,1.67,-1.86,-1.14,-1.07,0.00
3.729,-0.85,0.38,0.47,-2.41,7.59,1.67,-1.86,-1.14,-1.07,0.00
3.73,-0.85,0.38,0.47,-2.41,7.59,1.67,-1.64,-1.52,-0.88,0.00
3.731,-0.85,0.38,0.47,-0.73,8.15,0.29,-1.64,-1.52,-0.88,0.00
3.732,-0.69,0.46,0.35,-0.73,8.15,0.29,-1.64,-1.52,-0.88,0.00
3.733,-0.69,0.46,0.35,-0.73,8.15,0.29,-1.39,-1.76,-0.63,0.00
3.734,-0.69,0.46,0.35,0.72,9.08,-0.93,-1.39,-1.76,-0.63,0.00
3.738,-0.60,0.58,0.23,0.72,9.08,-0.93,-1.39,-1.76,-0.63,0.00
3.739,-0.60,0.58,0.23,0.72,9.08,-0.93,-1.12,-1.76,-0.39,0.00
3.74,-0.60,0.58,0.23,1.59,10.26,-2.17,-1.12,-1.76,-0.39,0.00
3.741,-0.52,0.69,0.13,1.59,10.26,-2.17,-1.12,-1.76,-0.39,0.00
3.742,-0.52,0.69,0.13,1.59,10.26,-2.17,-0.84,-1.52,-0.14,0.00
3.743,-0.52,0.69,0.13,2.29,11.43,-3.28,-0.84,-1.52,-0.14,0.00
3.744,-0.41,0.79,0.09,2.29,11.43,-3.28,-0.84,-1.52,-0.14,0.00
3.745,-0.41,0.79,0.09,2.29,11.43,-3.28,-0.59,-1.11,0.13,0.00
3.746,-0.41,0.79,0.09,3.29,12.36,-3.66,-0.59,-1.11,0.13,0.00
3.753,-0.33,0.85,0.08,3.29,12.36,-3.66,-0.59,-1.11,0.13,0.00
3.754,-0.33,0.85,0.08,3.29,12.36,-3.66,-0.36,-0.65,0.36,0.00
3.755,-0.33,0.85,0.08,4.04,12.95,-3.80,-0.36,-0.65,0.36,0.00
3.763,-0.37,0.91,0.14,4.04,12.95,-3.80,-0.36,-0.65,0.36,0.00
3.765,-0.37,0.91,0.14,4.04,12.95,-3.80,-0.16,-0.28,0.48,0.00
3.766,-0.37,0.91,0.14,3.71,13.53,-3.24,-0.16,-0.28,0.48,0.00
3.773,-0.45,0.94,0.24,3.71,13.53,-3.24,-0.16,-0.28,0.48,0.00
3.774,-0.45,0.94,0.24,3.71,13.53,-3.24,0.01,-0.07,0.54,0.00
3.775,-0.45,0.94,0.24,2.96,13.81,-2.28,0.01,-0.07,0.54,0.00
3.787,-0.55,0.97,0.29,2.96,13.81,-2.28,0.01,-0.07,0.54,0.00
3.788,-0.55,0.97,0.29,2.96,13.81,-2.28,0.23,0.03,0.61,0.00
3.789,-0.55,0.97,0.29,2.00,14.08,-1.81,0.23,0.03,0.61,0.00
3.83,-0.54,0.96,0.31,2.00,14.08,-1.81,0.23,0.03,0.61,0.00
3.831,-0.54,0.96,0.31,2.00,14.08,-1.81,0.50,0.05,0.73,0.00
3.832,-0.54,0.96,0.31,2.09,13.84,-1.65,0.50,0.05,0.73,0.00
3.833,-0.56,0.93,0.31,2.09,13.84,-1.65,0.50,0.05,0.73,0.00
3.834,-0.56,0.93,0.31,2.09,13.84,-1.65,0.79,0.08,0.84,0.00
3.835,-0.56,0.93,0.31,1.99,13.49,-1.61,0.79,0.08,0.84,0.00
3.836,-0.62,0.95,0.28,1.99,13.49,-1.61,0.79,0.08,0.84,0.00
3.837,-0.62,0.95,0.28,1.99,13.49,-1.61,1.13,0.13,0.94,0.00
3.838,-0.62,0.95,0.28,1.45,13.55,-2.01,1.13,0.13,0.94,0.00
3.838,-0.72,0.97,0.31,1.45,13.55,-2.01,1.13,0.13,0.94,0.00
3.839,-0.72,0.97,0.31,1.45,13.55,-2.01,1.48,0.24,1.07,0.00
3.84,-0.72,0.97,0.31,0.49,13.56,-1.69,1.48,0.24,1.07,0.00
3.841,-0.79,0.98,0.35,0.49,13.56,-1.69,1.48,0.24,1.07,0.00
3.842,-0.79,0.98,0.35,0.49,13.56,-1.69,1.89,0.37,1.31,0.00
3.844,-0.79,0.98,0.35,-0.10,13.53,-1.39,1.89,0.37,1.31,0.00
3.845,-0.85,0.96,0.45,-0.10,13.53,-1.39,1.89,0.37,1.31,0.00
3.845,-0.85,0.96,0.45,-0.10,13.53,-1.39,2.30,0.48,1.66,0.00
3.847,-0.85,0.96,0.45,-0.61,13.03,-0.41,2.30,0.48,1.66,0.00
3.854,-0.95,0.89,0.59,-0.61,13.03,-0.41,2.30,0.48,1.66,0.00
3.856,-0.95,0.89,0.59,-0.61,13.03,-0.41,2.73,0.61,2.03,0.00
3.857,-0.95,0.89,0.59,-1.52,12.07,0.89,2.73,0.61,2.03,0.00
3.864,-1.09,0.75,0.81,-1.52,12.07,0.89,2.73,0.61,2.03,0.00
3.866,-1.09,0.75,0.81,-1.52,12.07,0.89,3.15,0.82,2.43,0.00
3.867,-1.09,0.75,0.81,-2.73,10.36,2.96,3.15,0.82,2.43,0.00
3.874,-1.25,0.59,1.03,-2.73,10.36,2.96,3.15,0.82,2.43,0.00
3.875,-1.25,0.59,1.03,-2.73,10.36,2.96,3.58,1.12,2.89,0.00
3.876,-1.25,0.59,1.03,-4.16,8.41,5.11,3.58,1.12,2.89,0.00
3.885,-1.43,0.46,1.13,-4.16,8.41,5.11,3.58,1.12,2.89,0.00
3.886,-1.43,0.46,1.13,-4.16,8.41,5.11,4.02,1.53,3.35,0.00
3.887,-1.43,0.46,1.13,-5.82,6.55,6.18,4.02,1.53,3.35,0.00
3.902,-1.76,0.37,1.21,-5.82,6.55,6.18,4.02,1.53,3.35,0.00
3.904,-1.76,0.37,1.21,-5.82,6.55,6.18,4.28,2.00,3.69,0.00
3.905,-1.76,0.37,1.21,-8.87,5.22,7.06,4.28,2.00,3.69,0.00
3.906,-2.32,0.14,1.46,-8.87,5.22,7.06,4.28,2.00,3.69,0.00
3.907,-2.32,0.14,1.46,-8.87,5.22,7.06,4.18,2.58,3.85,0.00
3.908,-2.32,0.14,1.46,-14.18,2.42,9.61,4.18,2.58,3.85,0.00
3.941,-2.82,-0.28,1.89,-14.18,2.42,9.61,4.18,2.58,3.85,0.00
3.942,-2.82,-0.28,1.89,-14.18,2.42,9.61,3.84,3.50,3.88,0.00
3.944,-2.82,-0.28,1.89,-18.89,-2.17,14.08,3.84,3.50,3.88,0.00
3.947,-3.07,-0.72,2.15,-18.89,-2.17,14.08,3.84,3.50,3.88,0.00
3.948,-3.07,-0.72,2.15,-18.89,-2.17,14.08,3.61,4.39,3.83,0.00
3.949,-3.07,-0.72,2.15,-21.18,-6.97,17.02,3.61,4.39,3.83,0.00
3.951,-3.02,-1.06,2.18,-21.18,-6.97,17.02,3.61,4.39,3.83,0.00
3.952,-3.02,-1.06,2.18,-21.18,-6.97,17.02,3.64,4.39,3.79,0.00
3.954,-3.02,-1.06,2.18,-20.49,-10.85,17.77,3.64,4.39,3.79,0.00
3.955,-3.01,-1.29,2.01,-20.49,-10.85,17.77,3.64,4.39,3.79,0.00
3.957,-3.01,-1.29,2.01,-20.49,-10.85,17.77,3.76,3.32,3.62,0.00
3.958,-3.01,-1.29,2.01,-20.28,-13.56,16.43,3.76,3.32,3.62,0.00
3.959,-2.89,-1.45,1.91,-20.28,-13.56,16.43,3.76,3.32,3.62,0.00
3.96,-2.89,-1.45,1.91,-20.28,-13.56,16.43,3.83,2.40,3.08,0.00
3.961,-2.89,-1.45,1.91,-19.06,-15.50,15.74,3.83,2.40,3.08,0.00
3.966,-2.49,-1.53,1.78,-19.06,-15.50,15.74,3.83,2.40,3.08,0.00
3.968,-2.49,-1.53,1.78,-19.06,-15.50,15.74,3.85,1.98,2.35,0.00
3.969,-2.49,-1.53,1.78,-15.17,-16.64,14.64,3.85,1.98,2.35,0.00
3.976,-1.94,-1.38,1.44,-15.17,-16.64,14.64,3.85,1.98,2.35,0.00
3.977,-1.94,-1.38,1.44,-15.17,-16.64,14.64,3.81,1.06,1.71,0.00
3.978,-1.94,-1.38,1.44,-9.76,-15.44,11.45,3.81,1.06,1.71,0.00
3.985,-1.36,-1.24,0.98,-9.76,-15.44,11.45,3.81,1.06,1.71,0.00
3.987,-1.36,-1.24,0.98,-9.76,-15.44,11.45,3.63,0.00,1.22,0.00
3.988,-1.36,-1.24,0.98,-4.08,-14.25,7.04,3.63,0.00,1.22,0.00
4.003,-0.94,-1.09,0.62,-4.08,-14.25,7.04,3.63,0.00,1.22,0.00
4.005,-0.94,-1.09,0.62,-4.08,-14.25,7.04,3.35,-0.40,0.73,0.00
4.006,-0.94,-1.09,0.62,-0.04,-12.96,3.57,3.35,-0.40,0.73,0.00
4.008,-0.63,-0.89,0.41,-0.04,-12.96,3.57,3.35,-0.40,0.73,0.00
4.009,-0.63,-0.89,0.41,-0.04,-12.96,3.57,3.03,-0.27,0.23,0.00
4.01,-0.63,-0.89,0.41,3.05,-11.10,1.57,3.03,-0.27,0.23,0.00
4.049,-0.38,-0.76,0.32,3.05,-11.10,1.57,3.03,-0.27,0.23,0.00
4.051,-0.38,-0.76,0.32,3.05,-11.10,1.57,2.68,-0.04,-0.23,0.00
4.052,-0.38,-0.76,0.32,5.47,-9.81,0.78,2.68,-0.04,-0.23,0.00
4.055,-0.20,-0.70,0.25,5.47,-9.81,0.78,2.68,-0.04,-0.23,0.00
4.057,-0.20,-0.70,0.25,5.47,-9.81,0.78,2.36,0.03,-0.68,0.00
4.058,-0.20,-0.70,0.25,7.21,-9.25,0.11,2.36,0.03,-0.68,0.00
4.059,-0.04,-0.66,0.15,7.21,-9.25,0.11,2.36,0.03,-0.68,0.00
4.06,-0.04,-0.66,0.15,7.21,-9.25,0.11,2.09,-0.02,-1.12,0.00
4.062,-0.04,-0.66,0.15,8.84,-8.82,-0.84,2.09,-0.02,-1.12,0.00
4.063,0.15,-0.65,0.00,8.84,-8.82,-0.84,2.09,-0.02,-1.12,0.00
4.064,0.15,-0.65,0.00,8.84,-8.82,-0.84,1.85,-0.05,-1.54,0.00
4.065,0.15,-0.65,0.00,10.77,-8.60,-2.23,1.85,-0.05,-1.54,0.00
4.066,0.30,-0.61,-0.13,10.77,-8.60,-2.23,1.85,-0.05,-1.54,0.00
4.067,0.30,-0.61,-0.13,10.77,-8.60,-2.23,1.63,-0.06,-1.92,0.00
4.068,0.30,-0.61,-0.13,12.24,-8.11,-3.53,1.63,-0.06,-1.92,0.00
4.069,0.39,-0.59,-0.20,12.24,-8.11,-3.53,1.63,-0.06,-1.92,0.00
4.069,0.39,-0.59,-0.20,12.24,-8.11,-3.53,1.40,-0.11,-2.23,0.00
4.07,0.39,-0.59,-0.20,13.20,-7.71,-4.19,1.40,-0.11,-2.23,0.00
4.076,0.51,-0.63,-0.22,13.20,-7.71,-4.19,1.40,-0.11,-2.23,0.00
4.078,0.51,-0.63,-0.22,13.20,-7.71,-4.19,1.15,-0.28,-2.44,0.00
4.079,0.51,-0.63,-0.22,14.43,-7.92,-4.39,1.15,-0.28,-2.44,0.00
4.087,0.55,-0.65,-0.27,14.43,-7.92,-4.39,1.15,-0.28,-2.44,0.00
4.088,0.55,-0.65,-0.27,14.43,-7.92,-4.39,0.90,-0.60,-2.62,0.00
4.088,0.55,-0.65,-0.27,14.84,-7.87,-4.87,0.90,-0.60,-2.62,0.00
4.096,0.61,-0.64,-0.30,14.84,-7.87,-4.87,0.90,-0.60,-2.62,0.00
4.097,0.61,-0.64,-0.30,14.84,-7.87,-4.87,0.57,-1.03,-2.78,0.00
4.098,0.61,-0.64,-0.30,15.38,-7.51,-5.32,0.57,-1.03,-2.78,0.00
4.106,0.61,-0.61,-0.29,15.38,-7.51,-5.32,0.57,-1.03,-2.78,0.00
4.107,0.61,-0.61,-0.29,15.38,-7.51,-5.32,0.14,-1.44,-2.93,0.00
4.108,0.61,-0.61,-0.29,15.43,-6.89,-5.32,0.14,-1.44,-2.93,0.00
4.12,0.58,-0.59,-0.24,15.43,-6.89,-5.32,0.14,-1.44,-2.93,0.00
4.121,0.58,-0.59,-0.24,15.43,-6.89,-5.32,-0.38,-1.74,-3.09,0.00
4.122,0.58,-0.59,-0.24,15.06,-6.46,-5.00,-0.38,-1.74,-3.09,0.00
4.163,0.57,-0.63,-0.21,15.06,-6.46,-5.00,-0.38,-1.74,-3.09,0.00
4.165,0.57,-0.63,-0.21,15.06,-6.46,-5.00,-0.89,-1.92,-3.17,0.00
4.166,0.57,-0.63,-0.21,14.98,-6.50,-4.85,-0.89,-1.92,-3.17,0.00
4.168,0.54,-0.63,-0.17,14.98,-6.50,-4.85,-0.89,-1.92,-3.17,0.00
4.169,0.54,-0.63,-0.17,14.98,-6.50,-4.85,-1.36,-2.06,-3.23,0.00
4.169,0.54,-0.63,-0.17,14.62,-6.12,-4.72,-1.36,-2.06,-3.23,0.00
4.17,0.52,-0.57,-0.21,14.62,-6.12,-4.72,-1.36,-2.06,-3.23,0.00
4.171,0.52,-0.57,-0.21,14.62,-6.12,-4.72,-1.77,-2.18,-3.24,0.00
4.172,0.52,-0.57,-0.21,14.37,-5.20,-5.25,-1.77,-2.18,-3.24,0.00
4.173,0.50,-0.50,-0.23,14.37,-5.20,-5.25,-1.77,-2.18,-3.24,0.00
4.174,0.50,-0.50,-0.23,14.37,-5.20,-5.25,-2.13,-2.28,-3.14,0.00
4.175,0.50,-0.50,-0.23,14.05,-4.12,-5.73,-2.13,-2.28,-3.14,0.00
4.175,0.44,-0.46,-0.22,14.05,-4.12,-5.73,-2.13,-2.28,-3.14,0.00
4.177,0.44,-0.46,-0.22,14.05,-4.12,-5.73,-2.44,-2.32,-2.94,0.00
4.178,0.44,-0.46,-0.22,13.37,-3.38,-5.82,-2.44,-2.32,-2.94,0.00
4.179,0.35,-0.46,-0.26,13.37,-3.38,-5.82,-2.44,-2.32,-2.94,0.00
4.18,0.35,-0.46,-0.26,13.37,-3.38,-5.82,-2.64,-2.24,-2.64,0.00
4.181,0.35,-0.46,-0.26,12.36,-3.10,-6.35,-2.64,-2.24,-2.64,0.00
4.188,0.25,-0.56,-0.16,12.36,-3.10,-6.35,-2.64,-2.24,-2.64,0.00
4.189,0.25,-0.56,-0.16,12.36,-3.10,-6.35,-2.80,-1.97,-2.22,0.00
4.19,0.25,-0.56,-0.16,11.31,-3.73,-5.53,-2.80,-1.97,-2.22,0.00
4.198,-0.02,-0.70,0.04,11.31,-3.73,-5.53,-2.80,-1.97,-2.22,0.00
4.2,-0.02,-0.70,0.04,11.31,-3.73,-5.53,-2.93,-1.47,-1.82,0.00
4.201,-0.02,-0.70,0.04,8.52,-4.82,-3.61,-2.93,-1.47,-1.82,0.00
4.207,-0.33,-0.89,0.32,8.52,-4.82,-3.61,-2.93,-1.47,-1.82,0.00
4.208,-0.33,-0.89,0.32,8.52,-4.82,-3.61,-3.03,-0.86,-1.45,0.00
4.208,-0.33,-0.89,0.32,5.38,-6.48,-0.84,-3.03,-0.86,-1.45,0.00
4.217,-0.73,-1.07,0.58,5.38,-6.48,-0.84,-3.03,-0.86,-1.45,0.00
4.218,-0.73,-1.07,0.58,5.38,-6.48,-0.84,-3.04,-0.26,-1.02,0.00
4.219,-0.73,-1.07,0.58,1.44,-8.03,1.68,-3.04,-0.26,-1.02,0.00
4.235,-1.26,-1.22,0.69,1.44,-8.03,1.68,-3.04,-0.26,-1.02,0.00
4.237,-1.26,-1.22,0.69,1.44,-8.03,1.68,-3.01,0.19,-0.58,0.00
4.238,-1.26,-1.22,0.69,-3.69,-9.28,2.87,-3.01,0.19,-0.58,0.00
4.239,-2.02,-1.47,0.80,-3.69,-9.28,2.87,-3.01,0.19,-0.58,0.00
4.24,-2.02,-1.47,0.80,-3.69,-9.28,2.87,-3.18,0.53,-0.20,0.00
4.241,-2.02,-1.47,0.80,-11.16,-11.57,4.13,-3.18,0.53,-0.20,0.00
4.27,-2.88,-1.61,1.25,-11.16,-11.57,4.13,-3.18,0.53,-0.20,0.00
4.271,-2.88,-1.61,1.25,-11.16,-11.57,4.13,-3.68,1.00,-0.27,0.00
4.272,-2.88,-1.61,1.25,-19.55,-12.80,8.69,-3.68,1.00,-0.27,0.00
4.274,-3.22,-1.46,1.86,-19.55,-12.80,8.69,-3.68,1.00,-0.27,0.00
4.275,-3.22,-1.46,1.86,-19.55,-12.80,8.69,-4.22,1.34,-0.71,0.00
4.276,-3.22,-1.46,1.86,-22.85,-11.13,14.92,-4.22,1.34,-0.71,0.00
4.277,-3.00,-1.35,1.97,-22.85,-11.13,14.92,-4.22,1.34,-0.71,0.00
4.279,-3.00,-1.35,1.97,-22.85,-11.13,14.92,-4.25,0.59,-0.91,0.00
4.28,-3.00,-1.35,1.97,-20.70,-9.89,16.26,-4.25,0.59,-0.91,0.00
4.281,-2.62,-1.26,1.61,-20.70,-9.89,16.26,-4.25,0.59,-0.91,0.00
4.282,-2.62,-1.26,1.61,-20.70,-9.89,16.26,-3.83,-1.34,-0.86,0.00
4.283,-2.62,-1.26,1.61,-17.11,-8.79,12.73,-3.83,-1.34,-0.86,0.00
4.288,-2.41,-1.02,1.21,-17.11,-8.79,12.73,-3.83,-1.34,-0.86,0.00
4.289,-2.41,-1.02,1.21,-17.11,-8.79,12.73,-3.53,-3.27,-0.82,0.00
4.29,-2.41,-1.02,1.21,-15.19,-6.22,8.65,-3.53,-3.27,-0.82,0.00
4.297,-2.17,-0.79,1.01,-15.19,-6.22,8.65,-3.53,-3.27,-0.82,0.00
4.299,-2.17,-0.79,1.01,-15.19,-6.22,8.65,-3.44,-3.98,-0.84,0.00
4.3,-2.17,-0.79,1.01,-12.98,-3.77,6.48,-3.44,-3.98,-0.84,0.00
4.307,-1.88,-0.59,0.95,-12.98,-3.77,6.48,-3.44,-3.98,-0.84,0.00
4.308,-1.88,-0.59,0.95,-12.98,-3.77,6.48,-3.33,-3.52,-0.79,0.00
4.309,-1.88,-0.59,0.95,-10.29,-1.70,5.73,-3.33,-3.52,-0.79,0.00
4.317,-1.67,-0.40,0.97,-10.29,-1.70,5.73,-3.33,-3.52,-0.79,0.00
4.318,-1.67,-0.40,0.97,-10.29,-1.70,5.73,-3.17,-2.69,-0.71,0.00
4.319,-1.67,-0.40,0.97,-8.36,0.39,5.82,-3.17,-2.69,-0.71,0.00
4.334,-1.60,-0.27,1.00,-8.36,0.39,5.82,-3.17,-2.69,-0.71,0.00
4.335,-1.60,-0.27,1.00,-8.36,0.39,5.82,-3.01,-1.91,-0.68,0.00
4.336,-1.60,-0.27,1.00,-7.73,1.80,6.14,-3.01,-1.91,-0.68,0.00
4.339,-1.63,-0.15,1.02,-7.73,1.80,6.14,-3.01,-1.91,-0.68,0.00
4.34,-1.63,-0.15,1.02,-7.73,1.80,6.14,-2.83,-1.22,-0.79,0.00
4.341,-1.63,-0.15,1.02,-8.10,3.12,6.38,-2.83,-1.22,-0.79,0.00
4.367,-1.60,-0.04,1.00,-8.10,3.12,6.38,-2.83,-1.22,-0.79,0.00
4.369,-1.60,-0.04,1.00,-8.10,3.12,6.38,-2.59,-0.68,-0.96,0.00
4.369,-1.60,-0.04,1.00,-7.95,4.45,6.17,-2.59,-0.68,-0.96,0.00
4.37,-1.49,0.08,0.95,-7.95,4.45,6.17,-2.59,-0.68,-0.96,0.00
4.372,-1.49,0.08,0.95,-7.95,4.45,6.17,-2.32,-0.41,-1.03,0.00
4.373,-1.49,0.08,0.95,-6.88,5.79,5.84,-2.32,-0.41,-1.03,0.00
4.373,-1.33,0.23,0.89,-6.88,5.79,5.84,-2.32,-0.41,-1.03,0.00
4.374,-1.33,0.23,0.89,-6.88,5.79,5.84,-2.06,-0.52,-1.01,0.00
4.375,-1.33,0.23,0.89,-5.40,7.40,5.28,-2.06,-0.52,-1.01,0.00
4.379,-1.14,0.37,0.74,-5.40,7.40,5.28,-2.06,-0.52,-1.01,0.00
4.38,-1.14,0.37,0.74,-5.40,7.40,5.28,-1.81,-0.94,-0.91,0.00
4.381,-1.14,0.37,0.74,-3.61,8.92,3.87,-1.81,-0.94,-0.91,0.00
4.392,-0.88,0.51,0.56,-3.61,8.92,3.87,-1.81,-0.94,-0.91,0.00
4.393,-0.88,0.51,0.56,-3.61,8.92,3.87,-1.59,-1.48,-0.74,0.00
4.393,-0.88,0.51,0.56,-1.20,10.31,2.07,-1.59,-1.48,-0.74,0.00
4.398,-0.65,0.64,0.40,-1.20,10.31,2.07,-1.59,-1.48,-0.74,0.00
4.399,-0.65,0.64,0.40,-1.20,10.31,2.07,-1.39,-1.93,-0.55,0.00
4.4,-0.65,0.64,0.40,0.98,11.72,0.39,-1.39,-1.93,-0.55,0.00
4.413,-0.47,0.79,0.31,0.98,11.72,0.39,-1.39,-1.93,-0.55,0.00
4.414,-0.47,0.79,0.31,0.98,11.72,0.39,-1.16,-2.25,-0.37,0.00
4.415,-0.47,0.79,0.31,2.69,13.25,-0.58,-1.16,-2.25,-0.37,0.00
4.419,-0.38,0.93,0.22,2.69,13.25,-0.58,-1.16,-2.25,-0.37,0.00
4.42,-0.38,0.93,0.22,2.69,13.25,-0.58,-0.86,-2.36,-0.21,0.00
4.421,-0.38,0.93,0.22,3.39,14.65,-1.61,-0.86,-2.36,-0.21,0.00
4.434,-0.35,1.05,0.16,3.39,14.65,-1.61,-0.86,-2.36,-0.21,0.00
4.435,-0.35,1.05,0.16,3.39,14.65,-1.61,-0.49,-2.18,0.00,0.00
4.435,-0.35,1.05,0.16,3.64,15.86,-2.35,-0.49,-2.18,0.00,0.00
4.437,-0.30,1.13,0.10,3.64,15.86,-2.35,-0.49,-2.18,0.00,0.00
4.438,-0.30,1.13,0.10,3.64,15.86,-2.35,-0.10,-1.73,0.32,0.00
4.438,-0.30,1.13,0.10,4.11,16.64,-3.04,-0.10,-1.73,0.32,0.00
4.451,-0.26,1.14,0.13,4.11,16.64,-3.04,-0.10,-1.73,0.32,0.00
4.452,-0.26,1.14,0.13,4.11,16.64,-3.04,0.22,-1.09,0.66,0.00
4.453,-0.26,1.14,0.13,4.50,16.65,-2.77,0.22,-1.09,0.66,0.00
4.458,-0.39,1.09,0.23,4.50,16.65,-2.77,0.22,-1.09,0.66,0.00
4.459,-0.39,1.09,0.23,4.50,16.65,-2.77,0.46,-0.45,0.88,0.00
4.46,-0.39,1.09,0.23,3.23,16.09,-1.93,0.46,-0.45,0.88,0.00
4.487,-0.56,1.01,0.36,3.23,16.09,-1.93,0.46,-0.45,0.88,0.00
4.488,-0.56,1.01,0.36,3.23,16.09,-1.93,0.63,-0.02,0.99,0.00
4.489,-0.56,1.01,0.36,1.59,15.28,-0.63,0.63,-0.02,0.99,0.00
4.49,-0.68,0.93,0.49,1.59,15.28,-0.63,0.63,-0.02,0.99,0.00
4.49,-0.68,0.93,0.49,1.59,15.28,-0.63,0.82,0.17,1.12,0.00
4.491,-0.68,0.93,0.49,0.48,14.36,0.55,0.82,0.17,1.12,0.00
4.492,-0.78,0.87,0.53,0.48,14.36,0.55,0.82,0.17,1.12,0.00
4.493,-0.78,0.87,0.53,0.48,14.36,0.55,1.09,0.16,1.24,0.00
4.494,-0.78,0.87,0.53,-0.41,13.62,0.97,1.09,0.16,1.24,0.00
4.498,-0.84,0.83,0.55,-0.41,13.62,0.97,1.09,0.16,1.24,0.00
4.5,-0.84,0.83,0.55,-0.41,13.62,0.97,1.44,-0.01,1.37,0.00
4.5,-0.84,0.83,0.55,-0.92,13.08,1.08,1.44,-0.01,1.37,0.00
4.509,-0.82,0.76,0.58,-0.92,13.08,1.08,1.44,-0.01,1.37,0.00
4.51,-0.82,0.76,0.58,-0.92,13.08,1.08,1.87,-0.16,1.54,0.00
4.511,-0.82,0.76,0.58,-0.63,12.19,1.30,1.87,-0.16,1.54,0.00
4.519,-0.81,0.67,0.62,-0.63,12.19,1.30,1.87,-0.16,1.54,0.00
4.52,-0.81,0.67,0.62,-0.63,12.19,1.30,2.37,-0.19,1.72,0.00
4.521,-0.81,0.67,0.62,-0.49,11.05,1.52,2.37,-0.19,1.72,0.00
4.53,-0.86,0.56,0.62,-0.49,11.05,1.52,2.37,-0.19,1.72,0.00
4.531,-0.86,0.56,0.62,-0.49,11.05,1.52,2.92,-0.04,1.94,0.00
4.532,-0.86,0.56,0.62,-0.86,9.71,1.44,2.92,-0.04,1.94,0.00
4.539,-0.95,0.42,0.67,-0.86,9.71,1.44,2.92,-0.04,1.94,0.00
4.54,-0.95,0.42,0.67,-0.86,9.71,1.44,3.41,0.34,2.23,0.00
4.54,-0.95,0.42,0.67,-1.68,7.98,1.81,3.41,0.34,2.23,0.00
4.549,-1.11,0.29,0.74,-1.68,7.98,1.81,3.41,0.34,2.23,0.00
4.55,-1.11,0.29,0.74,-1.68,7.98,1.81,3.83,0.91,2.56,0.00
4.551,-1.11,0.29,0.74,-3.13,6.29,2.41,3.83,0.91,2.56,0.00
4.559,-1.35,0.16,0.85,-3.13,6.29,2.41,3.83,0.91,2.56,0.00
4.56,-1.35,0.16,0.85,-3.13,6.29,2.41,4.12,1.58,2.90,0.00
4.561,-1.35,0.16,0.85,-5.32,4.59,3.47,4.12,1.58,2.90,0.00
4.572,-1.72,-0.01,1.07,-5.32,4.59,3.47,4.12,1.58,2.90,0.00
4.574,-1.72,-0.01,1.07,-5.32,4.59,3.47,4.25,2.30,3.18,0.00
4.575,-1.72,-0.01,1.07,-8.68,2.53,5.72,4.25,2.30,3.18,0.00
4.617,-2.23,-0.29,1.37,-8.68,2.53,5.72,4.25,2.30,3.18,0.00
4.619,-2.23,-0.29,1.37,-8.68,2.53,5.72,4.20,3.05,3.34,0.00
4.62,-2.23,-0.29,1.37,-13.47,-0.73,8.80,4.20,3.05,3.34,0.00
4.622,-2.85,-0.72,1.61,-13.47,-0.73,8.80,4.20,3.05,3.34,0.00
4.623,-2.85,-0.72,1.61,-13.47,-0.73,8.80,3.96,3.83,3.34,0.00
4.624,-2.85,-0.72,1.61,-19.35,-5.42,11.40,3.96,3.83,3.34,0.00
4.625,-3.15,-1.04,1.77,-19.35,-5.42,11.40,3.96,3.83,3.34,0.00
4.626,-3.15,-1.04,1.77,-19.35,-5.42,11.40,3.71,4.33,3.21,0.00
4.627,-3.15,-1.04,1.77,-22.06,-8.99,13.28,3.71,4.33,3.21,0.00
4.629,-3.05,-1.33,1.65,-22.06,-8.99,13.28,3.71,4.33,3.21,0.00
4.63,-3.05,-1.33,1.65,-22.06,-8.99,13.28,3.73,3.88,3.11,0.00
4.631,-3.05,-1.33,1.65,-20.83,-12.22,12.38,3.73,3.88,3.11,0.00
4.633,-2.86,-1.55,1.27,-20.83,-12.22,12.38,3.73,3.88,3.11,0.00
4.634,-2.86,-1.55,1.27,-20.83,-12.22,12.38,3.93,2.57,2.88,0.00
4.635,-2.86,-1.55,1.27,-18.89,-14.86,8.88,3.93,2.57,2.88,0.00
4.636,-2.67,-1.69,1.10,-18.89,-14.86,8.88,3.93,2.57,2.88,0.00
4.637,-2.67,-1.69,1.10,-18.89,-14.86,8.88,3.86,1.79,2.29,0.00
4.638,-2.67,-1.69,1.10,-17.00,-16.55,7.39,3.86,1.79,2.29,0.00
4.643,-2.38,-1.72,1.16,-17.00,-16.55,7.39,3.86,1.79,2.29,0.00
4.645,-2.38,-1.72,1.16,-17.00,-16.55,7.39,3.50,1.93,1.60,0.00
4.646,-2.38,-1.72,1.16,-14.01,-17.12,8.18,3.50,1.93,1.60,0.00
4.652,-2.06,-1.58,1.11,-14.01,-17.12,8.18,3.50,1.93,1.60,0.00
4.653,-2.06,-1.58,1.11,-14.01,-17.12,8.18,3.11,1.85,1.06,0.00
4.654,-2.06,-1.58,1.11,-10.87,-15.90,7.85,3.11,1.85,1.06,0.00
4.671,-1.71,-1.38,0.90,-10.87,-15.90,7.85,3.11,1.85,1.06,0.00
4.673,-1.71,-1.38,0.90,-10.87,-15.90,7.85,2.77,1.26,0.65,0.00
4.674,-1.71,-1.38,0.90,-7.42,-14.15,5.93,2.77,1.26,0.65,0.00
4.675,-1.32,-1.25,0.66,-7.42,-14.15,5.93,2.77,1.26,0.65,0.00
4.676,-1.32,-1.25,0.66,-7.42,-14.15,5.93,2.44,0.76,0.34,0.00
4.677,-1.32,-1.25,0.66,-3.60,-12.95,3.71,2.44,0.76,0.34,0.00
4.709,-0.97,-1.09,0.48,-3.60,-12.95,3.71,2.44,0.76,0.34,0.00
4.712,-0.97,-1.09,0.48,-3.60,-12.95,3.71,2.13,0.55,0.08,0.00
4.713,-0.97,-1.09,0.48,-0.15,-11.48,2.01,2.13,0.55,0.08,0.00
4.714,-0.71,-0.91,0.39,-0.15,-11.48,2.01,2.13,0.55,0.08,0.00
4.715,-0.71,-0.91,0.39,-0.15,-11.48,2.01,1.83,0.51,-0.18,0.00
4.717,-0.71,-0.91,0.39,2.45,-9.71,1.19,1.83,0.51,-0.18,0.00
4.718,-0.54,-0.76,0.37,2.45,-9.71,1.19,1.83,0.51,-0.18,0.00
4.719,-0.54,-0.76,0.37,2.45,-9.71,1.19,1.54,0.49,-0.42,0.00
4.72,-0.54,-0.76,0.37,4.13,-8.23,1.06,1.54,0.49,-0.42,0.00
4.721,-0.40,-0.67,0.36,4.13,-8.23,1.06,1.54,0.49,-0.42,0.00
4.722,-0.40,-0.67,0.36,4.13,-8.23,1.06,1.30,0.39,-0.59,0.00
4.723,-0.40,-0.67,0.36,5.51,-7.34,1.00,1.30,0.39,-0.59,0.00
4.723,-0.28,-0.62,0.31,5.51,-7.34,1.00,1.30,0.39,-0.59,0.00
4.724,-0.28,-0.62,0.31,5.51,-7.34,1.00,1.13,0.20,-0.72,0.00
4.725,-0.28,-0.62,0.31,6.66,-6.84,0.46,1.13,0.20,-0.72,0.00
4.732,-0.18,-0.57,0.23,6.66,-6.84,0.46,1.13,0.20,-0.72,0.00
4.734,-0.18,-0.57,0.23,6.66,-6.84,0.46,1.00,-0.03,-0.82,0.00
4.735,-0.18,-0.57,0.23,7.66,-6.30,-0.29,1.00,-0.03,-0.82,0.00
4.742,-0.08,-0.52,0.12,7.66,-6.30,-0.29,1.00,-0.03,-0.82,0.00
4.744,-0.08,-0.52,0.12,7.66,-6.30,-0.29,0.91,-0.27,-0.87,0.00
4.744,-0.08,-0.52,0.12,8.66,-5.70,-1.36,0.91,-0.27,-0.87,0.00
4.753,0.05,-0.49,0.05,8.66,-5.70,-1.36,0.91,-0.27,-0.87,0.00
4.754,0.05,-0.49,0.05,8.66,-5.70,-1.36,0.83,-0.51,-0.85,0.00
4.754,0.05,-0.49,0.05,9.90,-5.41,-2.14,0.83,-0.51,-0.85,0.00
4.773,0.14,-0.48,-0.02,9.90,-5.41,-2.14,0.83,-0.51,-0.85,0.00
4.775,0.14,-0.48,-0.02,9.90,-5.41,-2.14,0.72,-0.75,-0.79,0.00
4.776,0.14,-0.48,-0.02,10.79,-5.17,-2.85,0.72,-0.75,-0.79,0.00
4.778,0.20,-0.47,-0.04,10.79,-5.17,-2.85,0.72,-0.75,-0.79,0.00
4.779,0.20,-0.47,-0.04,10.79,-5.17,-2.85,0.57,-1.01,-0.72,0.00
4.78,0.20,-0.47,-0.04,11.33,-5.09,-3.19,0.57,-1.01,-0.72,0.00
4.821,0.28,-0.50,-0.03,11.33,-5.09,-3.19,0.57,-1.01,-0.72,0.00
4.823,0.28,-0.50,-0.03,11.33,-5.09,-3.19,0.37,-1.26,-0.59,0.00
4.824,0.28,-0.50,-0.03,12.07,-5.29,-3.18,0.37,-1.26,-0.59,0.00
4.824,0.39,-0.53,-0.01,12.07,-5.29,-3.18,0.37,-1.26,-0.59,0.00
4.825,0.39,-0.53,-0.01,12.07,-5.29,-3.18,0.12,-1.49,-0.45,0.00
4.826,0.39,-0.53,-0.01,13.17,-5.60,-3.09,0.12,-1.49,-0.45,0.00
4.827,0.48,-0.54,-0.01,13.17,-5.60,-3.09,0.12,-1.49,-0.45,0.00
4.828,0.48,-0.54,-0.01,13.17,-5.60,-3.09,-0.16,-1.70,-0.40,0.00
4.829,0.48,-0.54,-0.01,14.00,-5.60,-3.22,-0.16,-1.70,-0.40,0.00
4.83,0.53,-0.52,-0.04,14.00,-5.60,-3.22,-0.16,-1.70,-0.40,0.00
4.831,0.53,-0.52,-0.04,14.00,-5.60,-3.22,-0.45,-1.90,-0.45,0.00
4.832,0.53,-0.52,-0.04,14.37,-5.38,-3.71,-0.45,-1.90,-0.45,0.00
4.833,0.58,-0.45,-0.10,14.37,-5.38,-3.71,-0.45,-1.90,-0.45,0.00
4.833,0.58,-0.45,-0.10,14.37,-5.38,-3.71,-0.73,-2.09,-0.58,0.00
4.834,0.58,-0.45,-0.10,14.86,-4.63,-4.55,-0.73,-2.09,-0.58,0.00
4.835,0.63,-0.36,-0.19,14.86,-4.63,-4.55,-0.73,-2.09,-0.58,0.00
4.835,0.63,-0.36,-0.19,14.86,-4.63,-4.55,-1.01,-2.22,-0.63,0.00
4.836,0.63,-0.36,-0.19,15.25,-3.67,-5.65,-1.01,-2.22,-0.63,0.00
4.842,0.68,-0.31,-0.27,15.25,-3.67,-5.65,-1.01,-2.22,-0.63,0.00
4.844,0.68,-0.31,-0.27,15.25,-3.67,-5.65,-1.30,-2.23,-0.61,0.00
4.844,0.68,-0.31,-0.27,15.60,-2.99,-6.63,-1.30,-2.23,-0.61,0.00
4.852,0.68,-0.30,-0.30,15.60,-2.99,-6.63,-1.30,-2.23,-0.61,0.00
4.853,0.68,-0.30,-0.30,15.60,-2.99,-6.63,-1.60,-2.08,-0.55,0.00
4.854,0.68,-0.30,-0.30,15.52,-2.80,-7.09,-1.60,-2.08,-0.55,0.00
4.863,0.61,-0.38,-0.42,15.52,-2.80,-7.09,-1.60,-2.08,-0.55,0.00
4.864,0.61,-0.38,-0.42,15.52,-2.80,-7.09,-1.86,-1.80,-0.49,0.00
4.865,0.61,-0.38,-0.42,14.83,-3.49,-8.38,-1.86,-1.80,-0.49,0.00
4.872,0.51,-0.51,-0.41,14.83,-3.49,-8.38,-1.86,-1.80,-0.49,0.00
4.873,0.51,-0.51,-0.41,14.83,-3.49,-8.38,-2.13,-1.36,-0.45,0.00
4.874,0.51,-0.51,-0.41,13.74,-4.57,-8.40,-2.13,-1.36,-0.45,0.00
4.883,0.24,-0.66,-0.24,13.74,-4.57,-8.40,-2.13,-1.36,-0.45,0.00
4.884,0.24,-0.66,-0.24,13.74,-4.57,-8.40,-2.43,-0.75,-0.51,0.00
4.884,0.24,-0.66,-0.24,11.08,-5.92,-6.83,-2.43,-0.75,-0.51,0.00
4.892,-0.08,-0.83,0.03,11.08,-5.92,-6.83,-2.43,-0.75,-0.51,0.00
4.893,-0.08,-0.83,0.03,11.08,-5.92,-6.83,-2.68,-0.13,-0.57,0.00
4.894,-0.08,-0.83,0.03,7.88,-7.41,-4.19,-2.68,-0.13,-0.57,0.00
4.903,-0.47,-1.09,0.44,7.88,-7.41,-4.19,-2.68,-0.13,-0.57,0.00
4.905,-0.47,-1.09,0.44,7.88,-7.41,-4.19,-2.86,0.45,-0.54,0.00
4.906,-0.47,-1.09,0.44,4.14,-9.85,-0.11,-2.86,0.45,-0.54,0.00
4.951,-0.97,-1.32,0.83,4.14,-9.85,-0.11,-2.86,0.45,-0.54,0.00
4.953,-0.97,-1.32,0.83,4.14,-9.85,-0.11,-2.95,0.95,-0.58,0.00
4.954,-0.97,-1.32,0.83,-0.74,-11.85,3.80,-2.95,0.95,-0.58,0.00
4.955,-1.98,-1.41,1.06,-0.74,-11.85,3.80,-2.95,0.95,-0.58,0.00
4.956,-1.98,-1.41,1.06,-0.74,-11.85,3.80,-3.07,1.23,-0.73,0.00
4.957,-1.98,-1.41,1.06,-10.56,-12.56,6.25,-3.07,1.23,-0.73,0.00
4.958,-3.38,-1.26,1.35,-10.56,-12.56,6.25,-3.07,1.23,-0.73,0.00
4.959,-3.38,-1.26,1.35,-10.56,-12.56,6.25,-3.43,1.36,-0.98,0.00
4.96,-3.38,-1.26,1.35,-24.25,-10.82,9.22,-3.43,1.36,-0.98,0.00
4.962,-3.79,-0.84,1.74,-24.25,-10.82,9.22,-3.43,1.36,-0.98,0.00
4.963,-3.79,-0.84,1.74,-24.25,-10.82,9.22,-3.65,1.33,-1.08,0.00
4.964,-3.79,-0.84,1.74,-28.27,-6.53,13.30,-3.65,1.33,-1.08,0.00
4.965,-3.14,-0.57,1.59,-28.27,-6.53,13.30,-3.65,1.33,-1.08,0.00
4.966,-3.14,-0.57,1.59,-28.27,-6.53,13.30,-3.37,0.36,-0.76,0.00
4.967,-3.14,-0.57,1.59,-21.89,-3.68,11.93,-3.37,0.36,-0.76,0.00
4.968,-2.51,-0.49,1.25,-21.89,-3.68,11.93,-3.37,0.36,-0.76,0.00
4.969,-2.51,-0.49,1.25,-21.89,-3.68,11.93,-3.03,-1.32,-0.39,0.00
4.97,-2.51,-0.49,1.25,-15.74,-2.75,8.47,-3.03,-1.32,-0.39,0.00
4.973,-2.30,-0.27,1.04,-15.74,-2.75,8.47,-3.03,-1.32,-0.39,0.00
4.975,-2.30,-0.27,1.04,-15.74,-2.75,8.47,-2.99,-2.23,-0.26,0.00
4.975,-2.30,-0.27,1.04,-13.76,-0.42,6.27,-2.99,-2.23,-0.26,0.00
4.984,-2.21,-0.07,1.01,-13.76,-0.42,6.27,-2.99,-2.23,-0.26,0.00
4.986,-2.21,-0.07,1.01,-13.76,-0.42,6.27,-3.10,-1.91,-0.23,0.00
4.987,-2.21,-0.07,1.01,-13.05,1.67,5.92,-3.10,-1.91,-0.23,0.00
4.993,-2.10,0.06,1.09,-13.05,1.67,5.92,-3.10,-1.91,-0.23,0.00
4.994,-2.10,0.06,1.09,-13.05,1.67,5.92,-3.19,-1.09,-0.20,0.00
4.995,-2.10,0.06,1.09,-12.01,3.04,6.67,-3.19,-1.09,-0.20,0.00
5.004,-1.93,0.11,1.19,-12.01,3.04,6.67,-3.19,-1.09,-0.20,0.00
5.005,-1.93,0.11,1.19,-12.01,3.04,6.67,-3.24,-0.66,-0.20,0.00
5.006,-1.93,0.11,1.19,-10.34,3.73,7.66,-3.24,-0.66,-0.20,0.00
5.034,-1.77,0.16,1.19,-10.34,3.73,7.66,-3.24,-0.66,-0.20,0.00
5.035,-1.77,0.16,1.19,-10.34,3.73,7.66,-3.25,-0.75,-0.27,0.00
5.036,-1.77,0.16,1.19,-8.80,4.41,7.74,-3.25,-0.75,-0.27,0.00
5.037,-1.61,0.21,1.13,-8.80,4.41,7.74,-3.25,-0.75,-0.27,0.00
5.037,-1.61,0.21,1.13,-8.80,4.41,7.74,-3.19,-0.97,-0.41,0.00
5.038,-1.61,0.21,1.13,-7.30,4.99,7.16,-3.19,-0.97,-0.41,0.00
5.04,-1.43,0.23,1.05,-7.30,4.99,7.16,-3.19,-0.97,-0.41,0.00
5.041,-1.43,0.23,1.05,-7.30,4.99,7.16,-3.05,-1.24,-0.54,0.00
5.042,-1.43,0.23,1.05,-5.62,5.38,6.30,-3.05,-1.24,-0.54,0.00
5.044,-1.18,0.25,0.88,-5.62,5.38,6.30,-3.05,-1.24,-0.54,0.00
5.045,-1.18,0.25,0.88,-5.62,5.38,6.30,-2.81,-1.54,-0.62,0.00
5.046,-1.18,0.25,0.88,-3.20,5.72,4.64,-2.81,-1.54,-0.62,0.00
5.054,-0.91,0.29,0.67,-3.20,5.72,4.64,-2.81,-1.54,-0.62,0.00
5.055,-0.91,0.29,0.67,-3.20,5.72,4.64,-2.52,-1.80,-0.67,0.00
5.056,-0.91,0.29,0.67,-0.65,6.25,2.54,-2.52,-1.80,-0.67,0.00
5.065,-0.67,0.35,0.47,-0.65,6.25,2.54,-2.52,-1.80,-0.67,0.00
5.066,-0.67,0.35,0.47,-0.65,6.25,2.54,-2.22,-2.01,-0.71,0.00
5.067,-0.67,0.35,0.47,1.55,7.03,0.43,-2.22,-2.01,-0.71,0.00
5.074,-0.45,0.43,0.30,1.55,7.03,0.43,-2.22,-2.01,-0.71,0.00
5.075,-0.45,0.43,0.30,1.55,7.03,0.43,-1.91,-2.10,-0.70,0.00
5.076,-0.45,0.43,0.30,3.55,7.92,-1.32,-1.91,-2.10,-0.70,0.00
5.085,-0.28,0.52,0.19,3.55,7.92,-1.32,-1.91,-2.10,-0.70,0.00
5.086,-0.28,0.52,0.19,3.55,7.92,-1.32,-1.57,-2.03,-0.66,0.00
5.087,-0.28,0.52,0.19,5.11,8.97,-2.52,-1.57,-2.03,-0.66,0.00
5.094,-0.15,0.62,0.15,5.11,8.97,-2.52,-1.57,-2.03,-0.66,0.00
5.095,-0.15,0.62,0.15,5.11,8.97,-2.52,-1.23,-1.83,-0.61,0.00
5.096,-0.15,0.62,0.15,6.36,10.07,-2.98,-1.23,-1.83,-0.61,0.00
5.105,-0.03,0.73,0.17,6.36,10.07,-2.98,-1.23,-1.83,-0.61,0.00
5.107,-0.03,0.73,0.17,6.36,10.07,-2.98,-0.89,-1.56,-0.59,0.00
5.108,-0.03,0.73,0.17,7.44,11.20,-2.90,-0.89,-1.56,-0.59,0.00
5.157,-0.02,0.87,0.11,7.44,11.20,-2.90,-0.89,-1.56,-0.59,0.00
5.158,-0.02,0.87,0.11,7.44,11.20,-2.90,-0.53,-1.28,-0.59,0.00
5.16,-0.02,0.87,0.11,7.41,12.65,-3.54,-0.53,-1.28,-0.59,0.00
5.161,-0.09,0.98,0.06,7.41,12.65,-3.54,-0.53,-1.28,-0.59,0.00
5.162,-0.09,0.98,0.06,7.41,12.65,-3.54,-0.19,-0.97,-0.59,0.00
5.163,-0.09,0.98,0.06,6.69,13.74,-4.12,-0.19,-0.97,-0.59,0.00
5.164,-0.21,1.01,0.03,6.69,13.74,-4.12,-0.19,-0.97,-0.59,0.00
5.166,-0.21,1.01,0.03,6.69,13.74,-4.12,0.10,-0.57,-0.57,0.00
5.167,-0.21,1.01,0.03,5.47,14.12,-4.38,0.10,-0.57,-0.57,0.00
5.168,-0.31,1.01,0.06,5.47,14.12,-4.38,0.10,-0.57,-0.57,0.00
5.169,-0.31,1.01,0.06,5.47,14.12,-4.38,0.36,-0.09,-0.54,0.00
5.17,-0.31,1.01,0.06,4.38,14.17,-4.18,0.36,-0.09,-0.54,0.00
5.171,-0.40,0.99,0.15,4.38,14.17,-4.18,0.36,-0.09,-0.54,0.00
5.172,-0.40,0.99,0.15,4.38,14.17,-4.18,0.61,0.41,-0.48,0.00
5.173,-0.40,0.99,0.15,3.52,13.99,-3.28,0.61,0.41,-0.48,0.00
5.174,-0.48,1.00,0.21,3.52,13.99,-3.28,0.61,0.41,-0.48,0.00
5.175,-0.48,1.00,0.21,3.52,13.99,-3.28,0.88,0.83,-0.39,0.00
5.176,-0.48,1.00,0.21,2.81,14.03,-2.64,0.88,0.83,-0.39,0.00
5.177,-0.51,1.02,0.33,2.81,14.03,-2.64,0.88,0.83,-0.39,0.00
5.178,-0.51,1.02,0.33,2.81,14.03,-2.64,1.20,1.00,-0.26,0.00
5.179,-0.51,1.02,0.33,2.57,14.23,-1.43,1.20,1.00,-0.26,0.00
5.186,-0.55,1.01,0.45,2.57,14.23,-1.43,1.20,1.00,-0.26,0.00
5.187,-0.55,1.01,0.45,2.57,14.23,-1.43,1.59,0.89,-0.08,0.00
5.188,-0.55,1.01,0.45,2.22,14.06,-0.31,1.59,0.89,-0.08,0.00
5.205,-0.59,0.97,0.50,2.22,14.06,-0.31,1.59,0.89,-0.08,0.00
5.207,-0.59,0.97,0.50,2.22,14.06,-0.31,2.07,0.63,0.14,0.00
5.207,-0.59,0.97,0.50,1.82,13.47,0.14,2.07,0.63,0.14,0.00
5.209,-0.67,0.91,0.56,1.82,13.47,0.14,2.07,0.63,0.14,0.00
5.209,-0.67,0.91,0.56,1.82,13.47,0.14,2.63,0.42,0.42,0.00
5.21,-0.67,0.91,0.56,1.02,12.78,0.69,2.63,0.42,0.42,0.00
5.249,-0.80,0.81,0.64,1.02,12.78,0.69,2.63,0.42,0.42,0.00
5.25,-0.80,0.81,0.64,1.02,12.78,0.69,3.19,0.39,0.76,0.00
5.251,-0.80,0.81,0.64,-0.20,11.62,1.36,3.19,0.39,0.76,0.00
5.252,-0.98,0.71,0.77,-0.20,11.62,1.36,3.19,0.39,0.76,0.00
5.253,-0.98,0.71,0.77,-0.20,11.62,1.36,3.71,0.59,1.16,0.00
5.254,-0.98,0.71,0.77,-1.88,10.30,2.61,3.71,0.59,1.16,0.00
5.255,-1.24,0.61,0.90,-1.88,10.30,2.61,3.71,0.59,1.16,0.00
5.256,-1.24,0.61,0.90,-1.88,10.30,2.61,4.13,1.02,1.59,0.00
5.257,-1.24,0.61,0.90,-4.34,9.04,3.81,4.13,1.02,1.59,0.00
5.258,-1.65,0.53,1.08,-4.34,9.04,3.81,4.13,1.02,1.59,0.00
5.259,-1.65,0.53,1.08,-4.34,9.04,3.81,4.36,1.64,1.97,0.00
5.26,-1.65,0.53,1.08,-8.14,7.86,5.62,4.36,1.64,1.97,0.00
5.261,-2.28,0.33,1.42,-8.14,7.86,5.62,4.36,1.64,1.97,0.00
5.262,-2.28,0.33,1.42,-8.14,7.86,5.62,4.28,2.49,2.23,0.00
5.263,-2.28,0.33,1.42,-14.19,5.50,9.05,4.28,2.49,2.23,0.00
5.267,-3.00,-0.04,1.96,-14.19,5.50,9.05,4.28,2.49,2.23,0.00
5.268,-3.00,-0.04,1.96,-14.19,5.50,9.05,3.97,3.61,2.44,0.00
5.269,-3.00,-0.04,1.96,-20.98,1.49,14.51,3.97,3.61,2.44,0.00
5.276,-3.46,-0.47,2.27,-20.98,1.49,14.51,3.97,3.61,2.44,0.00
5.277,-3.46,-0.47,2.27,-20.98,1.49,14.51,3.79,4.46,2.80,0.00
5.277,-3.46,-0.47,2.27,-25.23,-3.19,17.87,3.79,4.46,2.80,0.00
5.286,-3.39,-0.84,2.25,-25.23,-3.19,17.87,3.79,4.46,2.80,0.00
5.287,-3.39,-0.84,2.25,-25.23,-3.19,17.87,3.91,4.30,3.25,0.00
5.288,-3.39,-0.84,2.25,-24.33,-7.23,18.04,3.91,4.30,3.25,0.00
5.298,-3.21,-1.06,2.01,-24.33,-7.23,18.04,3.91,4.30,3.25,0.00
5.299,-3.21,-1.06,2.01,-24.33,-7.23,18.04,4.09,3.11,3.45,0.00
5.3,-3.21,-1.06,2.01,-22.40,-9.87,15.90,4.09,3.11,3.45,0.00
5.307,-3.10,-1.19,1.83,-22.40,-9.87,15.90,4.09,3.11,3.45,0.00
5.308,-3.10,-1.19,1.83,-22.40,-9.87,15.90,4.11,1.97,3.22,0.00
5.308,-3.10,-1.19,1.83,-21.30,-11.55,14.27,4.11,1.97,3.22,0.00
5.317,-2.72,-1.26,1.73,-21.30,-11.55,14.27,4.11,1.97,3.22,0.00
5.319,-2.72,-1.26,1.73,-21.30,-11.55,14.27,3.99,1.71,2.72,0.00
5.32,-2.72,-1.26,1.73,-17.47,-12.71,13.47,3.99,1.71,2.72,0.00
5.327,-2.27,-1.19,1.56,-17.47,-12.71,13.47,3.99,1.71,2.72,0.00
5.328,-2.27,-1.19,1.56,-17.47,-12.71,13.47,3.85,1.54,2.28,0.00
5.33,-2.27,-1.19,1.56,-13.08,-12.36,12.01,3.85,1.54,2.28,0.00
5.341,-1.87,-1.03,1.19,-13.08,-12.36,12.01,3.85,1.54,2.28,0.00
5.343,-1.87,-1.03,1.19,-13.08,-12.36,12.01,3.76,0.88,1.90,0.00
5.344,-1.87,-1.03,1.19,-9.10,-11.09,8.45,3.76,0.88,1.90,0.00
5.392,-1.44,-0.94,0.76,-9.10,-11.09,8.45,3.76,0.88,1.90,0.00
5.393,-1.44,-0.94,0.76,-9.10,-11.09,8.45,3.64,0.41,1.56,0.00
5.395,-1.44,-0.94,0.76,-4.84,-10.44,4.29,3.64,0.41,1.56,0.00
5.396,-1.07,-0.85,0.42,-4.84,-10.44,4.29,3.64,0.41,1.56,0.00
5.398,-1.07,-0.85,0.42,-4.84,-10.44,4.29,3.47,0.51,1.23,0.00
5.399,-1.07,-0.85,0.42,-1.29,-9.81,1.09,3.47,0.51,1.23,0.00
5.401,-0.80,-0.73,0.31,-1.29,-9.81,1.09,3.47,0.51,1.23,0.00
5.403,-0.80,-0.73,0.31,-1.29,-9.81,1.09,3.20,0.92,0.88,0.00
5.404,-0.80,-0.73,0.31,1.40,-8.76,0.15,3.20,0.92,0.88,0.00
5.406,-0.64,-0.62,0.32,1.40,-8.76,0.15,3.20,0.92,0.88,0.00
5.407,-0.64,-0.62,0.32,1.40,-8.76,0.15,2.84,1.27,0.53,0.00
5.407,-0.64,-0.62,0.32,3.00,-7.80,0.45,2.84,1.27,0.53,0.00
5.408,-0.51,-0.60,0.36,3.00,-7.80,0.45,2.84,1.27,0.53,0.00
5.409,-0.51,-0.60,0.36,3.00,-7.80,0.45,2.47,1.40,0.21,0.00
5.41,-0.51,-0.60,0.36,4.34,-7.68,1.01,2.47,1.40,0.21,0.00
5.411,-0.31,-0.64,0.34,4.34,-7.68,1.01,2.47,1.40,0.21,0.00
5.412,-0.31,-0.64,0.34,4.34,-7.68,1.01,2.16,1.33,-0.05,0.00
5.412,-0.31,-0.64,0.34,6.28,-8.15,0.95,2.16,1.33,-0.05,0.00
5.413,-0.10,-0.69,0.26,6.28,-8.15,0.95,2.16,1.33,-0.05,0.00
5.414,-0.10,-0.69,0.26,6.28,-8.15,0.95,1.89,1.12,-0.27,0.00
5.415,-0.10,-0.69,0.26,8.37,-8.70,0.33,1.89,1.12,-0.27,0.00
5.42,0.10,-0.74,0.13,8.37,-8.70,0.33,1.89,1.12,-0.27,0.00
5.421,0.10,-0.74,0.13,8.37,-8.70,0.33,1.63,0.84,-0.47,0.00
5.422,0.10,-0.74,0.13,10.38,-9.18,-0.86,1.63,0.84,-0.47,0.00
5.429,0.34,-0.81,0.09,10.38,-9.18,-0.86,1.63,0.84,-0.47,0.00
5.43,0.34,-0.81,0.09,10.38,-9.18,-0.86,1.34,0.57,-0.63,0.00
5.431,0.34,-0.81,0.09,12.71,-9.82,-1.14,1.34,0.57,-0.63,0.00
5.44,0.54,-0.86,0.08,12.71,-9.82,-1.14,1.34,0.57,-0.63,0.00
5.441,0.54,-0.86,0.08,12.71,-9.82,-1.14,1.03,0.28,-0.78,0.00
5.441,0.54,-0.86,0.08,14.74,-10.27,-1.20,1.03,0.28,-0.78,0.00
5.457,0.67,-0.86,0.09,14.74,-10.27,-1.20,1.03,0.28,-0.78,0.00
5.459,0.67,-0.86,0.09,14.74,-10.27,-1.20,0.70,-0.13,-0.93,0.00
5.46,0.67,-0.86,0.09,16.02,-10.19,-1.10,0.70,-0.13,-0.93,0.00
5.461,0.78,-0.84,0.11,16.02,-10.19,-1.10,0.70,-0.13,-0.93,0.00
5.462,0.78,-0.84,0.11,16.02,-10.19,-1.10,0.31,-0.68,-1.06,0.00
5.463,0.78,-0.84,0.11,17.12,-9.84,-1.00,0.31,-0.68,-1.06,0.00
5.508,0.86,-0.79,0.12,17.12,-9.84,-1.00,0.31,-0.68,-1.06,0.00
5.51,0.86,-0.79,0.12,17.12,-9.84,-1.00,-0.13,-1.30,-1.18,0.00
5.511,0.86,-0.79,0.12,17.89,-9.23,-0.99,-0.13,-1.30,-1.18,0.00
5.512,0.87,-0.73,0.09,17.89,-9.23,-0.99,-0.13,-1.30,-1.18,0.00
5.514,0.87,-0.73,0.09,17.89,-9.23,-0.99,-0.58,-1.87,-1.33,0.00
5.515,0.87,-0.73,0.09,17.96,-8.54,-1.52,-0.58,-1.87,-1.33,0.00
5.517,0.84,-0.70,0.03,17.96,-8.54,-1.52,-0.58,-1.87,-1.33,0.00
5.518,0.84,-0.70,0.03,17.96,-8.54,-1.52,-1.01,-2.29,-1.52,0.00
5.519,0.84,-0.70,0.03,17.65,-8.06,-2.30,-1.01,-2.29,-1.52,0.00
5.521,0.83,-0.65,-0.06,17.65,-8.06,-2.30,-1.01,-2.29,-1.52,0.00
5.522,0.83,-0.65,-0.06,17.65,-8.06,-2.30,-1.41,-2.51,-1.66,0.00
5.522,0.83,-0.65,-0.06,17.49,-7.38,-3.38,-1.41,-2.51,-1.66,0.00
5.524,0.81,-0.57,-0.15,17.49,-7.38,-3.38,-1.41,-2.51,-1.66,0.00
5.525,0.81,-0.57,-0.15,17.49,-7.38,-3.38,-1.80,-2.58,-1.77,0.00
5.525,0.81,-0.57,-0.15,17.25,-6.37,-4.61,-1.80,-2.58,-1.77,0.00
5.527,0.81,-0.50,-0.24,17.25,-6.37,-4.61,-1.80,-2.58,-1.77,0.00
5.528,0.81,-0.50,-0.24,17.25,-6.37,-4.61,-2.16,-2.53,-1.81,0.00
5.528,0.81,-0.50,-0.24,17.15,-5.48,-5.66,-2.16,-2.53,-1.81,0.00
5.53,0.79,-0.50,-0.33,17.15,-5.48,-5.66,-2.16,-2.53,-1.81,0.00
5.531,0.79,-0.50,-0.33,17.15,-5.48,-5.66,-2.48,-2.32,-1.78,0.00
5.532,0.79,-0.50,-0.33,16.85,-5.23,-6.79,-2.48,-2.32,-1.78,0.00
5.539,0.73,-0.53,-0.42,16.85,-5.23,-6.79,-2.48,-2.32,-1.78,0.00
5.54,0.73,-0.53,-0.42,16.85,-5.23,-6.79,-2.73,-1.94,-1.69,0.00
5.541,0.73,-0.53,-0.42,16.23,-5.25,-7.87,-2.73,-1.94,-1.69,0.00
5.556,0.59,-0.63,-0.27,16.23,-5.25,-7.87,-2.73,-1.94,-1.69,0.00
5.558,0.59,-0.63,-0.27,16.23,-5.25,-7.87,-2.95,-1.33,-1.57,0.00
5.559,0.59,-0.63,-0.27,14.77,-6.00,-6.48,-2.95,-1.33,-1.57,0.00
5.56,0.29,-0.77,0.05,14.77,-6.00,-6.48,-2.95,-1.33,-1.57,0.00
5.561,0.29,-0.77,0.05,14.77,-6.00,-6.48,-3.10,-0.64,-1.55,0.00
5.562,0.29,-0.77,0.05,11.85,-7.06,-3.39,-3.10,-0.64,-1.55,0.00
5.598,-0.14,-0.94,0.39,11.85,-7.06,-3.39,-3.10,-0.64,-1.55,0.00
5.6,-0.14,-0.94,0.39,11.85,-7.06,-3.39,-3.10,-0.04,-1.57,0.00
5.601,-0.14,-0.94,0.39,7.58,-8.51,-0.10,-3.10,-0.04,-1.57,0.00
5.602,-0.77,-1.05,0.69,7.58,-8.51,-0.10,-3.10,-0.04,-1.57,0.00
5.603,-0.77,-1.05,0.69,7.58,-8.51,-0.10,-2.96,0.42,-1.53,0.00
5.604,-0.77,-1.05,0.69,1.40,-9.36,2.88,-2.96,0.42,-1.53,0.00
5.606,-1.56,-1.12,0.84,1.40,-9.36,2.88,-2.96,0.42,-1.53,0.00
5.607,-1.56,-1.12,0.84,1.40,-9.36,2.88,-2.86,0.79,-1.39,0.00
5.608,-1.56,-1.12,0.84,-6.34,-9.75,4.45,-2.86,0.79,-1.39,0.00
5.61,-3.03,-1.16,0.93,-6.34,-9.75,4.45,-2.86,0.79,-1.39,0.00
5.611,-3.03,-1.16,0.93,-6.34,-9.75,4.45,-3.17,1.15,-1.29,0.00
5.612,-3.03,-1.16,0.93,-20.69,-9.93,5.55,-3.17,1.15,-1.29,0.00
5.613,-4.10,-0.92,1.57,-20.69,-9.93,5.55,-3.17,1.15,-1.29,0.00
5.615,-4.10,-0.92,1.57,-20.69,-9.93,5.55,-3.79,1.64,-1.49,0.00
5.616,-4.10,-0.92,1.57,-31.19,-7.27,11.98,-3.79,1.64,-1.49,0.00
5.621,-3.67,-0.85,1.96,-31.19,-7.27,11.98,-3.79,1.64,-1.49,0.00
5.623,-3.67,-0.85,1.96,-31.19,-7.27,11.98,-3.94,1.41,-1.46,0.00
5.624,-3.67,-0.85,1.96,-26.92,-6.38,16.05,-3.94,1.41,-1.46,0.00
5.633,-2.82,-0.92,1.57,-26.92,-6.38,16.05,-3.94,1.41,-1.46,0.00
5.635,-2.82,-0.92,1.57,-26.92,-6.38,16.05,-3.61,-0.56,-1.13,0.00
5.636,-2.82,-0.92,1.57,-18.60,-6.80,12.19,-3.61,-0.56,-1.13,0.00
5.64,-2.39,-0.77,1.01,-18.60,-6.80,12.19,-3.61,-0.56,-1.13,0.00
5.641,-2.39,-0.77,1.01,-18.60,-6.80,12.19,-3.41,-2.71,-0.92,0.00
5.642,-2.39,-0.77,1.01,-14.55,-5.11,6.57,-3.41,-2.71,-0.92,0.00
5.651,-2.29,-0.48,0.73,-14.55,-5.11,6.57,-3.41,-2.71,-0.92,0.00
5.652,-2.29,-0.48,0.73,-14.55,-5.11,6.57,-3.43,-3.21,-0.95,0.00
5.653,-2.29,-0.48,0.73,-13.71,-2.12,3.60,-3.43,-3.21,-0.95,0.00
5.659,-2.13,-0.34,0.83,-13.71,-2.12,3.60,-3.43,-3.21,-0.95,0.00
5.66,-2.13,-0.34,0.83,-13.71,-2.12,3.60,-3.48,-2.18,-1.00,0.00
5.661,-2.13,-0.34,0.83,-12.22,-0.54,4.49,-3.48,-2.18,-1.00,0.00
5.673,-1.97,-0.28,1.07,-12.22,-0.54,4.49,-3.48,-2.18,-1.00,0.00
5.674,-1.97,-0.28,1.07,-12.22,-0.54,4.49,-3.50,-1.00,-1.06,0.00
5.675,-1.97,-0.28,1.07,-10.67,0.33,6.86,-3.50,-1.00,-1.06,0.00
5.719,-1.89,-0.17,1.11,-10.67,0.33,6.86,-3.50,-1.00,-1.06,0.00
5.721,-1.89,-0.17,1.11,-10.67,0.33,6.86,-3.45,-0.72,-1.21,0.00
5.722,-1.89,-0.17,1.11,-10.01,1.63,7.32,-3.45,-0.72,-1.21,0.00
5.723,-1.82,-0.04,1.05,-10.01,1.63,7.32,-3.45,-0.72,-1.21,0.00
5.725,-1.82,-0.04,1.05,-10.01,1.63,7.32,-3.31,-0.96,-1.43,0.00
5.725,-1.82,-0.04,1.05,-9.37,3.11,6.79,-3.31,-0.96,-1.43,0.00
5.727,-1.66,0.03,0.97,-9.37,3.11,6.79,-3.31,-0.96,-1.43,0.00
5.728,-1.66,0.03,0.97,-9.37,3.11,6.79,-3.09,-1.04,-1.63,0.00
5.73,-1.66,0.03,0.97,-7.87,4.05,5.95,-3.09,-1.04,-1.63,0.00
5.732,-1.45,0.05,0.88,-7.87,4.05,5.95,-3.09,-1.04,-1.63,0.00
5.733,-1.45,0.05,0.88,-7.87,4.05,5.95,-2.81,-1.02,-1.79,0.00
5.734,-1.45,0.05,0.88,-5.98,4.47,5.15,-2.81,-1.02,-1.79,0.00
5.735,-1.31,0.02,0.88,-5.98,4.47,5.15,-2.81,-1.02,-1.79,0.00
5.736,-1.31,0.02,0.88,-5.98,4.47,5.15,-2.52,-1.10,-1.90,0.00
5.737,-1.31,0.02,0.88,-4.71,4.47,5.15,-2.52,-1.10,-1.90,0.00
5.738,-1.16,-0.03,0.85,-4.71,4.47,5.15,-2.52,-1.10,-1.90,0.00
5.739,-1.16,-0.03,0.85,-4.71,4.47,5.15,-2.18,-1.15,-1.88,0.00
5.74,-1.16,-0.03,0.85,-3.39,4.17,4.91,-2.18,-1.15,-1.88,0.00
5.741,-1.00,-0.06,0.84,-3.39,4.17,4.91,-2.18,-1.15,-1.88,0.00
5.742,-1.00,-0.06,0.84,-3.39,4.17,4.91,-1.78,-1.05,-1.73,0.00
5.743,-1.00,-0.06,0.84,-1.94,4.14,4.78,-1.78,-1.05,-1.73,0.00
5.751,-0.89,-0.03,0.79,-1.94,4.14,4.78,-1.78,-1.05,-1.73,0.00
5.752,-0.89,-0.03,0.79,-1.94,4.14,4.78,-1.34,-0.89,-1.51,0.00
5.753,-0.89,-0.03,0.79,-0.92,4.58,4.24,-1.34,-0.89,-1.51,0.00
5.762,-0.81,0.07,0.64,-0.92,4.58,4.24,-1.34,-0.89,-1.51,0.00
5.763,-0.81,0.07,0.64,-0.92,4.58,4.24,-0.91,-0.79,-1.22,0.00
5.764,-0.81,0.07,0.64,-0.26,5.67,2.83,-0.91,-0.79,-1.22,0.00
5.779,-0.77,0.23,0.54,-0.26,5.67,2.83,-0.91,-0.79,-1.22,0.00
5.784,-0.77,0.23,0.54,-0.26,5.67,2.83,-0.54,-0.76,-0.88,0.00
5.785,-0.77,0.23,0.54,0.11,7.34,1.80,-0.54,-0.76,-0.88,0.00
5.786,-0.66,0.41,0.42,0.11,7.34,1.80,-0.54,-0.76,-0.88,0.00
5.787,-0.66,0.41,0.42,0.11,7.34,1.80,-0.21,-0.83,-0.51,0.00
5.789,-0.66,0.41,0.42,1.09,9.11,0.55,-0.21,-0.83,-0.51,0.00
5.79,-0.52,0.61,0.31,1.09,9.11,0.55,-0.21,-0.83,-0.51,0.00
5.791,-0.52,0.61,0.31,1.09,9.11,0.55,0.10,-0.99,-0.18,0.00
5.792,-0.52,0.61,0.31,2.46,11.06,-0.63,0.10,-0.99,-0.18,0.00
5.822,-0.39,0.81,0.23,2.46,11.06,-0.63,0.10,-0.99,-0.18,0.00
5.824,-0.39,0.81,0.23,2.46,11.06,-0.63,0.40,-1.13,0.05,0.00
5.825,-0.39,0.81,0.23,3.71,12.99,-1.46,0.40,-1.13,0.05,0.00
5.825,-0.26,0.95,0.19,3.71,12.99,-1.46,0.40,-1.13,0.05,0.00
5.826,-0.26,0.95,0.19,3.71,12.99,-1.46,0.66,-1.16,0.14,0.00
5.827,-0.26,0.95,0.19,4.92,14.38,-2.01,0.66,-1.16,0.14,0.00
5.828,-0.24,1.08,0.10,4.92,14.38,-2.01,0.66,-1.16,0.14,0.00
5.829,-0.24,1.08,0.10,4.92,14.38,-2.01,0.91,-1.05,0.15,0.00
5.83,-0.24,1.08,0.10,5.02,15.62,-3.00,0.91,-1.05,0.15,0.00
5.831,-0.27,1.15,-0.01,5.02,15.62,-3.00,0.91,-1.05,0.15,0.00
5.832,-0.27,1.15,-0.01,5.02,15.62,-3.00,1.11,-0.79,0.18,0.00
5.834,-0.27,1.15,-0.01,4.76,16.19,-4.21,1.11,-0.79,0.18,0.00
5.848,-0.33,1.18,-0.06,4.76,16.19,-4.21,1.11,-0.79,0.18,0.00
5.85,-0.33,1.18,-0.06,4.76,16.19,-4.21,1.26,-0.44,0.28,0.00
5.85,-0.33,1.18,-0.06,4.15,16.45,-4.81,1.26,-0.44,0.28,0.00
5.852,-0.39,1.18,-0.04,4.15,16.45,-4.81,1.26,-0.44,0.28,0.00
5.853,-0.39,1.18,-0.04,4.15,16.45,-4.81,1.40,-0.12,0.42,0.00
5.854,-0.39,1.18,-0.04,3.55,16.36,-4.72,1.40,-0.12,0.42,0.00
5.862,-0.41,1.18,0.01,3.55,16.36,-4.72,1.40,-0.12,0.42,0.00
5.863,-0.41,1.18,0.01,3.55,16.36,-4.72,1.61,0.10,0.61,0.00
5.863,-0.41,1.18,0.01,3.41,16.19,-4.27,1.61,0.10,0.61,0.00
5.872,-0.40,1.16,0.08,3.41,16.19,-4.27,1.61,0.10,0.61,0.00
5.873,-0.40,1.16,0.08,3.41,16.19,-4.27,1.90,0.22,0.85,0.00
5.874,-0.40,1.16,0.08,3.56,15.86,-3.63,1.90,0.22,0.85,0.00
5.888,-0.41,1.12,0.19,3.56,15.86,-3.63,1.90,0.22,0.85,0.00
5.889,-0.41,1.12,0.19,3.56,15.86,-3.63,2.24,0.26,1.09,0.00
5.89,-0.41,1.12,0.19,3.51,15.36,-2.62,2.24,0.26,1.09,0.00
5.893,-0.47,1.05,0.34,3.51,15.36,-2.62,2.24,0.26,1.09,0.00
5.894,-0.47,1.05,0.34,3.51,15.36,-2.62,2.57,0.22,1.30,0.00
5.894,-0.47,1.05,0.34,3.03,14.39,-1.27,2.57,0.22,1.30,0.00
5.92,-0.55,0.93,0.53,3.03,14.39,-1.27,2.57,0.22,1.30,0.00
5.922,-0.55,0.93,0.53,3.03,14.39,-1.27,2.93,0.14,1.49,0.00
5.922,-0.55,0.93,0.53,2.25,12.94,0.49,2.93,0.14,1.49,0.00
5.923,-0.69,0.80,0.68,2.25,12.94,0.49,2.93,0.14,1.49,0.00
5.924,-0.69,0.80,0.68,2.25,12.94,0.49,3.32,0.10,1.68,0.00
5.924,-0.69,0.80,0.68,0.97,11.42,1.84,3.32,0.10,1.68,0.00
5.925,-0.89,0.65,0.91,0.97,11.42,1.84,3.32,0.10,1.68,0.00
5.926,-0.89,0.65,0.91,0.97,11.42,1.84,3.71,0.20,1.88,0.00
5.927,-0.89,0.65,0.91,-0.90,9.63,3.98,3.71,0.20,1.88,0.00
5.933,-1.18,0.47,1.16,-0.90,9.63,3.98,3.71,0.20,1.88,0.00
5.934,-1.18,0.47,1.16,-0.90,9.63,3.98,4.05,0.47,2.05,0.00
5.935,-1.18,0.47,1.16,-3.66,7.48,6.32,4.05,0.47,2.05,0.00
5.942,-1.71,0.24,1.54,-3.66,7.48,6.32,4.05,0.47,2.05,0.00
5.943,-1.71,0.24,1.54,-3.66,7.48,6.32,4.30,0.94,2.14,0.00
5.944,-1.71,0.24,1.54,-8.76,4.84,9.99,4.30,0.94,2.14,0.00
5.953,-2.53,-0.13,2.00,-8.76,4.84,9.99,4.30,0.94,2.14,0.00
5.954,-2.53,-0.13,2.00,-8.76,4.84,9.99,4.42,1.70,2.16,0.00
5.955,-2.53,-0.13,2.00,-16.67,0.85,14.53,4.42,1.70,2.16,0.00
5.963,-3.43,-0.49,2.45,-16.67,0.85,14.53,4.42,1.70,2.16,0.00
5.965,-3.43,-0.49,2.45,-16.67,0.85,14.53,4.46,2.78,2.26,0.00
5.965,-3.43,-0.49,2.45,-25.26,-3.13,19.11,4.46,2.78,2.26,0.00
5.973,-3.61,-0.90,2.62,-25.26,-3.13,19.11,4.46,2.78,2.26,0.00
5.974,-3.61,-0.90,2.62,-25.26,-3.13,19.11,4.58,3.61,2.63,0.00
5.974,-3.61,-0.90,2.62,-26.80,-7.57,21.00,4.58,3.61,2.63,0.00
5.989,-3.41,-1.18,2.46,-26.80,-7.57,21.00,4.58,3.61,2.63,0.00
5.99,-3.41,-1.18,2.46,-26.80,-7.57,21.00,4.81,3.39,3.03,0.00
5.991,-3.41,-1.18,2.46,-24.71,-10.82,19.70,4.81,3.39,3.03,0.00
5.992,-3.28,-1.36,2.25,-24.71,-10.82,19.70,4.81,3.39,3.03,0.00
5.993,-3.28,-1.36,2.25,-24.71,-10.82,19.70,4.93,2.36,3.06,0.00
5.994,-3.28,-1.36,2.25,-23.33,-13.08,17.80,4.93,2.36,3.06,0.00
6.023,-3.03,-1.52,2.15,-23.33,-13.08,17.80,4.93,2.36,3.06,0.00
6.024,-3.03,-1.52,2.15,-23.33,-13.08,17.80,4.78,1.80,2.77,0.00
6.025,-3.03,-1.52,2.15,-20.74,-15.04,17.02,4.78,1.80,2.77,0.00
6.026,-2.55,-1.61,1.97,-20.74,-15.04,17.02,4.78,1.80,2.77,0.00
6.027,-2.55,-1.61,1.97,-20.74,-15.04,17.02,4.48,1.48,2.43,0.00
6.028,-2.55,-1.61,1.97,-15.98,-16.33,15.41,4.48,1.48,2.43,0.00
6.029,-2.01,-1.46,1.54,-15.98,-16.33,15.41,4.48,1.48,2.43,0.00
6.03,-2.01,-1.46,1.54,-15.98,-16.33,15.41,4.21,0.57,2.10,0.00
6.031,-2.01,-1.46,1.54,-10.69,-15.24,11.27,4.21,0.57,2.10,0.00
6.033,-1.45,-1.28,0.99,-10.69,-15.24,11.27,4.21,0.57,2.10,0.00
6.034,-1.45,-1.28,0.99,-10.69,-15.24,11.27,3.92,-0.38,1.73,0.00
6.035,-1.45,-1.28,0.99,-5.24,-13.76,5.89,3.92,-0.38,1.73,0.00
6.043,-0.88,-1.18,0.54,-5.24,-13.76,5.89,3.92,-0.38,1.73,0.00
6.045,-0.88,-1.18,0.54,-5.24,-13.76,5.89,3.55,-0.68,1.40,0.00
6.045,-0.88,-1.18,0.54,0.27,-13.03,1.45,3.55,-0.68,1.40,0.00
6.054,-0.47,-0.99,0.28,0.27,-13.03,1.45,3.55,-0.68,1.40,0.00
6.055,-0.47,-0.99,0.28,0.27,-13.03,1.45,3.11,-0.41,1.05,0.00
6.056,-0.47,-0.99,0.28,4.30,-11.39,-1.02,3.11,-0.41,1.05,0.00
6.064,-0.27,-0.78,0.23,4.30,-11.39,-1.02,3.11,-0.41,1.05,0.00
6.065,-0.27,-0.78,0.23,4.30,-11.39,-1.02,2.62,0.06,0.62,0.00
6.065,-0.27,-0.78,0.23,6.19,-9.57,-1.48,2.62,0.06,0.62,0.00
6.074,-0.19,-0.72,0.24,6.19,-9.57,-1.48,2.62,0.06,0.62,0.00
6.074,-0.19,-0.72,0.24,6.19,-9.57,-1.48,2.16,0.45,0.19,0.00
6.075,-0.19,-0.72,0.24,7.05,-9.04,-1.29,2.16,0.45,0.19,0.00
6.092,-0.10,-0.71,0.24,7.05,-9.04,-1.29,2.16,0.45,0.19,0.00
6.094,-0.10,-0.71,0.24,7.05,-9.04,-1.29,1.77,0.64,-0.21,0.00
6.095,-0.10,-0.71,0.24,7.88,-8.93,-1.26,1.77,0.64,-0.21,0.00
6.096,0.00,-0.69,0.13,7.88,-8.93,-1.26,1.77,0.64,-0.21,0.00
6.097,0.00,-0.69,0.13,7.88,-8.93,-1.26,1.46,0.62,-0.56,0.00
6.098,0.00,-0.69,0.13,8.97,-8.81,-2.19,1.46,0.62,-0.56,0.00
6.15,0.15,-0.68,-0.01,8.97,-8.81,-2.19,1.46,0.62,-0.56,0.00
6.151,0.15,-0.68,-0.01,8.97,-8.81,-2.19,1.19,0.43,-0.84,0.00
6.152,0.15,-0.68,-0.01,10.48,-8.67,-3.50,1.19,0.43,-0.84,0.00
6.154,0.29,-0.68,-0.12,10.48,-8.67,-3.50,1.19,0.43,-0.84,0.00
6.155,0.29,-0.68,-0.12,10.48,-8.67,-3.50,0.92,0.09,-1.08,0.00
6.156,0.29,-0.68,-0.12,11.81,-8.57,-4.59,0.92,0.09,-1.08,0.00
6.157,0.42,-0.70,-0.21,11.81,-8.57,-4.59,0.92,0.09,-1.08,0.00
6.158,0.42,-0.70,-0.21,11.81,-8.57,-4.59,0.66,-0.28,-1.32,0.00
6.158,0.42,-0.70,-0.21,13.12,-8.69,-5.51,0.66,-0.28,-1.32,0.00
6.159,0.53,-0.68,-0.29,13.12,-8.69,-5.51,0.66,-0.28,-1.32,0.00
6.16,0.53,-0.68,-0.29,13.12,-8.69,-5.51,0.37,-0.63,-1.51,0.00
6.161,0.53,-0.68,-0.29,14.17,-8.33,-6.30,0.37,-0.63,-1.51,0.00
6.162,0.58,-0.62,-0.36,14.17,-8.33,-6.30,0.37,-0.63,-1.51,0.00
6.162,0.58,-0.62,-0.36,14.17,-8.33,-6.30,0.01,-0.97,-1.65,0.00
6.164,0.58,-0.62,-0.36,14.67,-7.64,-7.06,0.01,-0.97,-1.65,0.00
6.165,0.68,-0.59,-0.32,14.67,-7.64,-7.06,0.01,-0.97,-1.65,0.00
6.165,0.68,-0.59,-0.32,14.67,-7.64,-7.06,-0.45,-1.27,-1.77,0.00
6.166,0.68,-0.59,-0.32,15.63,-7.12,-6.82,-0.45,-1.27,-1.77,0.00
6.167,0.65,-0.55,-0.26,15.63,-7.12,-6.82,-0.45,-1.27,-1.77,0.00
6.168,0.65,-0.55,-0.26,15.63,-7.12,-6.82,-0.96,-1.53,-1.91,0.00
6.169,0.65,-0.55,-0.26,15.29,-6.54,-6.41,-0.96,-1.53,-1.91,0.00
6.174,0.60,-0.54,-0.24,15.29,-6.54,-6.41,-0.96,-1.53,-1.91,0.00
6.175,0.60,-0.54,-0.24,15.29,-6.54,-6.41,-1.47,-1.76,-2.07,0.00
6.176,0.60,-0.54,-0.24,14.81,-6.25,-6.36,-1.47,-1.76,-2.07,0.00
6.19,0.57,-0.51,-0.23,14.81,-6.25,-6.36,-1.47,-1.76,-2.07,0.00
6.192,0.57,-0.51,-0.23,14.81,-6.25,-6.36,-1.93,-1.94,-2.21,0.00
6.192,0.57,-0.51,-0.23,14.42,-5.67,-6.41,-1.93,-1.94,-2.21,0.00
6.196,0.55,-0.47,-0.21,14.42,-5.67,-6.41,-1.93,-1.94,-2.21,0.00
6.197,0.55,-0.47,-0.21,14.42,-5.67,-6.41,-2.36,-2.10,-2.30,0.00
6.198,0.55,-0.47,-0.21,14.18,-4.94,-6.47,-2.36,-2.10,-2.30,0.00
6.235,0.55,-0.43,-0.25,14.18,-4.94,-6.47,-2.36,-2.10,-2.30,0.00
6.237,0.55,-0.43,-0.25,14.18,-4.94,-6.47,-2.73,-2.25,-2.30,0.00
6.238,0.55,-0.43,-0.25,14.03,-4.22,-7.03,-2.73,-2.25,-2.30,0.00
6.238,0.55,-0.39,-0.42,14.03,-4.22,-7.03,-2.73,-2.25,-2.30,0.00
6.239,0.55,-0.39,-0.42,14.03,-4.22,-7.03,-3.03,-2.30,-2.20,0.00
6.24,0.55,-0.39,-0.42,13.92,-3.47,-8.90,-3.03,-2.30,-2.20,0.00
6.241,0.53,-0.41,-0.48,13.92,-3.47,-8.90,-3.03,-2.30,-2.20,0.00
6.242,0.53,-0.41,-0.48,13.92,-3.47,-8.90,-3.32,-2.12,-2.06,0.00
6.242,0.53,-0.41,-0.48,13.62,-3.34,-9.66,-3.32,-2.12,-2.06,0.00
6.243,0.47,-0.49,-0.43,13.62,-3.34,-9.66,-3.32,-2.12,-2.06,0.00
6.244,0.47,-0.49,-0.43,13.62,-3.34,-9.66,-3.58,-1.60,-1.89,0.00
6.244,0.47,-0.49,-0.43,12.98,-3.76,-9.28,-3.58,-1.60,-1.89,0.00
6.245,0.31,-0.66,-0.18,12.98,-3.76,-9.28,-3.58,-1.60,-1.89,0.00
6.246,0.31,-0.66,-0.18,12.98,-3.76,-9.28,-3.75,-0.77,-1.66,0.00
6.246,0.31,-0.66,-0.18,11.30,-5.12,-6.88,-3.75,-0.77,-1.66,0.00
6.256,-0.01,-0.89,0.19,11.30,-5.12,-6.88,-3.75,-0.77,-1.66,0.00
6.258,-0.01,-0.89,0.19,11.30,-5.12,-6.88,-3.81,0.21,-1.42,0.00
6.258,-0.01,-0.89,0.19,8.20,-7.03,-3.13,-3.81,0.21,-1.42,0.00
6.268,-0.53,-1.01,0.53,8.20,-7.03,-3.13,-3.81,0.21,-1.42,0.00
6.27,-0.53,-1.01,0.53,8.20,-7.03,-3.13,-3.74,1.12,-1.18,0.00
6.271,-0.53,-1.01,0.53,3.11,-7.95,0.37,-3.74,1.12,-1.18,0.00
6.276,-1.20,-1.03,0.65,3.11,-7.95,0.37,-3.74,1.12,-1.18,0.00
6.277,-1.20,-1.03,0.65,3.11,-7.95,0.37,-3.58,1.60,-0.82,0.00
6.278,-1.20,-1.03,0.65,-3.36,-7.94,1.76,-3.58,1.60,-0.82,0.00
6.286,-1.92,-1.08,0.67,-3.36,-7.94,1.76,-3.58,1.60,-0.82,0.00
6.287,-1.92,-1.08,0.67,-3.36,-7.94,1.76,-3.61,1.59,-0.29,0.00
6.288,-1.92,-1.08,0.67,-10.37,-8.23,2.14,-3.61,1.59,-0.29,0.00
6.295,-2.81,-1.29,1.12,-10.37,-8.23,2.14,-3.61,1.59,-0.29,0.00
6.297,-2.81,-1.29,1.12,-10.37,-8.23,2.14,-4.03,1.72,0.03,0.00
6.297,-2.81,-1.29,1.12,-19.00,-10.13,6.79,-4.03,1.72,0.03,0.00
6.31,-3.42,-1.21,1.98,-19.00,-10.13,6.79,-4.03,1.72,0.03,0.00
6.311,-3.42,-1.21,1.98,-19.00,-10.13,6.79,-4.54,2.22,-0.40,0.00
6.312,-3.42,-1.21,1.98,-24.90,-9.06,15.56,-4.54,2.22,-0.40,0.00
6.366,-3.26,-1.15,2.36,-24.90,-9.06,15.56,-4.54,2.22,-0.40,0.00
6.367,-3.26,-1.15,2.36,-24.90,-9.06,15.56,-4.61,1.82,-0.74,0.00
6.368,-3.26,-1.15,2.36,-23.29,-8.26,19.55,-4.61,1.82,-0.74,0.00
6.37,-2.94,-1.07,2.09,-23.29,-8.26,19.55,-4.61,1.82,-0.74,0.00
6.371,-2.94,-1.07,2.09,-23.29,-8.26,19.55,-4.26,-0.19,-0.60,0.00
6.371,-2.94,-1.07,2.09,-20.22,-7.28,17.02,-4.26,-0.19,-0.60,0.00
6.373,-2.71,-0.93,1.46,-20.22,-7.28,17.02,-4.26,-0.19,-0.60,0.00
6.374,-2.71,-0.93,1.46,-20.22,-7.28,17.02,-3.82,-2.52,-0.48,0.00
6.375,-2.71,-0.93,1.46,-18.06,-5.74,10.72,-3.82,-2.52,-0.48,0.00
6.376,-2.39,-0.84,1.12,-18.06,-5.74,10.72,-3.82,-2.52,-0.48,0.00
6.377,-2.39,-0.84,1.12,-18.06,-5.74,10.72,-3.52,-3.37,-0.43,0.00
6.378,-2.39,-0.84,1.12,-15.05,-4.70,7.28,-3.52,-3.37,-0.43,0.00
6.379,-2.01,-0.77,1.09,-15.05,-4.70,7.28,-3.52,-3.37,-0.43,0.00
6.38,-2.01,-0.77,1.09,-15.05,-4.70,7.28,-3.30,-2.60,-0.42,0.00
6.381,-2.01,-0.77,1.09,-11.46,-3.82,6.91,-3.30,-2.60,-0.42,0.00
6.382,-1.77,-0.66,1.13,-11.46,-3.82,6.91,-3.30,-2.60,-0.42,0.00
6.383,-1.77,-0.66,1.13,-11.46,-3.82,6.91,-3.01,-1.55,-0.42,0.00
6.384,-1.77,-0.66,1.13,-9.21,-2.59,7.22,-3.01,-1.55,-0.42,0.00
6.385,-1.71,-0.48,1.12,-9.21,-2.59,7.22,-3.01,-1.55,-0.42,0.00
6.388,-1.71,-0.48,1.12,-9.21,-2.59,7.22,-2.63,-0.95,-0.46,0.00
6.389,-1.71,-0.48,1.12,-8.67,-0.72,7.20,-2.63,-0.95,-0.46,0.00
6.389,-1.63,-0.31,1.07,-8.67,-0.72,7.20,-2.63,-0.95,-0.46,0.00
6.39,-1.63,-0.31,1.07,-8.67,-0.72,7.20,-2.22,-0.61,-0.59,0.00
6.391,-1.63,-0.31,1.07,-7.88,1.05,6.72,-2.22,-0.61,-0.59,0.00
6.397,-1.47,-0.16,1.01,-7.88,1.05,6.72,-2.22,-0.61,-0.59,0.00
6.398,-1.47,-0.16,1.01,-7.88,1.05,6.72,-1.83,-0.28,-0.74,0.00
6.399,-1.47,-0.16,1.01,-6.39,2.71,6.21,-1.83,-0.28,-0.74,0.00
6.411,-1.28,-0.04,0.93,-6.39,2.71,6.21,-1.83,-0.28,-0.74,0.00
6.412,-1.28,-0.04,0.93,-6.39,2.71,6.21,-1.47,-0.06,-0.86,0.00
6.413,-1.28,-0.04,0.93,-4.55,4.01,5.42,-1.47,-0.06,-0.86,0.00
6.455,-1.11,0.10,0.84,-4.55,4.01,5.42,-1.47,-0.06,-0.86,0.00
6.456,-1.11,0.10,0.84,-4.55,4.01,5.42,-1.15,-0.10,-0.92,0.00
6.457,-1.11,0.10,0.84,-2.91,5.48,4.62,-1.15,-0.10,-0.92,0.00
6.458,-0.94,0.27,0.71,-2.91,5.48,4.62,-1.15,-0.10,-0.92,0.00
6.458,-0.94,0.27,0.71,-2.91,5.48,4.62,-0.88,-0.39,-0.95,0.00
6.459,-0.94,0.27,0.71,-1.29,7.21,3.35,-0.88,-0.39,-0.95,0.00
6.46,-0.76,0.39,0.54,-1.29,7.21,3.35,-0.88,-0.39,-0.95,0.00
6.461,-0.76,0.39,0.54,-1.29,7.21,3.35,-0.63,-0.80,-0.91,0.00
6.461,-0.76,0.39,0.54,0.37,8.48,1.64,-0.63,-0.80,-0.91,0.00
6.462,-0.60,0.52,0.34,0.37,8.48,1.64,-0.63,-0.80,-0.91,0.00
6.462,-0.60,0.52,0.34,0.37,8.48,1.64,-0.38,-1.17,-0.81,0.00
6.463,-0.60,0.52,0.34,1.83,9.89,-0.42,-0.38,-1.17,-0.81,0.00
6.464,-0.49,0.69,0.19,1.83,9.89,-0.42,-0.38,-1.17,-0.81,0.00
6.465,-0.49,0.69,0.19,1.83,9.89,-0.42,-0.17,-1.41,-0.72,0.00
6.466,-0.49,0.69,0.19,2.82,11.59,-1.95,-0.17,-1.41,-0.72,0.00
6.469,-0.40,0.87,0.10,2.82,11.59,-1.95,-0.17,-1.41,-0.72,0.00
6.47,-0.40,0.87,0.10,2.82,11.59,-1.95,0.03,-1.49,-0.62,0.00
6.471,-0.40,0.87,0.10,3.67,13.36,-2.97,0.03,-1.49,-0.62,0.00
6.477,-0.27,1.00,0.07,3.67,13.36,-2.97,0.03,-1.49,-0.62,0.00
6.478,-0.27,1.00,0.07,3.67,13.36,-2.97,0.23,-1.42,-0.49,0.00
6.478,-0.27,1.00,0.07,4.82,14.70,-3.34,0.23,-1.42,-0.49,0.00
6.487,-0.25,1.14,0.04,4.82,14.70,-3.34,0.23,-1.42,-0.49,0.00
6.488,-0.25,1.14,0.04,4.82,14.70,-3.34,0.44,-1.25,-0.36,0.00
6.489,-0.25,1.14,0.04,4.93,16.13,-3.76,0.44,-1.25,-0.36,0.00
6.497,-0.27,1.26,0.04,4.93,16.13,-3.76,0.44,-1.25,-0.36,0.00
6.498,-0.27,1.26,0.04,4.93,16.13,-3.76,0.64,-1.01,-0.22,0.00
6.499,-0.27,1.26,0.04,4.73,17.22,-3.88,0.64,-1.01,-0.22,0.00
6.507,-0.29,1.27,0.14,4.73,17.22,-3.88,0.64,-1.01,-0.22,0.00
6.508,-0.29,1.27,0.14,4.73,17.22,-3.88,0.82,-0.67,-0.02,0.00
6.509,-0.29,1.27,0.14,4.52,17.31,-3.00,0.82,-0.67,-0.02,0.00
6.524,-0.36,1.24,0.19,4.52,17.31,-3.00,0.82,-0.67,-0.02,0.00
