time;gFx;gFy;gFz;ax;ay;az;wx;wy;wz;P
0.003;-0,45;0,37;0,79;0,12;-0,10;-0,23;-0,02;0,11;-0,05;0,00
0.003;-0,48;0,35;0,79;0,12;-0,10;-0,23;-0,02;0,11;-0,05;0,00
0.003;-0,47;0,38;0,73;0,12;-0,10;-0,23;-0,02;0,11;-0,05;0,00
0.004;-0,46;0,39;0,71;0,12;-0,10;-0,23;-0,02;0,11;-0,05;0,00
0.004;-0,46;0,39;0,71;0,01;0,02;-0,24;-0,02;0,11;-0,05;0,00
0.047;-0,46;0,39;0,71;0,01;0,02;-0,24;-0,08;0,37;-0,02;0,00
0.047;-0,46;0,39;0,71;0,17;0,35;-0,90;-0,08;0,37;-0,02;0,00
0.048;-0,46;0,40;0,70;0,17;0,35;-0,90;-0,08;0,37;-0,02;0,00
0.048;-0,50;0,37;0,68;0,17;0,35;-0,90;-0,08;0,37;-0,02;0,00
0.048;-0,67;0,40;0,69;0,17;0,35;-0,90;-0,08;0,37;-0,02;0,00
0.112;-0,67;0,40;0,69;-0,55;0,19;-0,56;-0,08;0,37;-0,02;0,00
0.113;-0,67;0,40;0,69;-0,55;0,19;-0,56;-0,11;1,21;0,20;0,00
0.113;-0,59;0,35;0,77;-0,55;0,19;-0,56;-0,11;1,21;0,20;0,00
0.113;-0,47;0,34;0,78;-0,55;0,19;-0,56;-0,11;1,21;0,20;0,00
0.114;-0,45;0,36;0,77;-0,55;0,19;-0,56;-0,11;1,21;0,20;0,00
0.163;-0,45;0,36;0,77;1,24;-0,03;0,09;-0,11;1,21;0,20;0,00
0.164;-0,45;0,36;0,77;1,24;-0,03;0,09;-0,09;1,17;0,10;0,00
0.164;-0,43;0,35;0,68;1,24;-0,03;0,09;-0,09;1,17;0,10;0,00
0.164;-0,44;0,35;0,66;1,24;-0,03;0,09;-0,09;1,17;0,10;0,00
0.165;-0,59;0,34;0,70;1,24;-0,03;0,09;-0,09;1,17;0,10;0,00
0.222;-0,59;0,34;0,70;0,52;-0,12;0,60;-0,09;1,17;0,10;0,00
0.222;-0,59;0,34;0,70;0,52;-0,12;0,60;-0,01;2,14;-0,09;0,00
0.223;-0,82;0,33;0,80;0,52;-0,12;0,60;-0,01;2,14;-0,09;0,00
0.223;-0,79;0,29;0,84;0,52;-0,12;0,60;-0,01;2,14;-0,09;0,00
0.224;-0,67;0,27;0,74;0,52;-0,12;0,60;-0,01;2,14;-0,09;0,00
0.256;-0,67;0,27;0,74;0,52;-0,12;0,60;-0,09;0,76;-0,13;0,00
0.257;-0,67;0,27;0,74;0,01;-0,60;0,88;-0,09;0,76;-0,13;0,00
0.257;-0,63;0,28;0,59;0,01;-0,60;0,88;-0,09;0,76;-0,13;0,00
0.316;-0,63;0,28;0,59;0,90;-0,49;1,97;-0,09;0,76;-0,13;0,00
0.317;-0,63;0,28;0,59;0,90;-0,49;1,97;0,09;1,86;-0,24;0,00
0.355;-1,12;0,34;0,50;0,90;-0,49;1,97;0,09;1,86;-0,24;0,00
0.355;-1,09;0,29;0,44;0,90;-0,49;1,97;0,09;1,86;-0,24;0,00
0.394;-1,09;0,29;0,44;-0,97;0,37;-0,56;0,09;1,86;-0,24;0,00
0.395;-1,09;0,29;0,44;-0,97;0,37;-0,56;0,08;2,15;-0,24;0,00
0.396;-0,92;0,35;0,33;-0,97;0,37;-0,56;0,08;2,15;-0,24;0,00
0.396;-0,85;0,44;0,30;-0,97;0,37;-0,56;0,08;2,15;-0,24;0,00
0.397;-0,85;0,34;0,24;-0,97;0,37;-0,56;0,08;2,15;-0,24;0,00
0.452;-0,85;0,34;0,24;-0,97;0,37;-0,56;-0,23;0,69;-0,28;0,00
0.453;-0,85;0,34;0,24;-0,71;-0,20;-0,58;-0,23;0,69;-0,28;0,00
0.454;-0,98;0,27;0,36;-0,71;-0,20;-0,58;-0,23;0,69;-0,28;0,00
0.454;-1,02;0,24;0,36;-0,71;-0,20;-0,58;-0,23;0,69;-0,28;0,00
0.454;-1,07;0,16;0,33;-0,71;-0,20;-0,58;-0,23;0,69;-0,28;0,00
0.511;-1,07;0,16;0,33;-0,71;-0,20;-0,58;-0,30;0,17;-0,01;0,00
0.512;-0,85;0,16;0,43;-0,71;-0,20;-0,58;-0,30;0,17;-0,01;0,00
0.512;-0,91;0,21;0,29;-0,71;-0,20;-0,58;-0,30;0,17;-0,01;0,00
0.513;-0,88;0,50;0,32;-0,71;-0,20;-0,58;-0,30;0,17;-0,01;0,00
0.513;-0,88;0,50;0,32;-0,62;-1,14;-0,29;-0,30;0,17;-0,01;0,00
0.568;-0,88;0,50;0,32;-0,62;-1,14;-0,29;-0,26;0,47;0,28;0,00
0.569;-0,88;0,50;0,32;0,80;0,50;-0,63;-0,26;0,47;0,28;0,00
0.569;-0,79;0,31;0,29;0,80;0,50;-0,63;-0,26;0,47;0,28;0,00
0.57;-0,74;0,24;0,27;0,80;0,50;-0,63;-0,26;0,47;0,28;0,00
0.57;-0,88;0,14;0,28;0,80;0,50;-0,63;-0,26;0,47;0,28;0,00
0.627;-0,88;0,14;0,28;0,80;0,50;-0,63;-0,30;0,87;-0,42;0,00
0.628;-0,88;0,14;0,28;0,62;-1,51;0,11;-0,30;0,87;-0,42;0,00
0.628;-0,83;0,01;0,31;0,62;-1,51;0,11;-0,30;0,87;-0,42;0,00
0.629;-0,83;0,19;0,39;0,62;-1,51;0,11;-0,30;0,87;-0,42;0,00
0.629;-0,88;0,20;0,14;0,62;-1,51;0,11;-0,30;0,87;-0,42;0,00
0.686;-0,88;0,20;0,14;-0,20;1,56;-0,12;-0,30;0,87;-0,42;0,00
0.688;-0,88;0,20;0,14;-0,20;1,56;-0,12;-0,10;1,22;-0,81;0,00
0.688;-0,95;0,40;0,25;-0,20;1,56;-0,12;-0,10;1,22;-0,81;0,00
0.689;-1,06;0,55;0,33;-0,20;1,56;-0,12;-0,10;1,22;-0,81;0,00
0.689;-1,11;0,21;0,27;-0,20;1,56;-0,12;-0,10;1,22;-0,81;0,00
0.75;-1,11;0,21;0,27;-1,20;-0,18;0,10;-0,10;1,22;-0,81;0,00
0.751;-1,11;0,21;0,27;-1,20;-0,18;0,10;0,16;1,22;-0,67;0,00
0.752;-1,08;0,20;0,08;-1,20;-0,18;0,10;0,16;1,22;-0,67;0,00
0.753;-1,08;0,12;0,23;-1,20;-0,18;0,10;0,16;1,22;-0,67;0,00
0.753;-1,09;-0,08;0,09;-1,20;-0,18;0,10;0,16;1,22;-0,67;0,00
0.801;-1,09;-0,08;0,09;-1,20;-0,18;0,10;0,52;1,70;-0,66;0,00
0.802;-1,09;-0,08;0,09;-0,10;-4,26;-1,84;0,52;1,70;-0,66;0,00
0.803;-1,00;-0,33;-0,13;-0,10;-4,26;-1,84;0,52;1,70;-0,66;0,00
0.803;-0,90;-0,45;-0,30;-0,10;-4,26;-1,84;0,52;1,70;-0,66;0,00
0.803;-1,16;0,72;0,14;-0,10;-4,26;-1,84;0,52;1,70;-0,66;0,00
0.844;-1,16;0,72;0,14;-0,10;-4,26;-1,84;-0,07;1,58;-0,71;0,00
0.845;-1,16;0,72;0,14;-0,72;4,41;0,92;-0,07;1,58;-0,71;0,00
0.847;-1,00;0,51;0,15;-0,72;4,41;0,92;-0,07;1,58;-0,71;0,00
0.848;-1,05;0,47;-0,05;-0,72;4,41;0,92;-0,07;1,58;-0,71;0,00
0.899;-0,98;0,08;-0,13;-0,72;4,41;0,92;-0,07;1,58;-0,71;0,00
0.966;-0,98;0,08;-0,13;-0,72;4,41;0,92;0,32;1,17;-0,65;0,00
0.968;-0,90;0,14;-0,02;-0,72;4,41;0,92;0,32;1,17;-0,65;0,00
0.968;-0,97;0,00;-0,12;-0,72;4,41;0,92;0,32;1,17;-0,65;0,00
0.969;-1,05;0,28;-0,20;-0,72;4,41;0,92;0,32;1,17;-0,65;0,00
0.97;-1,05;0,28;-0,20;-0,70;4,72;1,58;0,32;1,17;-0,65;0,00
1.012;-1,05;0,28;-0,20;-0,70;4,72;1,58;0,36;0,69;-0,38;0,00
1.013;-1,07;-0,39;-0,06;-0,70;4,72;1,58;0,36;0,69;-0,38;0,00
1.013;-1,02;-0,22;-0,11;-0,70;4,72;1,58;0,36;0,69;-0,38;0,00
1.014;-0,95;0,39;-0,23;-0,70;4,72;1,58;0,36;0,69;-0,38;0,00
1.014;-0,95;0,39;-0,23;-0,32;-0,94;-0,03;0,36;0,69;-0,38;0,00
1.083;-0,95;0,39;-0,23;-0,06;1,71;-0,31;0,36;0,69;-0,38;0,00
1.084;-0,95;0,39;-0,23;-0,06;1,71;-0,31;0,29;0,39;-0,43;0,00
1.085;-1,03;0,46;-0,19;-0,06;1,71;-0,31;0,29;0,39;-0,43;0,00
1.085;-0,99;-0,02;-0,11;-0,06;1,71;-0,31;0,29;0,39;-0,43;0,00
1.086;-0,87;0,30;-0,28;-0,06;1,71;-0,31;0,29;0,39;-0,43;0,00
1.129;-0,87;0,30;-0,28;-0,06;1,71;-0,31;0,18;0,07;-0,37;0,00
1.13;-0,97;0,10;-0,31;-0,06;1,71;-0,31;0,18;0,07;-0,37;0,00
1.13;-1,02;0,10;-0,19;-0,06;1,71;-0,31;0,18;0,07;-0,37;0,00
1.13;-1,09;0,18;-0,14;-0,06;1,71;-0,31;0,18;0,07;-0,37;0,00
1.131;-1,09;0,18;-0,14;0,50;1,10;-0,78;0,18;0,07;-0,37;0,00
1.187;-1,09;0,18;-0,14;0,50;1,10;-0,78;0,06;-0,68;0,13;0,00
1.189;-1,05;0,19;-0,15;0,50;1,10;-0,78;0,06;-0,68;0,13;0,00
1.189;-1,16;0,07;-0,12;0,50;1,10;-0,78;0,06;-0,68;0,13;0,00
1.192;-1,34;0,12;-0,28;0,50;1,10;-0,78;0,06;-0,68;0,13;0,00
1.192;-1,34;0,12;-0,28;-0,50;1,31;-0,47;0,06;-0,68;0,13;0,00
1.237;-1,34;0,12;-0,28;-2,79;-0,25;-2,72;0,06;-0,68;0,13;0,00
1.238;-1,34;0,12;-0,28;-2,79;-0,25;-2,72;0,44;-3,34;1,03;0,00
1.238;-1,37;-0,02;-0,22;-2,79;-0,25;-2,72;0,44;-3,34;1,03;0,00
1.238;-0,72;-0,65;-0,05;-2,79;-0,25;-2,72;0,44;-3,34;1,03;0,00
1.239;-0,82;-0,49;0,11;-2,79;-0,25;-2,72;0,44;-3,34;1,03;0,00
1.3;-0,82;-0,49;0,11;-2,79;-0,25;-2,72;1,41;0,58;0,69;0,00
1.301;-0,82;-0,49;0,11;-2,82;-1,03;-1,89;1,41;0,58;0,69;0,00
1.338;-1,25;0,12;0,51;-2,82;-1,03;-1,89;1,41;0,58;0,69;0,00
1.339;-1,29;0,31;0,69;-2,82;-1,03;-1,89;1,41;0,58;0,69;0,00
1.34;-0,99;0,28;0,55;-2,82;-1,03;-1,89;1,41;0,58;0,69;0,00
1.396;-0,99;0,28;0,55;-2,82;-1,03;-1,89;3,31;-0,62;0,66;0,00
1.398;-0,99;0,28;0,55;-0,24;1,01;4,99;3,31;-0,62;0,66;0,00
1.399;-0,78;0,31;0,29;-0,24;1,01;4,99;3,31;-0,62;0,66;0,00
1.399;-0,76;0,56;-0,15;-0,24;1,01;4,99;3,31;-0,62;0,66;0,00
1.4;-0,78;0,76;-0,33;-0,24;1,01;4,99;3,31;-0,62;0,66;0,00
1.455;-0,78;0,76;-0,33;-0,24;1,01;4,99;4,13;-1,54;-0,02;0,00
1.456;-0,78;0,76;-0,33;2,30;4,72;-2,81;4,13;-1,54;-0,02;0,00
1.456;-0,72;0,75;-0,29;2,30;4,72;-2,81;4,13;-1,54;-0,02;0,00
1.456;-0,75;0,58;-0,23;2,30;4,72;-2,81;4,13;-1,54;-0,02;0,00
1.457;-0,82;0,45;-0,31;2,30;4,72;-2,81;4,13;-1,54;-0,02;0,00
1.517;-0,82;0,45;-0,31;2,30;4,72;-2,81;3,65;-0,97;0,22;0,00
1.519;-0,93;0,43;-0,53;2,30;4,72;-2,81;3,65;-0,97;0,22;0,00
1.519;-0,93;0,36;-0,38;2,30;4,72;-2,81;3,65;-0,97;0,22;0,00
1.52;-0,82;0,35;-0,23;2,30;4,72;-2,81;3,65;-0,97;0,22;0,00
1.521;-0,82;0,35;-0,23;1,48;2,48;-3,86;3,65;-0,97;0,22;0,00
1.571;-0,82;0,35;-0,23;1,29;1,21;-3,42;3,65;-0,97;0,22;0,00
1.572;-0,82;0,35;-0,23;1,29;1,21;-3,42;2,92;-1,44;0,17;0,00
1.573;-0,77;0,43;-0,22;1,29;1,21;-3,42;2,92;-1,44;0,17;0,00
1.573;-0,79;0,37;-0,22;1,29;1,21;-3,42;2,92;-1,44;0,17;0,00
1.574;-0,89;0,24;-0,22;1,29;1,21;-3,42;2,92;-1,44;0,17;0,00
1.63;-0,89;0,24;-0,22;1,29;1,21;-3,42;2,43;-0,79;-0,05;0,00
1.631;-0,89;0,24;-0,22;0,79;0,09;-2,94;2,43;-0,79;-0,05;0,00
1.632;-0,99;0,21;-0,24;0,79;0,09;-2,94;2,43;-0,79;-0,05;0,00
1.632;-1,10;0,24;-0,23;0,79;0,09;-2,94;2,43;-0,79;-0,05;0,00
1.633;-0,89;0,33;-0,20;0,79;0,09;-2,94;2,43;-0,79;-0,05;0,00
1.687;-0,89;0,33;-0,20;0,79;0,09;-2,94;1,55;-1,10;0,09;0,00
1.689;-0,89;0,33;-0,20;0,04;0,56;-2,72;1,55;-1,10;0,09;0,00
1.689;-0,88;0,45;-0,09;0,04;0,56;-2,72;1,55;-1,10;0,09;0,00
1.69;-1,14;0,42;0,06;0,04;0,56;-2,72;1,55;-1,10;0,09;0,00
1.69;-1,17;0,39;-0,24;0,04;0,56;-2,72;1,55;-1,10;0,09;0,00
1.747;-1,17;0,39;-0,24;0,04;0,56;-2,72;0,53;-3,03;-0,12;0,00
1.748;-1,00;0,25;-0,04;0,04;0,56;-2,72;0,53;-3,03;-0,12;0,00
1.748;-0,56;0,00;0,05;0,04;0,56;-2,72;0,53;-3,03;-0,12;0,00
1.748;-0,72;0,21;-0,01;0,04;0,56;-2,72;0,53;-3,03;-0,12;0,00
1.749;-0,72;0,21;-0,01;-1,68;0,73;-3,28;0,53;-3,03;-0,12;0,00
1.805;-0,72;0,21;-0,01;-1,68;0,73;-3,28;0,03;-2,02;0,10;0,00
1.806;-0,72;0,21;-0,01;1,66;-1,53;-3,66;0,03;-2,02;0,10;0,00
1.807;-0,90;0,16;-0,08;1,66;-1,53;-3,66;0,03;-2,02;0,10;0,00
1.808;-1,13;0,07;-0,16;1,66;-1,53;-3,66;0,03;-2,02;0,10;0,00
1.809;-1,42;-0,08;0,08;1,66;-1,53;-3,66;0,03;-2,02;0,10;0,00
1.863;-1,42;-0,08;0,08;1,66;-1,53;-3,66;-1,09;0,80;0,80;0,00
1.864;-1,30;-0,08;0,15;1,66;-1,53;-3,66;-1,09;0,80;0,80;0,00
1.865;-1,10;0,09;-0,04;1,66;-1,53;-3,66;-1,09;0,80;0,80;0,00
1.865;-1,06;0,06;-0,14;1,66;-1,53;-3,66;-1,09;0,80;0,80;0,00
1.865;-1,06;0,06;-0,14;-3,74;-3,20;-3,02;-1,09;0,80;0,80;0,00
1.921;-1,06;0,06;-0,14;-3,74;-3,20;-3,02;-2,37;0,71;0,63;0,00
1.922;-1,06;0,06;-0,14;-2,08;-2,13;-3,78;-2,37;0,71;0,63;0,00
1.922;-1,20;0,04;0,02;-2,08;-2,13;-3,78;-2,37;0,71;0,63;0,00
1.922;-1,23;0,19;0,08;-2,08;-2,13;-3,78;-2,37;0,71;0,63;0,00
1.923;-1,14;0,25;0,11;-2,08;-2,13;-3,78;-2,37;0,71;0,63;0,00
1.98;-1,14;0,25;0,11;-2,08;-2,13;-3,78;-3,43;1,10;0,88;0,00
1.981;-1,20;0,30;0,29;-2,08;-2,13;-3,78;-3,43;1,10;0,88;0,00
1.981;-1,30;0,49;0,68;-2,08;-2,13;-3,78;-3,43;1,10;0,88;0,00
1.981;-1,26;0,61;0,67;-2,08;-2,13;-3,78;-3,43;1,10;0,88;0,00
1.982;-1,26;0,61;0,67;-2,61;-0,12;-1,59;-3,43;1,10;0,88;0,00
2.038;-1,26;0,61;0,67;-2,61;-0,12;-1,59;-3,61;0,88;0,54;0,00
2.039;-1,26;0,61;0,67;-2,85;3,18;3,55;-3,61;0,88;0,54;0,00
2.039;-1,12;0,55;0,73;-2,85;3,18;3,55;-3,61;0,88;0,54;0,00
2.039;-0,87;0,51;0,64;-2,85;3,18;3,55;-3,61;0,88;0,54;0,00
2.04;-0,68;0,52;0,40;-2,85;3,18;3,55;-3,61;0,88;0,54;0,00
2.095;-0,68;0,52;0,40;2,21;2,72;1,69;-3,61;0,88;0,54;0,00
2.096;-0,68;0,52;0,40;2,21;2,72;1,69;-2,51;0,48;0,18;0,00
2.097;-0,59;0,38;0,50;2,21;2,72;1,69;-2,51;0,48;0,18;0,00
2.097;-0,56;0,24;0,60;2,21;2,72;1,69;-2,51;0,48;0,18;0,00
2.135;-0,56;0,24;0,60;2,21;2,72;1,69;-1,53;-0,12;-0,68;0,00
2.136;-0,56;0,24;0,60;3,89;0,55;2,93;-1,53;-0,12;-0,68;0,00
2.137;-0,55;0,14;0,79;3,89;0,55;2,93;-1,53;-0,12;-0,68;0,00
2.138;-0,50;0,16;0,61;3,89;0,55;2,93;-1,53;-0,12;-0,68;0,00
2.138;-0,42;0,19;0,47;3,89;0,55;2,93;-1,53;-0,12;-0,68;0,00
2.194;-0,42;0,19;0,47;4,85;0,98;0,47;-1,53;-0,12;-0,68;0,00
2.196;-0,42;0,19;0,47;4,85;0,98;0,47;-0,16;-1,27;-0,68;0,00
2.197;-0,41;0,18;0,44;4,85;0,98;0,47;-0,16;-1,27;-0,68;0,00
2.198;-0,39;0,19;0,54;4,85;0,98;0,47;-0,16;-1,27;-0,68;0,00
2.199;-0,42;0,36;0,42;4,85;0,98;0,47;-0,16;-1,27;-0,68;0,00
2.252;-0,42;0,36;0,42;4,85;0,98;0,47;1,25;-0,94;0,31;0,00
2.254;-0,42;0,36;0,42;4,26;2,37;-1,24;1,25;-0,94;0,31;0,00
2.255;-0,38;0,39;0,29;4,26;2,37;-1,24;1,25;-0,94;0,31;0,00
2.256;-0,49;0,40;0,33;4,26;2,37;-1,24;1,25;-0,94;0,31;0,00
2.256;-0,93;0,49;0,63;4,26;2,37;-1,24;1,25;-0,94;0,31;0,00
2.31;-0,93;0,49;0,63;4,26;2,37;-1,24;2,20;0,58;0,67;0,00
2.312;-0,93;0,49;0,63;-2,86;1,92;2,13;2,20;0,58;0,67;0,00
2.313;-1,22;0,43;0,79;-2,86;1,92;2,13;2,20;0,58;0,67;0,00
2.314;-1,36;0,37;0,52;-2,86;1,92;2,13;2,20;0,58;0,67;0,00
2.315;-1,40;0,44;0,23;-2,86;1,92;2,13;2,20;0,58;0,67;0,00
2.369;-1,40;0,44;0,23;-2,86;1,92;2,13;2,37;0,99;-0,17;0,00
2.371;-1,40;0,44;0,23;-5,58;2,27;-1,12;2,37;0,99;-0,17;0,00
2.372;-1,52;0,56;0,09;-5,58;2,27;-1,12;2,37;0,99;-0,17;0,00
2.373;-1,53;0,54;0,33;-5,58;2,27;-1,12;2,37;0,99;-0,17;0,00
2.375;-1,73;0,57;0,57;-5,58;2,27;-1,12;2,37;0,99;-0,17;0,00
2.429;-1,73;0,57;0,57;-5,58;2,27;-1,12;2,21;4,23;-0,05;0,00
2.43;-1,73;0,57;0,57;-9,03;1,76;2,16;2,21;4,23;-0,05;0,00
2.431;-1,92;0,51;0,30;-9,03;1,76;2,16;2,21;4,23;-0,05;0,00
2.431;-2,05;0,40;0,01;-9,03;1,76;2,16;2,21;4,23;-0,05;0,00
2.432;-1,65;0,22;0,03;-9,03;1,76;2,16;2,21;4,23;-0,05;0,00
2.486;-1,65;0,22;0,03;-9,03;1,76;2,16;1,22;2,56;-0,78;0,00
2.487;-0,93;0,12;-0,06;-9,03;1,76;2,16;1,22;2,56;-0,78;0,00
2.488;-0,50;0,14;-0,06;-9,03;1,76;2,16;1,22;2,56;-0,78;0,00
2.489;-0,42;0,26;0,19;-9,03;1,76;2,16;1,22;2,56;-0,78;0,00
2.489;-0,42;0,26;0,19;-0,34;-1,03;0,62;1,22;2,56;-0,78;0,00
2.544;-0,42;0,26;0,19;-0,34;-1,03;0,62;0,56;2,64;-0,29;0,00
2.546;-0,42;0,26;0,19;4,31;-0,36;4,41;0,56;2,64;-0,29;0,00
2.547;-0,53;0,28;0,21;4,31;-0,36;4,41;0,56;2,64;-0,29;0,00
2.547;-0,60;0,07;0,21;4,31;-0,36;4,41;0,56;2,64;-0,29;0,00
2.548;-0,48;-0,14;0,03;4,31;-0,36;4,41;0,56;2,64;-0,29;0,00
2.604;-0,48;-0,14;0,03;8,19;-5,77;2,73;0,56;2,64;-0,29;0,00
2.605;-0,48;-0,14;0,03;8,19;-5,77;2,73;-0,25;-1,74;0,81;0,00
2.606;-0,10;-0,36;0,27;8,19;-5,77;2,73;-0,25;-1,74;0,81;0,00
2.607;0,23;-0,43;0,10;8,19;-5,77;2,73;-0,25;-1,74;0,81;0,00
2.608;0,42;-0,30;-0,15;8,19;-5,77;2,73;-0,25;-1,74;0,81;0,00
2.66;0,42;-0,30;-0,15;8,19;-5,77;2,73;-0,24;-0,08;0,44;0,00
2.661;-0,13;-0,01;-0,39;8,19;-5,77;2,73;-0,24;-0,08;0,44;0,00
2.662;-0,57;0,21;-0,64;8,19;-5,77;2,73;-0,24;-0,08;0,44;0,00
2.663;-1,23;0,48;-0,64;8,19;-5,77;2,73;-0,24;-0,08;0,44;0,00
2.663;-1,23;0,48;-0,64;8,20;-3,25;-2,47;-0,24;-0,08;0,44;0,00
2.719;-1,23;0,48;-0,64;8,20;-3,25;-2,47;-1,19;1,74;1,07;0,00
2.72;-1,23;0,48;-0,64;-8,16;1,74;-4,94;-1,19;1,74;1,07;0,00
2.722;-1,90;0,61;-0,67;-8,16;1,74;-4,94;-1,19;1,74;1,07;0,00
2.723;-2,09;0,57;-0,86;-8,16;1,74;-4,94;-1,19;1,74;1,07;0,00
2.723;-2,03;0,49;-0,59;-8,16;1,74;-4,94;-1,19;1,74;1,07;0,00
2.778;-2,03;0,49;-0,59;-8,16;1,74;-4,94;-3,28;-1,57;0,35;0,00
2.779;-1,89;0,58;-0,54;-8,16;1,74;-4,94;-3,28;-1,57;0,35;0,00
2.779;-1,85;0,50;-0,25;-8,16;1,74;-4,94;-3,28;-1,57;0,35;0,00
2.779;-1,62;0,33;-0,08;-8,16;1,74;-4,94;-3,28;-1,57;0,35;0,00
2.78;-1,62;0,33;-0,08;-9,75;0,97;-3,82;-3,28;-1,57;0,35;0,00
2.836;-1,62;0,33;-0,08;-2,75;-1,05;-1,96;-3,28;-1,57;0,35;0,00
2.837;-1,62;0,33;-0,08;-2,75;-1,05;-1,96;-3,69;0,25;-0,28;0,00
2.838;-1,18;0,31;-0,29;-2,75;-1,05;-1,96;-3,69;0,25;-0,28;0,00
2.839;-0,86;0,27;-0,23;-2,75;-1,05;-1,96;-3,69;0,25;-0,28;0,00
2.84;-0,38;0,20;-0,15;-2,75;-1,05;-1,96;-3,69;0,25;-0,28;0,00
2.894;-0,38;0,20;-0,15;8,58;-1,89;0,95;-3,69;0,25;-0,28;0,00
2.896;-0,38;0,20;-0,15;8,58;-1,89;0,95;-2,67;1,97;-0,54;0,00
2.896;0,01;0,16;0,02;8,58;-1,89;0,95;-2,67;1,97;-0,54;0,00
2.897;0,19;0,20;0,29;8,58;-1,89;0,95;-2,67;1,97;-0,54;0,00
2.898;0,10;0,22;0,21;8,58;-1,89;0,95;-2,67;1,97;-0,54;0,00
2.953;0,10;0,22;0,21;6,02;-1,30;4,72;-2,67;1,97;-0,54;0,00
2.955;0,10;0,22;0,21;6,02;-1,30;4,72;-1,14;3,87;-0,81;0,00
2.956;-0,37;0,18;0,17;6,02;-1,30;4,72;-1,14;3,87;-0,81;0,00
2.957;-0,62;0,22;0,41;6,02;-1,30;4,72;-1,14;3,87;-0,81;0,00
2.958;-0,67;0,30;0,52;6,02;-1,30;4,72;-1,14;3,87;-0,81;0,00
3.011;-0,67;0,30;0,52;6,02;-1,30;4,72;0,19;1,93;0,08;0,00
3.012;-0,67;0,30;0,52;3,66;0,94;6,51;0,19;1,93;0,08;0,00
3.014;-0,53;0,45;0,52;3,66;0,94;6,51;0,19;1,93;0,08;0,00
3.014;-0,31;0,56;0,03;3,66;0,94;6,51;0,19;1,93;0,08;0,00
3.015;-0,56;0,80;-0,16;3,66;0,94;6,51;0,19;1,93;0,08;0,00
3.068;-0,56;0,80;-0,16;3,66;0,94;6,51;0,94;2,02;1,39;0,00
3.069;-0,56;0,80;-0,16;-2,25;5,22;1,67;0,94;2,02;1,39;0,00
3.07;-0,97;0,99;-0,23;-2,25;5,22;1,67;0,94;2,02;1,39;0,00
3.07;-1,56;1,01;-0,39;-2,25;5,22;1,67;0,94;2,02;1,39;0,00
3.07;-2,20;0,86;-0,38;-2,25;5,22;1,67;0,94;2,02;1,39;0,00
3.128;-2,20;0,86;-0,38;-11,76;2,97;0,16;0,94;2,02;1,39;0,00
3.13;-2,20;0,86;-0,38;-11,76;2,97;0,16;1,06;0,76;1,14;0,00
3.131;-2,01;0,64;-0,47;-11,76;2,97;0,16;1,06;0,76;1,14;0,00
3.132;-1,72;0,70;-0,57;-11,76;2,97;0,16;1,06;0,76;1,14;0,00
3.133;-1,52;0,76;-1,04;-11,76;2,97;0,16;1,06;0,76;1,14;0,00
3.187;-1,52;0,76;-1,04;-11,76;2,97;0,16;2,03;-2,00;-0,35;0,00
3.189;-1,47;0,47;-0,64;-11,76;2,97;0,16;2,03;-2,00;-0,35;0,00
3.189;-1,38;-0,03;-0,22;-11,76;2,97;0,16;2,03;-2,00;-0,35;0,00
3.19;-1,20;-0,20;-0,19;-11,76;2,97;0,16;2,03;-2,00;-0,35;0,00
3.191;-1,20;-0,20;-0,19;-5,99;0,44;-1,84;2,03;-2,00;-0,35;0,00
3.244;-1,20;-0,20;-0,19;-5,99;0,44;-1,84;2,89;-2,96;-1,88;0,00
3.246;-1,20;-0,20;-0,19;1,25;-4,78;1,39;2,89;-2,96;-1,88;0,00
3.247;-0,84;-0,36;-0,44;1,25;-4,78;1,39;2,89;-2,96;-1,88;0,00
3.248;-0,43;-0,39;0,07;1,25;-4,78;1,39;2,89;-2,96;-1,88;0,00
3.249;-0,12;-0,28;-0,10;1,25;-4,78;1,39;2,89;-2,96;-1,88;0,00
3.303;-0,12;-0,28;-0,10;1,25;-4,78;1,39;2,65;-3,64;-2,46;0,00
3.305;-0,27;-0,22;-0,09;1,25;-4,78;1,39;2,65;-3,64;-2,46;0,00
3.306;-0,37;-0,09;-0,38;1,25;-4,78;1,39;2,65;-3,64;-2,46;0,00
3.306;-0,40;-0,02;-0,32;1,25;-4,78;1,39;2,65;-3,64;-2,46;0,00
3.307;-0,40;-0,02;-0,32;7,30;-1,88;-0,49;2,65;-3,64;-2,46;0,00
3.36;-0,40;-0,02;-0,32;7,30;-1,88;-0,49;1,01;-1,00;-0,86;0,00
3.361;-0,27;-0,01;-0,12;7,30;-1,88;-0,49;1,01;-1,00;-0,86;0,00
3.362;-0,37;-0,04;-0,02;7,30;-1,88;-0,49;1,01;-1,00;-0,86;0,00
3.363;-0,45;-0,15;-0,16;7,30;-1,88;-0,49;1,01;-1,00;-0,86;0,00
3.364;-0,45;-0,15;-0,16;6,31;0,34;-0,72;1,01;-1,00;-0,86;0,00
3.419;-0,45;-0,15;-0,16;3,59;-1,58;-2,37;1,01;-1,00;-0,86;0,00
3.421;-0,45;-0,15;-0,16;3,59;-1,58;-2,37;-0,46;0,32;0,53;0,00
3.422;-0,59;-0,24;-0,41;3,59;-1,58;-2,37;-0,46;0,32;0,53;0,00
3.422;-0,81;-0,18;-0,47;3,59;-1,58;-2,37;-0,46;0,32;0,53;0,00
3.423;-1,22;0,06;-0,39;3,59;-1,58;-2,37;-0,46;0,32;0,53;0,00
3.477;-1,22;0,06;-0,39;3,59;-1,58;-2,37;-1,36;3,32;1,82;0,00
3.478;-1,96;0,34;-0,49;3,59;-1,58;-2,37;-1,36;3,32;1,82;0,00
3.478;-1,55;0,17;-0,53;3,59;-1,58;-2,37;-1,36;3,32;1,82;0,00
3.479;-2,82;-0,10;-0,56;3,59;-1,58;-2,37;-1,36;3,32;1,82;0,00
3.479;-2,82;-0,10;-0,56;-6,10;1,00;-1,77;-1,36;3,32;1,82;0,00
3.535;-2,82;-0,10;-0,56;-6,10;1,00;-1,77;-1,74;1,10;0,39;0,00
3.536;-2,82;-0,10;-0,56;-11,32;-0,76;-2,12;-1,74;1,10;0,39;0,00
3.537;-1,88;-0,08;-0,64;-11,32;-0,76;-2,12;-1,74;1,10;0,39;0,00
3.537;-1,62;0,38;-0,47;-11,32;-0,76;-2,12;-1,74;1,10;0,39;0,00
3.54;-1,46;0,33;-0,14;-11,32;-0,76;-2,12;-1,74;1,10;0,39;0,00
3.594;-1,46;0,33;-0,14;-11,32;-0,76;-2,12;-1,21;0,29;-0,05;0,00
3.594;-1,46;0,33;-0,14;-1,50;0,26;1,53;-1,21;0,29;-0,05;0,00
3.595;-1,10;0,14;-0,30;-1,50;0,26;1,53;-1,21;0,29;-0,05;0,00
3.595;-0,74;0,11;-0,13;-1,50;0,26;1,53;-1,21;0,29;-0,05;0,00
3.595;-0,55;0,30;-0,28;-1,50;0,26;1,53;-1,21;0,29;-0,05;0,00
3.652;-0,55;0,30;-0,28;-1,50;0,26;1,53;-0,48;-0,36;-0,58;0,00
3.653;-0,34;0,31;-0,11;-1,50;0,26;1,53;-0,48;-0,36;-0,58;0,00
3.653;-0,19;0,27;-0,26;-1,50;0,26;1,53;-0,48;-0,36;-0,58;0,00
3.654;0,05;0,18;-0,06;-1,50;0,26;1,53;-0,48;-0,36;-0,58;0,00
3.654;0,05;0,18;-0,06;5,78;1,44;1,00;-0,48;-0,36;-0,58;0,00
3.72;0,05;0,18;-0,06;9,37;1,24;1,91;-0,48;-0,36;-0,58;0,00
3.722;0,05;0,18;-0,06;9,37;1,24;1,91;0,10;-0,69;0,14;0,00
3.722;-0,04;0,28;-0,17;9,37;1,24;1,91;0,10;-0,69;0,14;0,00
3.723;0,03;0,37;-0,02;9,37;1,24;1,91;0,10;-0,69;0,14;0,00
3.723;-0,22;0,35;0,03;9,37;1,24;1,91;0,10;-0,69;0,14;0,00
3.769;-0,22;0,35;0,03;6,40;1,33;2,54;0,10;-0,69;0,14;0,00
3.77;-0,22;0,35;0,03;6,40;1,33;2,54;0,56;-1,33;0,75;0,00
3.771;-0,20;0,27;0,18;6,40;1,33;2,54;0,56;-1,33;0,75;0,00
3.772;-0,46;0,36;-0,03;6,40;1,33;2,54;0,56;-1,33;0,75;0,00
3.773;-0,75;0,66;-0,47;6,40;1,33;2,54;0,56;-1,33;0,75;0,00
3.828;-0,75;0,66;-0,47;6,40;1,33;2,54;0,72;-1,17;1,05;0,00
3.83;-1,18;1,00;-0,53;6,40;1,33;2,54;0,72;-1,17;1,05;0,00
3.831;-1,96;0,84;-0,10;6,40;1,33;2,54;0,72;-1,17;1,05;0,00
3.831;-2,52;0,07;0,20;6,40;1,33;2,54;0,72;-1,17;1,05;0,00
3.832;-2,52;0,07;0,20;-3,39;5,70;-2,11;0,72;-1,17;1,05;0,00
3.885;-2,52;0,07;0,20;-3,39;5,70;-2,11;1,07;1,28;0,65;0,00
3.886;-2,91;-0,15;0,28;-3,39;5,70;-2,11;1,07;1,28;0,65;0,00
3.886;-2,63;0,42;-0,30;-3,39;5,70;-2,11;1,07;1,28;0,65;0,00
3.887;-2,14;0,54;-0,28;-3,39;5,70;-2,11;1,07;1,28;0,65;0,00
3.887;-2,14;0,54;-0,28;-16,96;-1,56;2,86;1,07;1,28;0,65;0,00
3.944;-2,14;0,54;-0,28;-16,96;-1,56;2,86;1,33;-1,02;-0,28;0,00
3.945;-2,14;0,54;-0,28;-7,14;0,62;0,78;1,33;-1,02;-0,28;0,00
3.947;-1,71;0,29;-0,06;-7,14;0,62;0,78;1,33;-1,02;-0,28;0,00
3.947;-1,28;0,09;0,01;-7,14;0,62;0,78;1,33;-1,02;-0,28;0,00
3.948;-1,17;0,03;-0,00;-7,14;0,62;0,78;1,33;-1,02;-0,28;0,00
4.003;-1,17;0,03;-0,00;2,72;-1,35;1,89;1,33;-1,02;-0,28;0,00
4.004;-1,17;0,03;-0,00;2,72;-1,35;1,89;1,15;-1,33;-0,90;0,00
4.005;-0,54;-0,02;0,22;2,72;-1,35;1,89;1,15;-1,33;-0,90;0,00
4.006;-0,46;0,11;-0,03;2,72;-1,35;1,89;1,15;-1,33;-0,90;0,00
4.007;-0,24;0,16;0,01;2,72;-1,35;1,89;1,15;-1,33;-0,90;0,00
4.062;-0,24;0,16;0,01;2,72;-1,35;1,89;0,65;-1,19;-0,49;0,00
4.063;-0,24;0,16;0,01;9,29;-1,49;1,52;0,65;-1,19;-0,49;0,00
4.065;0,04;-0,01;0,19;9,29;-1,49;1,52;0,65;-1,19;-0,49;0,00
4.065;0,05;-0,18;0,08;9,29;-1,49;1,52;0,65;-1,19;-0,49;0,00
4.066;-0,10;-0,15;-0,03;9,29;-1,49;1,52;0,65;-1,19;-0,49;0,00
4.118;-0,10;-0,15;-0,03;9,29;-1,49;1,52;0,13;0,75;0,50;0,00
4.119;-0,10;-0,15;-0,03;8,52;-3,25;1,95;0,13;0,75;0,50;0,00
4.12;-0,02;-0,11;0,15;8,52;-3,25;1,95;0,13;0,75;0,50;0,00
4.12;-0,20;-0,25;0,17;8,52;-3,25;1,95;0,13;0,75;0,50;0,00
4.12;-0,37;-0,31;0,01;8,52;-3,25;1,95;0,13;0,75;0,50;0,00
4.177;-0,37;-0,31;0,01;8,52;-3,25;1,95;0,29;1,98;1,12;0,00
4.178;-0,37;-0,31;0,01;4,28;-3,09;0,24;0,29;1,98;1,12;0,00
4.179;-0,54;-0,21;0,00;4,28;-3,09;0,24;0,29;1,98;1,12;0,00
4.179;-0,59;0,22;-0,59;4,28;-3,09;0,24;0,29;1,98;1,12;0,00
4.179;-1,20;0,63;-0,51;4,28;-3,09;0,24;0,29;1,98;1,12;0,00
4.236;-1,20;0,63;-0,51;4,28;-3,09;0,24;0,15;6,07;1,48;0,00
4.238;-2,05;0,73;-0,94;4,28;-3,09;0,24;0,15;6,07;1,48;0,00
4.239;-2,27;0,01;-0,61;4,28;-3,09;0,24;0,15;6,07;1,48;0,00
4.24;-2,16;0,24;-0,83;4,28;-3,09;0,24;0,15;6,07;1,48;0,00
4.24;-2,16;0,24;-0,83;-10,20;1,62;-1,58;0,15;6,07;1,48;0,00
4.294;-2,16;0,24;-0,83;-10,20;1,62;-1,58;-0,08;0,87;-0,59;0,00
4.294;-2,16;0,24;-0,83;-6,92;3,47;-6,59;-0,08;0,87;-0,59;0,00
4.295;-1,29;0,79;-1,51;-6,92;3,47;-6,59;-0,08;0,87;-0,59;0,00
4.296;-1,05;0,85;-1,41;-6,92;3,47;-6,59;-0,08;0,87;-0,59;0,00
4.296;-1,10;0,34;-0,84;-6,92;3,47;-6,59;-0,08;0,87;-0,59;0,00
4.353;-1,10;0,34;-0,84;-6,92;3,47;-6,59;-0,23;1,36;-0,55;0,00
4.354;-1,30;0,06;-0,24;-6,92;3,47;-6,59;-0,23;1,36;-0,55;0,00
4.355;-0,91;0,20;-0,20;-6,92;3,47;-6,59;-0,23;1,36;-0,55;0,00
4.355;-0,56;0,39;-0,13;-6,92;3,47;-6,59;-0,23;1,36;-0,55;0,00
4.356;-0,56;0,39;-0,13;-3,35;-0,55;1,99;-0,23;1,36;-0,55;0,00
4.41;-0,56;0,39;-0,13;-3,35;-0,55;1,99;0,47;-1,00;-0,25;0,00
4.411;-0,07;0,35;-0,06;-3,35;-0,55;1,99;0,47;-1,00;-0,25;0,00
4.411;0,13;0,28;-0,22;-3,35;-0,55;1,99;0,47;-1,00;-0,25;0,00
4.412;0,11;0,33;-0,01;-3,35;-0,55;1,99;0,47;-1,00;-0,25;0,00
4.412;0,11;0,33;-0,01;6,09;1,08;4,35;0,47;-1,00;-0,25;0,00
4.468;0,11;0,33;-0,01;6,09;1,08;4,35;0,79;-0,53;0,80;0,00
4.468;0,11;0,33;-0,01;8,28;2,25;4,98;0,79;-0,53;0,80;0,00
4.469;0,16;0,51;-0,06;8,28;2,25;4,98;0,79;-0,53;0,80;0,00
4.469;-0,08;0,59;-0,09;8,28;2,25;4,98;0,79;-0,53;0,80;0,00
4.469;-0,18;0,55;-0,17;8,28;2,25;4,98;0,79;-0,53;0,80;0,00
4.527;-0,18;0,55;-0,17;8,28;2,25;4,98;0,68;-0,60;1,04;0,00
4.528;-0,18;0,55;-0,17;4,89;1,76;3,64;0,68;-0,60;1,04;0,00
4.528;-0,24;0,37;-0,11;4,89;1,76;3,64;0,68;-0,60;1,04;0,00
4.529;-0,41;0,44;-0,23;4,89;1,76;3,64;0,68;-0,60;1,04;0,00
4.529;-0,71;0,61;-0,53;4,89;1,76;3,64;0,68;-0,60;1,04;0,00
4.585;-0,71;0,61;-0,53;4,89;1,76;3,64;0,78;-1,17;1,32;0,00
4.586;-1,20;0,77;-0,35;4,89;1,76;3,64;0,78;-1,17;1,32;0,00
4.587;-2,01;0,62;-0,60;4,89;1,76;3,64;0,78;-1,17;1,32;0,00
4.587;-2,30;0,18;-0,44;4,89;1,76;3,64;0,78;-1,17;1,32;0,00
4.588;-2,30;0,18;-0,44;-4,95;3,43;0,06;0,78;-1,17;1,32;0,00
4.643;-2,30;0,18;-0,44;-4,95;3,43;0,06;1,17;-1,10;-0,12;0,00
4.645;-2,30;0,18;-0,44;-11,80;1,29;0,81;1,17;-1,10;-0,12;0,00
4.646;-2,11;0,42;-0,48;-11,80;1,29;0,81;1,17;-1,10;-0,12;0,00
4.647;-1,75;0,63;-0,23;-11,80;1,29;0,81;1,17;-1,10;-0,12;0,00
4.647;-1,40;0,34;-0,13;-11,80;1,29;0,81;1,17;-1,10;-0,12;0,00
4.706;-1,40;0,34;-0,13;-11,80;1,29;0,81;1,42;-1,77;-1,96;0,00
4.707;-1,33;0,07;-0,40;-11,80;1,29;0,81;1,42;-1,77;-1,96;0,00
4.708;-1,38;-0,20;-0,15;-11,80;1,29;0,81;1,42;-1,77;-1,96;0,00
4.709;-1,19;-0,36;-0,07;-11,80;1,29;0,81;1,42;-1,77;-1,96;0,00
4.711;-1,19;-0,36;-0,07;-4,34;-0,68;1,62;1,42;-1,77;-1,96;0,00
4.76;-1,19;-0,36;-0,07;-4,34;-0,68;1,62;1,34;-0,94;-1,52;0,00
4.761;-1,19;-0,36;-0,07;-0,29;-1,98;3,26;1,34;-0,94;-1,52;0,00
4.762;-0,96;-0,18;0,07;-0,29;-1,98;3,26;1,34;-0,94;-1,52;0,00
4.762;-0,81;0,00;-0,02;-0,29;-1,98;3,26;1,34;-0,94;-1,52;0,00
4.762;-0,53;-0,01;-0,07;-0,29;-1,98;3,26;1,34;-0,94;-1,52;0,00
4.819;-0,53;-0,01;-0,07;-0,29;-1,98;3,26;0,95;-1,13;-0,60;0,00
4.82;-0,22;-0,11;-0,14;-0,29;-1,98;3,26;0,95;-1,13;-0,60;0,00
4.82;0,04;-0,18;-0,26;-0,29;-1,98;3,26;0,95;-1,13;-0,60;0,00
4.821;0,15;-0,20;-0,25;-0,29;-1,98;3,26;0,95;-1,13;-0,60;0,00
4.821;0,15;-0,20;-0,25;7,12;-0,70;1,16;0,95;-1,13;-0,60;0,00
4.877;0,15;-0,20;-0,25;7,12;-0,70;1,16;0,37;0,59;0,60;0,00
4.877;0,15;-0,20;-0,25;8,33;-3,68;1,40;0,37;0,59;0,60;0,00
4.878;-0,04;-0,43;-0,14;8,33;-3,68;1,40;0,37;0,59;0,60;0,00
4.878;-0,37;-0,52;-0,09;8,33;-3,68;1,40;0,37;0,59;0,60;0,00
4.879;-0,48;-0,37;-0,23;8,33;-3,68;1,40;0,37;0,59;0,60;0,00
4.936;-0,48;-0,37;-0,23;8,33;-3,68;1,40;-0,12;1,83;1,08;0,00
4.937;-0,48;-0,37;-0,23;2,26;-0,84;-0,63;-0,12;1,83;1,08;0,00
4.938;-0,68;0,01;-0,56;2,26;-0,84;-0,63;-0,12;1,83;1,08;0,00
4.939;-0,84;0,26;-0,60;2,26;-0,84;-0,63;-0,12;1,83;1,08;0,00
4.94;-1,50;0,25;-0,64;2,26;-0,84;-0,63;-0,12;1,83;1,08;0,00
4.994;-1,50;0,25;-0,64;-11,30;-1,78;-2,10;-0,12;1,83;1,08;0,00
4.996;-1,50;0,25;-0,64;-11,30;-1,78;-2,10;-0,37;2,99;1,27;0,00
4.997;-1,90;-0,07;-0,91;-11,30;-1,78;-2,10;-0,37;2,99;1,27;0,00
4.998;-2,53;-0,35;-0,76;-11,30;-1,78;-2,10;-0,37;2,99;1,27;0,00
4.999;-2,31;0,23;-0,76;-11,30;-1,78;-2,10;-0,37;2,99;1,27;0,00
5.053;-2,31;0,23;-0,76;-11,30;-1,78;-2,10;0,13;1,01;-0,35;0,00
5.055;-2,31;0,23;-0,76;-9,72;1,88;-0,94;0,13;1,01;-0,35;0,00
5.056;-1,83;0,41;-0,69;-9,72;1,88;-0,94;0,13;1,01;-0,35;0,00
5.058;-1,26;0,25;-0,65;-9,72;1,88;-0,94;0,13;1,01;-0,35;0,00
5.058;-1,09;0,21;-0,30;-9,72;1,88;-0,94;0,13;1,01;-0,35;0,00
5.11;-1,09;0,21;-0,30;-9,72;1,88;-0,94;0,68;-0,91;-1,57;0,00
5.111;-0,44;0,23;-0,54;-9,72;1,88;-0,94;0,68;-0,91;-1,57;0,00
5.112;-0,35;0,42;-1,35;-9,72;1,88;-0,94;0,68;-0,91;-1,57;0,00
5.112;-0,73;0,09;-0,80;-9,72;1,88;-0,94;0,68;-0,91;-1,57;0,00
5.112;-0,73;0,09;-0,80;2,13;2,65;-1,63;0,68;-0,91;-1,57;0,00
5.168;-0,73;0,09;-0,80;2,13;2,65;-1,63;-0,27;-1,09;-1,58;0,00
5.169;-0,73;0,09;-0,80;1,84;0,56;1,17;-0,27;-1,09;-1,58;0,00
5.17;-0,74;-0,13;-0,24;1,84;0,56;1,17;-0,27;-1,09;-1,58;0,00
5.17;-0,58;0,03;-0,13;1,84;0,56;1,17;-0,27;-1,09;-1,58;0,00
5.17;-0,28;0,32;0,14;1,84;0,56;1,17;-0,27;-1,09;-1,58;0,00
5.228;-0,28;0,32;0,14;7,60;4,44;7,49;-0,27;-1,09;-1,58;0,00
5.23;-0,28;0,32;0,14;7,60;4,44;7,49;0,57;-0,59;0,07;0,00
5.23;-0,01;0,45;0,36;7,60;4,44;7,49;0,57;-0,59;0,07;0,00
5.231;-0,01;0,41;0,40;7,60;4,44;7,49;0,57;-0,59;0,07;0,00
5.232;-0,51;0,54;0,04;7,60;4,44;7,49;0,57;-0,59;0,07;0,00
5.285;-0,51;0,54;0,04;7,60;4,44;7,49;1,47;0,95;1,09;0,00
5.286;-0,51;0,54;0,04;1,31;5,29;5,07;1,47;0,95;1,09;0,00
5.286;-0,86;0,57;-0,04;1,31;5,29;5,07;1,47;0,95;1,09;0,00
5.287;-0,78;0,40;0,06;1,31;5,29;5,07;1,47;0,95;1,09;0,00
5.287;-0,65;0,12;-0,04;1,31;5,29;5,07;1,47;0,95;1,09;0,00
5.344;-0,65;0,12;-0,04;1,31;5,29;5,07;2,46;1,04;2,23;0,00
5.346;-0,55;0,27;-0,69;1,31;5,29;5,07;2,46;1,04;2,23;0,00
5.347;-1,83;0,67;-0,70;1,31;5,29;5,07;2,46;1,04;2,23;0,00
5.347;-2,75;0,32;-0,42;1,31;5,29;5,07;2,46;1,04;2,23;0,00
5.348;-2,75;0,32;-0,42;-1,81;3,47;0,65;2,46;1,04;2,23;0,00
5.402;-2,75;0,32;-0,42;-1,81;3,47;0,65;2,79;3,08;2,72;0,00
5.403;-2,75;0,32;-0,42;-18,99;-1,15;2,08;2,79;3,08;2,72;0,00
5.404;-3,30;-0,46;-0,05;-18,99;-1,15;2,08;2,79;3,08;2,72;0,00
5.404;-2,00;-0,14;-0,93;-18,99;-1,15;2,08;2,79;3,08;2,72;0,00
5.405;-1,58;-0,09;-1,09;-18,99;-1,15;2,08;2,79;3,08;2,72;0,00
5.471;-1,58;-0,09;-1,09;-18,99;-1,15;2,08;2,65;-1,56;1,23;0,00
5.473;-1,58;-0,09;-1,09;-4,58;-3,33;-4,26;2,65;-1,56;1,23;0,00
5.474;-1,28;-0,53;-1,19;-4,58;-3,33;-4,26;2,65;-1,56;1,23;0,00
5.475;-0,99;-0,50;-0,87;-4,58;-3,33;-4,26;2,65;-1,56;1,23;0,00
5.475;-0,73;-0,34;-0,70;-4,58;-3,33;-4,26;2,65;-1,56;1,23;0,00
5.519;-0,73;-0,34;-0,70;-4,58;-3,33;-4,26;1,44;-1,21;-0,07;0,00
5.52;-0,49;-0,41;-0,58;-4,58;-3,33;-4,26;1,44;-1,21;-0,07;0,00
5.52;-0,44;-0,39;-0,60;-4,58;-3,33;-4,26;1,44;-1,21;-0,07;0,00
5.52;-0,45;-0,24;-0,23;-4,58;-3,33;-4,26;1,44;-1,21;-0,07;0,00
5.521;-0,45;-0,24;-0,23;2,89;-2,83;-0,72;1,44;-1,21;-0,07;0,00
5.598;-0,45;-0,24;-0,23;5,60;0,15;4,47;1,44;-1,21;-0,07;0,00
5.6;-0,45;-0,24;-0,23;5,60;0,15;4,47;0,63;-0,45;0,06;0,00
5.601;-0,33;-0,02;-0,08;5,60;0,15;4,47;0,63;-0,45;0,06;0,00
5.602;-0,07;-0,02;0,13;5,60;0,15;4,47;0,63;-0,45;0,06;0,00
5.603;0,05;-0,24;-0,01;5,60;0,15;4,47;0,63;-0,45;0,06;0,00
5.636;0,05;-0,24;-0,01;5,60;0,15;4,47;-0,33;-1,12;-0,08;0,00
5.637;0,20;-0,23;-0,13;5,60;0,15;4,47;-0,33;-1,12;-0,08;0,00
5.637;0,04;-0,08;-0,28;5,60;0,15;4,47;-0,33;-1,12;-0,08;0,00
5.638;-0,18;-0,05;-0,36;5,60;0,15;4,47;-0,33;-1,12;-0,08;0,00
5.638;-0,18;-0,05;-0,36;9,45;-0,75;3,15;-0,33;-1,12;-0,08;0,00
5.694;-0,18;-0,05;-0,36;9,45;-0,75;3,15;-1,01;0,02;0,06;0,00
5.695;-0,18;-0,05;-0,36;3,16;1,27;1,96;-1,01;0,02;0,06;0,00
5.696;-0,47;0,10;-0,25;3,16;1,27;1,96;-1,01;0,02;0,06;0,00
5.696;-0,97;0,13;-0,17;3,16;1,27;1,96;-1,01;0,02;0,06;0,00
5.697;-2,15;-0,34;-0,23;3,16;1,27;1,96;-1,01;0,02;0,06;0,00
5.753;-2,15;-0,34;-0,23;-16,01;-4,57;3,13;-1,01;0,02;0,06;0,00
5.754;-2,15;-0,34;-0,23;-16,01;-4,57;3,13;-0,18;2,02;-0,05;0,00
5.755;-2,72;-0,95;-0,19;-16,01;-4,57;3,13;-0,18;2,02;-0,05;0,00
5.755;-2,53;-0,34;-0,28;-16,01;-4,57;3,13;-0,18;2,02;-0,05;0,00
5.756;-1,68;0,21;-0,88;-16,01;-4,57;3,13;-0,18;2,02;-0,05;0,00
5.812;-1,68;0,21;-0,88;-16,01;-4,57;3,13;-0,19;-2,07;-0,78;0,00
5.813;-1,06;0,74;-2,57;-16,01;-4,57;3,13;-0,19;-2,07;-0,78;0,00
5.814;-1,24;-0,00;-1,18;-16,01;-4,57;3,13;-0,19;-2,07;-0,78;0,00
5.815;-1,25;-0,47;-0,80;-16,01;-4,57;3,13;-0,19;-2,07;-0,78;0,00
5.816;-1,25;-0,47;-0,80;-4,21;4,09;-10,51;-0,19;-2,07;-0,78;0,00
5.869;-1,25;-0,47;-0,80;-4,21;4,09;-10,51;-0,51;-0,30;-0,77;0,00
5.87;-1,25;-0,47;-0,80;-2,55;-0,24;-1,94;-0,51;-0,30;-0,77;0,00
5.87;-1,19;-0,04;-0,73;-2,55;-0,24;-1,94;-0,51;-0,30;-0,77;0,00
5.871;-1,04;0,05;-0,44;-2,55;-0,24;-1,94;-0,51;-0,30;-0,77;0,00
5.872;-0,67;-0,05;-0,40;-2,55;-0,24;-1,94;-0,51;-0,30;-0,77;0,00
5.928;-0,67;-0,05;-0,40;-2,55;-0,24;-1,94;-0,49;-0,50;-0,26;0,00
5.929;-0,67;-0,05;-0,40;4,08;2,50;1,49;-0,49;-0,50;-0,26;0,00
5.93;-0,43;0,10;-0,26;4,08;2,50;1,49;-0,49;-0,50;-0,26;0,00
5.93;-0,37;0,33;-0,20;4,08;2,50;1,49;-0,49;-0,50;-0,26;0,00
5.931;-0,29;0,42;-0,15;4,08;2,50;1,49;-0,49;-0,50;-0,26;0,00
5.986;-0,29;0,42;-0,15;6,11;3,85;1,88;-0,49;-0,50;-0,26;0,00
5.987;-0,29;0,42;-0,15;6,11;3,85;1,88;-1,58;-1,75;0,69;0,00
5.988;-0,32;0,34;-0,18;6,11;3,85;1,88;-1,58;-1,75;0,69;0,00
5.988;-0,33;0,27;-0,14;6,11;3,85;1,88;-1,58;-1,75;0,69;0,00
5.989;-0,43;0,38;-0,20;6,11;3,85;1,88;-1,58;-1,75;0,69;0,00
6.044;-0,43;0,38;-0,20;6,11;3,85;1,88;-1,34;-1,77;2,12;0,00
6.045;-0,43;0,38;-0,20;2,28;3,39;1,91;-1,34;-1,77;2,12;0,00
6.045;-0,82;0,50;-0,09;2,28;3,39;1,91;-1,34;-1,77;2,12;0,00
6.046;-0,95;0,47;0,15;2,28;3,39;1,91;-1,34;-1,77;2,12;0,00
6.046;-1,01;0,79;-0,01;2,28;3,39;1,91;-1,34;-1,77;2,12;0,00
6.103;-1,01;0,79;-0,01;2,28;3,39;1,91;0,13;-0,57;3,55;0,00
6.104;-1,51;1,25;0,27;2,28;3,39;1,91;0,13;-0,57;3,55;0,00
6.105;-2,08;0,93;0,59;2,28;3,39;1,91;0,13;-0,57;3,55;0,00
6.106;-2,43;0,22;0,47;2,28;3,39;1,91;0,13;-0,57;3,55;0,00
6.107;-2,43;0,22;0,47;-5,80;6,70;4,79;0,13;-0,57;3,55;0,00
6.161;-2,43;0,22;0,47;-11,59;-0,41;6,66;0,13;-0,57;3,55;0,00
6.162;-2,43;0,22;0,47;-11,59;-0,41;6,66;0,96;-1,37;1,93;0,00
6.163;-2,10;0,25;0,54;-11,59;-0,41;6,66;0,96;-1,37;1,93;0,00
6.163;-1,82;0,61;0,60;-11,59;-0,41;6,66;0,96;-1,37;1,93;0,00
6.163;-1,63;0,51;0,25;-11,59;-0,41;6,66;0,96;-1,37;1,93;0,00
6.219;-1,63;0,51;0,25;-11,59;-0,41;6,66;1,20;-3,36;0,16;0,00
6.221;-1,63;0,51;0,25;-2,65;-2,43;2,66;1,20;-3,36;0,16;0,00
6.222;-1,28;0,06;0,22;-2,65;-2,43;2,66;1,20;-3,36;0,16;0,00
6.223;-0,74;-0,11;0,42;-2,65;-2,43;2,66;1,20;-3,36;0,16;0,00
6.223;-0,59;0,01;0,30;-2,65;-2,43;2,66;1,20;-3,36;0,16;0,00
6.277;-0,59;0,01;0,30;-2,65;-2,43;2,66;0,90;-3,46;-0,45;0,00
6.279;-0,59;0,01;0,30;4,61;-3,69;-0,90;0,90;-3,46;-0,45;0,00
6.279;-0,45;0,08;-0,02;4,61;-3,69;-0,90;0,90;-3,46;-0,45;0,00
6.279;-0,32;-0,09;0,02;4,61;-3,69;-0,90;0,90;-3,46;-0,45;0,00
6.28;-0,11;-0,20;0,06;4,61;-3,69;-0,90;0,90;-3,46;-0,45;0,00
6.341;-0,11;-0,20;0,06;4,61;-3,69;-0,90;0,81;-2,83;-0,17;0,00
6.342;0,04;-0,13;-0,07;4,61;-3,69;-0,90;0,81;-2,83;-0,17;0,00
6.343;0,05;-0,16;-0,10;4,61;-3,69;-0,90;0,81;-2,83;-0,17;0,00
6.344;-0,11;-0,14;-0,02;4,61;-3,69;-0,90;0,81;-2,83;-0,17;0,00
6.345;-0,11;-0,14;-0,02;8,51;-5,22;-3,43;0,81;-2,83;-0,17;0,00
6.394;-0,11;-0,14;-0,02;8,51;-5,22;-3,43;1,15;-1,14;0,04;0,00
6.395;-0,11;-0,14;-0,02;4,86;-4,83;-1,79;1,15;-1,14;0,04;0,00
6.395;-0,24;-0,12;0,22;4,86;-4,83;-1,79;1,15;-1,14;0,04;0,00
6.396;-0,69;-0,07;0,29;4,86;-4,83;-1,79;1,15;-1,14;0,04;0,00
6.396;-0,77;0,00;0,15;4,86;-4,83;-1,79;1,15;-1,14;0,04;0,00
6.453;-0,77;0,00;0,15;-1,48;0,65;0,10;1,15;-1,14;0,04;0,00
6.454;-0,77;0,00;0,15;-1,48;0,65;0,10;0,93;-1,17;0,19;0,00
6.454;-0,73;0,64;0,28;-1,48;0,65;0,10;0,93;-1,17;0,19;0,00
6.455;-1,40;0,80;0,74;-1,48;0,65;0,10;0,93;-1,17;0,19;0,00
6.455;-1,57;0,38;0,79;-1,48;0,65;0,10;0,93;-1,17;0,19;0,00
6.511;-1,57;0,38;0,79;-1,48;0,65;0,10;-0,24;-0,83;-0,15;0,00
6.511;-1,29;0,54;0,47;-1,48;0,65;0,10;-0,24;-0,83;-0,15;0,00
6.512;-1,06;0,81;0,52;-1,48;0,65;0,10;-0,24;-0,83;-0,15;0,00
6.512;-1,18;0,77;0,52;-1,48;0,65;0,10;-0,24;-0,83;-0,15;0,00
6.512;-1,18;0,77;0,52;-4,88;1,69;1,64;-0,24;-0,83;-0,15;0,00
6.575;-1,18;0,77;0,52;-4,78;2,24;2,92;-0,24;-0,83;-0,15;0,00
6.577;-1,18;0,77;0,52;-4,78;2,24;2,92;-1,27;1,38;-0,39;0,00
6.578;-1,39;0,56;0,73;-4,78;2,24;2,92;-1,27;1,38;-0,39;0,00
6.578;-1,47;0,43;0,82;-4,78;2,24;2,92;-1,27;1,38;-0,39;0,00
6.579;-1,24;0,33;0,49;-4,78;2,24;2,92;-1,27;1,38;-0,39;0,00
6.627;-1,24;0,33;0,49;-4,78;2,24;2,92;-1,19;0,14;-1,31;0,00
6.628;-0,63;0,21;0,11;-4,78;2,24;2,92;-1,19;0,14;-1,31;0,00
6.629;-0,14;0,23;-0,22;-4,78;2,24;2,92;-1,19;0,14;-1,31;0,00
6.629;0,08;0,27;-0,21;-4,78;2,24;2,92;-1,19;0,14;-1,31;0,00
6.63;0,08;0,27;-0,21;2,09;-0,12;-2,71;-1,19;0,14;-1,31;0,00
6.685;0,08;0,27;-0,21;2,09;-0,12;-2,71;-0,68;2,18;-1,02;0,00
6.686;-0,48;0,38;0,05;2,09;-0,12;-2,71;-0,68;2,18;-1,02;0,00
6.686;-0,50;0,37;0,23;2,09;-0,12;-2,71;-0,68;2,18;-1,02;0,00
6.686;-0,40;0,40;-0,04;2,09;-0,12;-2,71;-0,68;2,18;-1,02;0,00
6.686;-0,40;0,40;-0,04;6,17;1,40;-2,61;-0,68;2,18;-1,02;0,00
6.743;-0,40;0,40;-0,04;6,91;1,94;-1,36;-0,68;2,18;-1,02;0,00
6.744;-0,40;0,40;-0,04;6,91;1,94;-1,36;0,32;2,20;-0,21;0,00
6.744;-0,16;0,36;0,00;6,91;1,94;-1,36;0,32;2,20;-0,21;0,00
6.745;-0,17;0,42;0,10;6,91;1,94;-1,36;0,32;2,20;-0,21;0,00
6.745;-0,97;0,55;0,44;6,91;1,94;-1,36;0,32;2,20;-0,21;0,00
6.802;-0,97;0,55;0,44;6,91;1,94;-1,36;1,68;4,73;0,94;0,00
6.803;-1,27;0,78;0,27;6,91;1,94;-1,36;1,68;4,73;0,94;0,00
6.803;-1,42;0,84;0,06;6,91;1,94;-1,36;1,68;4,73;0,94;0,00
6.804;-1,76;0,40;0,11;6,91;1,94;-1,36;1,68;4,73;0,94;0,00
6.804;-1,76;0,40;0,11;-2,67;4,57;3,65;1,68;4,73;0,94;0,00
6.86;-1,76;0,40;0,11;-2,67;4,57;3,65;2,17;4,67;1,05;0,00
6.861;-1,76;0,40;0,11;-12,66;1,53;3,42;2,17;4,67;1,05;0,00
6.861;-2,38;0,29;-0,03;-12,66;1,53;3,42;2,17;4,67;1,05;0,00
6.861;-2,40;0,62;-0,19;-12,66;1,53;3,42;2,17;4,67;1,05;0,00
6.862;-1,73;0,70;-0,49;-12,66;1,53;3,42;2,17;4,67;1,05;0,00
6.919;-1,73;0,70;-0,49;-12,66;1,53;3,42;1,36;-1,55;0,24;0,00
6.921;-1,73;0,70;-0,49;-6,31;0,65;-0,46;1,36;-1,55;0,24;0,00
6.923;-1,51;0,28;-0,38;-6,31;0,65;-0,46;1,36;-1,55;0,24;0,00
6.924;-1,47;0,01;-0,26;-6,31;0,65;-0,46;1,36;-1,55;0,24;0,00
6.925;-1,45;-0,03;-0,24;-6,31;0,65;-0,46;1,36;-1,55;0,24;0,00
6.977;-1,45;-0,03;-0,24;-6,31;0,65;-0,46;0,91;-1,42;-0,27;0,00
6.978;-1,39;0,06;-0,17;-6,31;0,65;-0,46;0,91;-1,42;-0,27;0,00
6.979;-1,10;0,11;0,16;-6,31;0,65;-0,46;0,91;-1,42;-0,27;0,00
6.979;-0,42;-0,12;0,09;-6,31;0,65;-0,46;0,91;-1,42;-0,27;0,00
6.98;-0,42;-0,12;0,09;-3,47;-1,78;1,74;0,91;-1,42;-0,27;0,00
7.036;-0,42;-0,12;0,09;6,43;-3,80;-2,75;0,91;-1,42;-0,27;0,00
7.039;-0,42;-0,12;0,09;6,43;-3,80;-2,75;-0,05;-4,79;-1,05;0,00
7.04;-0,37;-0,28;-0,48;6,43;-3,80;-2,75;-0,05;-4,79;-1,05;0,00
7.041;-0,22;-0,27;-0,42;6,43;-3,80;-2,75;-0,05;-4,79;-1,05;0,00
7.043;-0,01;-0,06;-0,35;6,43;-3,80;-2,75;-0,05;-4,79;-1,05;0,00
7.093;-0,01;-0,06;-0,35;6,43;-3,80;-2,75;-0,27;-1,74;0,41;0,00
7.093;-0,01;-0,06;-0,35;9,23;-1,41;-2,36;-0,27;-1,74;0,41;0,00
7.094;0,10;0,14;-0,10;9,23;-1,41;-2,36;-0,27;-1,74;0,41;0,00
7.094;-0,17;0,04;0,07;9,23;-1,41;-2,36;-0,27;-1,74;0,41;0,00
7.094;-0,55;-0,20;-0,12;9,23;-1,41;-2,36;-0,27;-1,74;0,41;0,00
7.152;-0,55;-0,20;-0,12;9,23;-1,41;-2,36;-0,64;0,92;1,36;0,00
7.153;-0,92;-0,18;0,00;9,23;-1,41;-2,36;-0,64;0,92;1,36;0,00
7.153;-0,83;0,29;-0,05;9,23;-1,41;-2,36;-0,64;0,92;1,36;0,00
7.154;-1,39;0,71;0,03;9,23;-1,41;-2,36;-0,64;0,92;1,36;0,00
7.154;-1,39;0,71;0,03;1,84;-2,75;-1,19;-0,64;0,92;1,36;0,00
7.225;-1,39;0,71;0,03;1,84;-2,75;-1,19;-1,09;1,71;1,08;0,00
7.226;-1,80;0,31;0,34;1,84;-2,75;-1,19;-1,09;1,71;1,08;0,00
7.227;-1,58;0,13;0,22;1,84;-2,75;-1,19;-1,09;1,71;1,08;0,00
7.228;-1,60;0,67;0,08;1,84;-2,75;-1,19;-1,09;1,71;1,08;0,00
7.228;-1,60;0,67;0,08;-6,29;0,73;1,98;-1,09;1,71;1,08;0,00
7.269;-1,60;0,67;0,08;-7,58;3,24;1,96;-1,09;1,71;1,08;0,00
7.271;-1,60;0,67;0,08;-7,58;3,24;1,96;-0,95;-0,05;0,18;0,00
7.272;-1,67;0,78;0,29;-7,58;3,24;1,96;-0,95;-0,05;0,18;0,00
7.273;-1,93;0,52;0,29;-7,58;3,24;1,96;-0,95;-0,05;0,18;0,00
7.273;-1,71;0,21;0,16;-7,58;3,24;1,96;-0,95;-0,05;0,18;0,00
7.329;-1,71;0,21;0,16;-2,66;-0,09;-1,11;-0,95;-0,05;0,18;0,00
7.331;-1,71;0,21;0,16;-2,66;-0,09;-1,11;-1,30;-1,28;-0,77;0,00
7.332;-1,25;0,27;-0,09;-2,66;-0,09;-1,11;-1,30;-1,28;-0,77;0,00
7.333;-0,77;0,32;-0,09;-2,66;-0,09;-1,11;-1,30;-1,28;-0,77;0,00
7.334;-0,41;0,33;0,26;-2,66;-0,09;-1,11;-1,30;-1,28;-0,77;0,00
7.386;-0,41;0,33;0,26;-2,66;-0,09;-1,11;-0,78;-1,94;-1,06;0,00
7.386;0,05;0,29;0,56;-2,66;-0,09;-1,11;-0,78;-1,94;-1,06;0,00
7.387;0,21;0,28;0,19;-2,66;-0,09;-1,11;-0,78;-1,94;-1,06;0,00
7.387;-0,34;0,37;0,19;-2,66;-0,09;-1,11;-0,78;-1,94;-1,06;0,00
7.388;-0,34;0,37;0,19;8,83;0,88;0,99;-0,78;-1,94;-1,06;0,00
7.447;-0,34;0,37;0,19;8,83;0,88;0,99;0,78;0,10;-0,07;0,00
7.448;-0,20;0,45;0,03;8,83;0,88;0,99;0,78;0,10;-0,07;0,00
7.448;-0,14;0,40;0,28;8,83;0,88;0,99;0,78;0,10;-0,07;0,00
7.448;-0,07;0,30;0,48;8,83;0,88;0,99;0,78;0,10;-0,07;0,00
7.449;-0,07;0,30;0,48;7,01;1,82;-0,47;0,78;0,10;-0,07;0,00
7.503;-0,07;0,30;0,48;7,01;1,82;-0,47;1,77;-0,86;0,14;0,00
7.503;-0,29;0,28;0,23;7,01;1,82;-0,47;1,77;-0,86;0,14;0,00
7.504;-0,70;0,54;-0,10;7,01;1,82;-0,47;1,77;-0,86;0,14;0,00
7.504;-1,19;0,82;0,33;7,01;1,82;-0,47;1,77;-0,86;0,14;0,00
7.504;-1,19;0,82;0,33;5,56;1,15;-0,33;1,77;-0,86;0,14;0,00
7.56;-1,19;0,82;0,33;5,56;1,15;-0,33;2,06;0,19;0,25;0,00
7.562;-1,73;0,73;0,51;5,56;1,15;-0,33;2,06;0,19;0,25;0,00
7.563;-1,75;0,30;0,34;5,56;1,15;-0,33;2,06;0,19;0,25;0,00
7.563;-2,09;0,49;0,58;5,56;1,15;-0,33;2,06;0,19;0,25;0,00
7.563;-2,09;0,49;0,58;-6,15;3,12;1,91;2,06;0,19;0,25;0,00
7.618;-2,09;0,49;0,58;-6,15;3,12;1,91;2,30;1,92;-0,19;0,00
7.618;-2,09;0,49;0,58;-11,09;3,12;7,18;2,30;1,92;-0,19;0,00
7.619;-2,21;0,81;0,94;-11,09;3,12;7,18;2,30;1,92;-0,19;0,00
7.619;-1,99;0,59;0,86;-11,09;3,12;7,18;2,30;1,92;-0,19;0,00
7.619;-1,66;0,37;0,54;-11,09;3,12;7,18;2,30;1,92;-0,19;0,00
7.677;-1,66;0,37;0,54;-11,09;3,12;7,18;2,28;1,42;-0,81;0,00
7.678;-1,23;0,30;0,33;-11,09;3,12;7,18;2,28;1,42;-0,81;0,00
7.678;-0,74;0,03;0,23;-11,09;3,12;7,18;2,28;1,42;-0,81;0,00
7.678;-0,64;-0,12;0,09;-11,09;3,12;7,18;2,28;1,42;-0,81;0,00
7.679;-0,64;-0,12;0,09;-2,24;-0,28;4,08;2,28;1,42;-0,81;0,00
7.735;-0,64;-0,12;0,09;-2,24;-0,28;4,08;1,07;-1,92;-1,40;0,00
7.736;-0,69;-0,05;-0,00;-2,24;-0,28;4,08;1,07;-1,92;-1,40;0,00
7.736;-0,71;-0,01;-0,08;-2,24;-0,28;4,08;1,07;-1,92;-1,40;0,00
7.736;-0,23;0,04;-0,67;-2,24;-0,28;4,08;1,07;-1,92;-1,40;0,00
7.736;-0,23;0,04;-0,67;3,12;-2,36;-0,43;1,07;-1,92;-1,40;0,00
7.793;-0,23;0,04;-0,67;3,12;-2,36;-0,43;0,09;-0,32;0,24;0,00
7.793;-0,23;0,04;-0,67;6,58;-3,20;-2,04;0,09;-0,32;0,24;0,00
7.794;-0,35;-0,17;-0,07;6,58;-3,20;-2,04;0,09;-0,32;0,24;0,00
7.794;-0,36;-0,28;0,30;6,58;-3,20;-2,04;0,09;-0,32;0,24;0,00
7.794;-0,58;-0,12;-0,01;6,58;-3,20;-2,04;0,09;-0,32;0,24;0,00
7.852;-0,58;-0,12;-0,01;6,58;-3,20;-2,04;-0,05;-0,04;1,25;0,00
7.853;-0,58;-0,12;-0,01;4,50;-3,98;-1,41;-0,05;-0,04;1,25;0,00
7.853;-0,54;-0,11;-0,22;4,50;-3,98;-1,41;-0,05;-0,04;1,25;0,00
7.853;-0,37;-0,24;-0,02;4,50;-3,98;-1,41;-0,05;-0,04;1,25;0,00
7.853;-0,37;-0,06;-0,14;4,50;-3,98;-1,41;-0,05;-0,04;1,25;0,00
7.91;-0,37;-0,06;-0,14;4,50;-3,98;-1,41;-0,59;0,41;1,44;0,00
7.91;-0,37;-0,06;-0,14;-0,66;-1,14;0,52;-0,59;0,41;1,44;0,00
7.911;-1,02;0,25;0,19;-0,66;-1,14;0,52;-0,59;0,41;1,44;0,00
7.911;-1,61;0,45;0,26;-0,66;-1,14;0,52;-0,59;0,41;1,44;0,00
7.911;-1,87;0,39;0,38;-0,66;-1,14;0,52;-0,59;0,41;1,44;0,00
7.977;-1,87;0,39;0,38;-0,66;-1,14;0,52;-0,96;1,31;0,01;0,00
7.978;-2,06;0,44;0,44;-0,66;-1,14;0,52;-0,96;1,31;0,01;0,00
7.979;-1,84;0,43;0,32;-0,66;-1,14;0,52;-0,96;1,31;0,01;0,00
7.979;-1,55;0,40;0,03;-0,66;-1,14;0,52;-0,96;1,31;0,01;0,00
7.98;-1,55;0,40;0,03;-9,51;0,89;3,68;-0,96;1,31;0,01;0,00
8.027;-1,55;0,40;0,03;-9,51;0,89;3,68;-1,36;-0,37;-1,39;0,00
8.027;-1,25;0,42;-0,16;-9,51;0,89;3,68;-1,36;-0,37;-1,39;0,00
8.028;-1,05;0,31;-0,05;-9,51;0,89;3,68;-1,36;-0,37;-1,39;0,00
8.028;-0,71;0,23;0,15;-9,51;0,89;3,68;-1,36;-0,37;-1,39;0,00
8.029;-0,71;0,23;0,15;-2,98;1,22;-1,05;-1,36;-0,37;-1,39;0,00
8.086;-0,71;0,23;0,15;-2,98;1,22;-1,05;-1,09;-0,62;-1,67;0,00
8.087;-0,59;0,26;0,24;-2,98;1,22;-1,05;-1,09;-0,62;-1,67;0,00
8.088;-0,60;0,29;0,41;-2,98;1,22;-1,05;-1,09;-0,62;-1,67;0,00
8.089;-0,54;0,28;0,14;-2,98;1,22;-1,05;-1,09;-0,62;-1,67;0,00
8.09;-0,54;0,28;0,14;3,52;1,07;1,64;-1,09;-0,62;-1,67;0,00
8.144;-0,54;0,28;0,14;3,52;1,07;1,64;0,06;-1,16;-0,74;0,00
8.144;-0,54;0,28;0,14;5,92;2,26;-1,05;0,06;-1,16;-0,74;0,00
8.145;-0,31;0,29;-0,05;5,92;2,26;-1,05;0,06;-1,16;-0,74;0,00
8.145;-0,27;0,45;0,09;5,92;2,26;-1,05;0,06;-1,16;-0,74;0,00
8.145;-0,33;0,62;0,52;5,92;2,26;-1,05;0,06;-1,16;-0,74;0,00
8.202;-0,33;0,62;0,52;5,92;2,26;-1,05;1,42;-0,15;0,73;0,00
8.203;-0,33;0,62;0,52;5,46;3,33;6,09;1,42;-0,15;0,73;0,00
8.203;-0,37;0,61;0,82;5,46;3,33;6,09;1,42;-0,15;0,73;0,00
8.203;-0,52;0,31;1,05;5,46;3,33;6,09;1,42;-0,15;0,73;0,00
8.204;-0,64;0,26;0,29;5,46;3,33;6,09;1,42;-0,15;0,73;0,00
8.26;-0,64;0,26;0,29;5,46;3,33;6,09;3,07;-0,39;1,01;0,00
8.261;-0,77;0,28;0,36;5,46;3,33;6,09;3,07;-0,39;1,01;0,00
8.262;-1,32;0,49;1,02;5,46;3,33;6,09;3,07;-0,39;1,01;0,00
8.263;-1,88;0,23;1,17;5,46;3,33;6,09;3,07;-0,39;1,01;0,00
8.263;-1,88;0,23;1,17;0,33;0,84;3,85;3,07;-0,39;1,01;0,00
8.319;-1,88;0,23;1,17;0,33;0,84;3,85;3,36;1,57;0,44;0,00
8.321;-1,88;0,23;1,17;-11,48;-1,19;7,87;3,36;1,57;0,44;0,00
8.322;-2,49;0,03;0,82;-11,48;-1,19;7,87;3,36;1,57;0,44;0,00
8.322;-2,04;0,28;0,52;-11,48;-1,19;7,87;3,36;1,57;0,44;0,00
8.322;-1,61;0,29;0,32;-11,48;-1,19;7,87;3,36;1,57;0,44;0,00
8.378;-1,61;0,29;0,32;-5,77;-0,55;1,84;3,36;1,57;0,44;0,00
8.38;-1,61;0,29;0,32;-5,77;-0,55;1,84;2,02;-1,47;-1,21;0,00
8.38;-1,64;0,16;0,25;-5,77;-0,55;1,84;2,02;-1,47;-1,21;0,00
8.381;-1,49;0,09;0,25;-5,77;-0,55;1,84;2,02;-1,47;-1,21;0,00
8.382;-0,96;0,05;0,09;-5,77;-0,55;1,84;2,02;-1,47;-1,21;0,00
8.435;-0,96;0,05;0,09;-5,77;-0,55;1,84;0,99;-1,40;-1,61;0,00
8.436;-0,96;0,05;0,09;1,91;-1,20;-1,10;0,99;-1,40;-1,61;0,00
8.438;-0,76;0,01;0,14;1,91;-1,20;-1,10;0,99;-1,40;-1,61;0,00
8.439;-0,68;0,02;-0,12;1,91;-1,20;-1,10;0,99;-1,40;-1,61;0,00
8.439;-0,43;-0,01;-0,33;1,91;-1,20;-1,10;0,99;-1,40;-1,61;0,00
8.493;-0,43;-0,01;-0,33;1,91;-1,20;-1,10;0,44;-1,37;-0,84;0,00
8.494;-0,43;-0,01;-0,33;7,11;-1,41;-5,19;0,44;-1,37;-0,84;0,00
8.494;-0,21;-0,02;-0,27;7,11;-1,41;-5,19;0,44;-1,37;-0,84;0,00
8.495;-0,10;-0,10;-0,32;7,11;-1,41;-5,19;0,44;-1,37;-0,84;0,00
8.495;0,04;-0,23;-0,22;7,11;-1,41;-5,19;0,44;-1,37;-0,84;0,00
8.553;0,04;-0,23;-0,22;7,11;-1,41;-5,19;0,01;-0,51;-0,04;0,00
8.555;0,04;-0,23;-0,22;8,21;-2,68;-3,24;0,01;-0,51;-0,04;0,00
8.559;-0,08;-0,20;-0,06;8,21;-2,68;-3,24;0,01;-0,51;-0,04;0,00
8.56;-0,30;-0,10;0,01;8,21;-2,68;-3,24;0,01;-0,51;-0,04;0,00
8.561;-0,46;-0,11;0,02;8,21;-2,68;-3,24;0,01;-0,51;-0,04;0,00
8.611;-0,46;-0,11;0,02;8,21;-2,68;-3,24;-0,22;0,79;1,05;0,00
8.611;-0,46;-0,11;0,02;2,74;-0,69;-2,24;-0,22;0,79;1,05;0,00
8.612;-0,66;0,01;-0,08;2,74;-0,69;-2,24;-0,22;0,79;1,05;0,00
8.612;-0,89;0,34;-0,03;2,74;-0,69;-2,24;-0,22;0,79;1,05;0,00
8.612;-1,02;0,44;0,28;2,74;-0,69;-2,24;-0,22;0,79;1,05;0,00
8.668;-1,02;0,44;0,28;2,74;-0,69;-2,24;-1,19;1,96;1,53;0,00
8.669;-1,02;0,44;0,28;-8,10;-0,50;3,03;-1,19;1,96;1,53;0,00
8.67;-1,78;0,21;0,47;-8,10;-0,50;3,03;-1,19;1,96;1,53;0,00
8.67;-2,58;-0,12;0,50;-8,10;-0,50;3,03;-1,19;1,96;1,53;0,00
8.67;-2,41;0,17;0,46;-8,10;-0,50;3,03;-1,19;1,96;1,53;0,00
8.727;-2,41;0,17;0,46;-8,10;-0,50;3,03;-2,46;-1,23;-0,08;0,00
8.728;-2,41;0,17;0,46;-8,48;0,64;2,79;-2,46;-1,23;-0,08;0,00
8.729;-1,80;0,43;0,42;-8,48;0,64;2,79;-2,46;-1,23;-0,08;0,00
8.73;-1,30;0,21;0,59;-8,48;0,64;2,79;-2,46;-1,23;-0,08;0,00
8.73;-0,87;0,18;0,59;-8,48;0,64;2,79;-2,46;-1,23;-0,08;0,00
8.786;-0,87;0,18;0,59;-8,48;0,64;2,79;-2,95;-2,62;-1,39;0,00
8.787;-0,80;0,40;0,49;-8,48;0,64;2,79;-2,95;-2,62;-1,39;0,00
8.788;-0,90;0,51;0,72;-8,48;0,64;2,79;-2,95;-2,62;-1,39;0,00
8.788;-0,72;0,47;0,61;-8,48;0,64;2,79;-2,95;-2,62;-1,39;0,00
8.789;-0,72;0,47;0,61;0,77;2,75;2,13;-2,95;-2,62;-1,39;0,00
8.846;-0,72;0,47;0,61;0,77;2,75;2,13;-1,70;-1,12;-0,38;0,00
8.847;-0,70;0,49;0,40;0,77;2,75;2,13;-1,70;-1,12;-0,38;0,00
8.847;-0,31;0,39;0,48;0,77;2,75;2,13;-1,70;-1,12;-0,38;0,00
8.848;-0,20;0,14;0,29;0,77;2,75;2,13;-1,70;-1,12;-0,38;0,00
8.848;-0,20;0,14;0,29;3,17;4,16;0,50;-1,70;-1,12;-0,38;0,00
8.904;-0,20;0,14;0,29;7,19;0,61;-1,60;-1,70;-1,12;-0,38;0,00
8.905;-0,20;0,14;0,29;7,19;0,61;-1,60;-0,31;-1,55;-0,02;0,00
8.906;-0,27;-0,01;0,31;7,19;0,61;-1,60;-0,31;-1,55;-0,02;0,00
8.907;0,13;0,10;0,48;7,19;0,61;-1,60;-0,31;-1,55;-0,02;0,00
8.907;0,15;0,33;0,71;7,19;0,61;-1,60;-0,31;-1,55;-0,02;0,00
8.962;0,15;0,33;0,71;7,19;0,61;-1,60;1,49;-0,69;-0,21;0,00
8.963;0,12;0,01;0,89;7,19;0,61;-1,60;1,49;-0,69;-0,21;0,00
8.963;-0,01;0,16;0,73;7,19;0,61;-1,60;1,49;-0,69;-0,21;0,00
8.963;-0,46;0,58;0,98;7,19;0,61;-1,60;1,49;-0,69;-0,21;0,00
8.964;-0,46;0,58;0,98;8,76;1,11;2,16;1,49;-0,69;-0,21;0,00
9.018;-0,46;0,58;0,98;8,76;1,11;2,16;2,47;0,66;-0,17;0,00
9.019;-0,46;0,58;0,98;-1,33;0,03;9,32;2,47;0,66;-0,17;0,00
9.02;-0,93;0,28;1,61;-1,33;0,03;9,32;2,47;0,66;-0,17;0,00
9.02;-1,52;-0,48;1,85;-1,33;0,03;9,32;2,47;0,66;-0,17;0,00
9.02;-1,53;0,01;1,61;-1,33;0,03;9,32;2,47;0,66;-0,17;0,00
9.077;-1,53;0,01;1,61;-1,33;0,03;9,32;1,97;0,00;-1,53;0,00
9.077;-1,41;-0,23;1,49;-1,33;0,03;9,32;1,97;0,00;-1,53;0,00
9.078;-1,39;-0,18;1,34;-1,33;0,03;9,32;1,97;0,00;-1,53;0,00
9.078;-1,56;-0,18;1,25;-1,33;0,03;9,32;1,97;0,00;-1,53;0,00
9.079;-1,56;-0,18;1,25;-5,77;-2,36;9,33;1,97;0,00;-1,53;0,00
9.135;-1,56;-0,18;1,25;-5,77;-2,36;9,33;1,59;0,33;-1,94;0,00
9.135;-1,56;-0,18;1,25;-5,57;-1,92;4,21;1,59;0,33;-1,94;0,00
9.136;-1,55;-0,21;1,03;-5,57;-1,92;4,21;1,59;0,33;-1,94;0,00
9.137;-1,25;-0,04;0,55;-5,57;-1,92;4,21;1,59;0,33;-1,94;0,00
9.137;-0,98;0,01;0,35;-5,57;-1,92;4,21;1,59;0,33;-1,94;0,00
9.193;-0,98;0,01;0,35;-5,57;-1,92;4,21;1,42;1,27;-1,43;0,00
9.194;-0,98;0,01;0,35;0,08;0,74;-2,09;1,42;1,27;-1,43;0,00
9.194;-1,03;0,08;0,13;0,08;0,74;-2,09;1,42;1,27;-1,43;0,00
9.195;-0,73;0,19;0,20;0,08;0,74;-2,09;1,42;1,27;-1,43;0,00
9.195;-0,46;-0,09;-0,03;0,08;0,74;-2,09;1,42;1,27;-1,43;0,00
9.253;-0,46;-0,09;-0,03;0,08;0,74;-2,09;1,07;2,22;-0,55;0,00
9.254;-0,27;-0,01;-0,33;0,08;0,74;-2,09;1,07;2,22;-0,55;0,00
9.255;-0,40;0,35;-0,56;0,08;0,74;-2,09;1,07;2,22;-0,55;0,00
9.255;-0,62;0,09;-0,28;0,08;0,74;-2,09;1,07;2,22;-0,55;0,00
9.255;-0,62;0,09;-0,28;5,71;0,70;-6,01;1,07;2,22;-0,55;0,00
9.31;-0,62;0,09;-0,28;5,71;0,70;-6,01;0,09;0,96;1,42;0,00
9.311;-0,62;0,09;-0,28;2,64;-3,87;-2,30;0,09;0,96;1,42;0,00
9.312;-0,82;-0,40;0,12;2,64;-3,87;-2,30;0,09;0,96;1,42;0,00
9.312;-0,65;-0,59;0,20;2,64;-3,87;-2,30;0,09;0,96;1,42;0,00
9.313;-0,56;-0,49;0,08;2,64;-3,87;-2,30;0,09;0,96;1,42;0,00
9.369;-0,56;-0,49;0,08;2,64;-3,87;-2,30;-0,00;0,69;2,11;0,00
9.37;-0,56;-0,49;0,08;2,56;-5,21;0,44;-0,00;0,69;2,11;0,00
9.37;-0,59;-0,33;0,15;2,56;-5,21;0,44;-0,00;0,69;2,11;0,00
9.37;-0,93;-0,18;0,54;2,56;-5,21;0,44;-0,00;0,69;2,11;0,00
9.371;-1,34;-0,14;0,71;2,56;-5,21;0,44;-0,00;0,69;2,11;0,00
9.427;-1,34;-0,14;0,71;2,56;-5,21;0,44;-0,36;1,95;1,58;0,00
9.428;-1,34;-0,14;0,71;-4,90;-1,95;4,38;-0,36;1,95;1,58;0,00
9.429;-1,66;-0,01;0,64;-4,90;-1,95;4,38;-0,36;1,95;1,58;0,00
9.429;-1,38;0,40;0,33;-4,90;-1,95;4,38;-0,36;1,95;1,58;0,00
9.429;-1,50;0,36;0,55;-4,90;-1,95;4,38;-0,36;1,95;1,58;0,00
9.494;-1,50;0,36;0,55;-4,90;-1,95;4,38;-1,29;-0,40;0,15;0,00
9.496;-1,62;0,20;0,84;-4,90;-1,95;4,38;-1,29;-0,40;0,15;0,00
9.496;-1,34;0,37;0,62;-4,90;-1,95;4,38;-1,29;-0,40;0,15;0,00
9.497;-0,92;0,40;0,30;-4,90;-1,95;4,38;-1,29;-0,40;0,15;0,00
9.498;-0,92;0,40;0,30;-5,13;0,29;4,96;-1,29;-0,40;0,15;0,00
9.544;-0,92;0,40;0,30;-5,13;0,29;4,96;-1,48;-1,19;-1,23;0,00
9.546;-0,92;0,40;0,30;2,92;0,90;1,23;-1,48;-1,19;-1,23;0,00
9.547;-0,64;0,25;0,44;2,92;0,90;1,23;-1,48;-1,19;-1,23;0,00
9.548;-0,43;0,21;0,40;2,92;0,90;1,23;-1,48;-1,19;-1,23;0,00
9.549;-0,32;0,38;0,28;2,92;0,90;1,23;-1,48;-1,19;-1,23;0,00
9.615;-0,32;0,38;0,28;2,92;0,90;1,23;-0,51;0,05;-1,12;0,00
9.616;-0,13;0,38;0,30;2,92;0,90;1,23;-0,51;0,05;-1,12;0,00
9.618;-0,13;0,27;0,21;2,92;0,90;1,23;-0,51;0,05;-1,12;0,00
9.619;-0,06;0,34;-0,02;2,92;0,90;1,23;-0,51;0,05;-1,12;0,00
9.626;-0,06;0,34;-0,02;7,50;2,10;0,03;-0,51;0,05;-1,12;0,00
9.66;-0,06;0,34;-0,02;7,50;2,10;0,03;0,49;-0,86;-0,81;0,00
9.661;0,02;0,30;0,03;7,50;2,10;0,03;0,49;-0,86;-0,81;0,00
9.661;0,09;0,13;0,29;7,50;2,10;0,03;0,49;-0,86;-0,81;0,00
9.662;0,00;-0,04;0,29;7,50;2,10;0,03;0,49;-0,86;-0,81;0,00
9.662;0,00;-0,04;0,29;9,29;1,60;-1,93;0,49;-0,86;-0,81;0,00
9.719;0,00;-0,04;0,29;9,29;1,60;-1,93;1,80;0,51;-0,81;0,00
9.721;0,00;-0,04;0,29;4,90;0,19;0,70;1,80;0,51;-0,81;0,00
9.722;-0,53;0,08;0,47;4,90;0,19;0,70;1,80;0,51;-0,81;0,00
9.722;-0,78;0,27;0,24;4,90;0,19;0,70;1,80;0,51;-0,81;0,00
9.723;-1,09;0,38;0,71;4,90;0,19;0,70;1,80;0,51;-0,81;0,00
9.777;-1,09;0,38;0,71;4,90;0,19;0,70;2,64;1,25;-1,34;0,00
9.778;-1,53;0,04;0,57;4,90;0,19;0,70;2,64;1,25;-1,34;0,00
9.778;-2,45;-0,09;0,11;4,90;0,19;0,70;2,64;1,25;-1,34;0,00
9.778;-3,14;0,15;0,39;4,90;0,19;0,70;2,64;1,25;-1,34;0,00
9.779;-3,14;0,15;0,39;-7,05;0,69;2,65;2,64;1,25;-1,34;0,00
9.844;-3,14;0,15;0,39;-7,05;0,69;2,65;2,18;2,73;-1,23;0,00
9.845;-3,27;-0,08;0,37;-7,05;0,69;2,65;2,18;2,73;-1,23;0,00
9.845;-2,89;-0,18;0,14;-7,05;0,69;2,65;2,18;2,73;-1,23;0,00
9.846;-2,20;-0,05;-0,04;-7,05;0,69;2,65;2,18;2,73;-1,23;0,00
9.846;-2,20;-0,05;-0,04;-20,36;-0,24;2,55;2,18;2,73;-1,23;0,00
9.893;-2,20;-0,05;-0,04;-6,21;0,49;-0,12;2,18;2,73;-1,23;0,00
9.894;-2,20;-0,05;-0,04;-6,21;0,49;-0,12;1,35;0,48;-0,99;0,00
9.895;-1,66;-0,04;0,00;-6,21;0,49;-0,12;1,35;0,48;-0,99;0,00
9.895;-1,14;0,03;0,03;-6,21;0,49;-0,12;1,35;0,48;-0,99;0,00
9.896;-0,67;0,09;0,04;-6,21;0,49;-0,12;1,35;0,48;-0,99;0,00
9.952;-0,67;0,09;0,04;-6,21;0,49;-0,12;0,36;-1,13;-0,63;0,00
9.953;-0,67;0,09;0,04;7,19;1,44;0,04;0,36;-1,13;-0,63;0,00
9.954;-0,26;0,03;0,07;7,19;1,44;0,04;0,36;-1,13;-0,63;0,00
9.954;0,09;0,01;0,14;7,19;1,44;0,04;0,36;-1,13;-0,63;0,00
9.955;0,27;-0,02;0,16;7,19;1,44;0,04;0,36;-1,13;-0,63;0,00
10.011;0,27;-0,02;0,16;7,19;1,44;0,04;-0,21;-1,53;-0,14;0,00
10.012;0,27;-0,02;0,16;12,55;0,09;0,23;-0,21;-1,53;-0,14;0,00
10.013;0,37;-0,13;0,17;12,55;0,09;0,23;-0,21;-1,53;-0,14;0,00
10.013;0,27;-0,17;0,25;12,55;0,09;0,23;-0,21;-1,53;-0,14;0,00
10.014;0,06;-0,23;0,19;12,55;0,09;0,23;-0,21;-1,53;-0,14;0,00
10.069;0,06;-0,23;0,19;12,55;0,09;0,23;-0,54;-1,56;0,19;0,00
10.07;0,06;-0,23;0,19;8,37;-2,64;-1,65;-0,54;-1,56;0,19;0,00
10.071;-0,07;-0,44;0,05;8,37;-2,64;-1,65;-0,54;-1,56;0,19;0,00
10.071;-0,27;-0,49;0,00;8,37;-2,64;-1,65;-0,54;-1,56;0,19;0,00
10.071;-0,64;-0,35;0,06;8,37;-2,64;-1,65;-0,54;-1,56;0,19;0,00
10.128;-0,64;-0,35;0,06;8,37;-2,64;-1,65;-0,75;0,88;1,30;0,00
10.128;-1,36;-0,31;0,29;8,37;-2,64;-1,65;-0,75;0,88;1,30;0,00
10.129;-1,93;-0,19;0,55;8,37;-2,64;-1,65;-0,75;0,88;1,30;0,00
10.129;-2,33;-0,11;0,64;8,37;-2,64;-1,65;-0,75;0,88;1,30;0,00
10.13;-2,33;-0,11;0,64;-3,33;-2,20;0,99;-0,75;0,88;1,30;0,00
10.185;-2,33;-0,11;0,64;-3,33;-2,20;0,99;-0,90;1,25;1,04;0,00
10.186;-2,33;-0,11;0,64;-13,66;-0,97;4,30;-0,90;1,25;1,04;0,00
10.187;-2,54;-0,08;0,59;-13,66;-0,97;4,30;-0,90;1,25;1,04;0,00
10.187;-2,34;-0,13;0,48;-13,66;-0,97;4,30;-0,90;1,25;1,04;0,00
10.188;-2,27;-0,11;0,29;-13,66;-0,97;4,30;-0,90;1,25;1,04;0,00
10.243;-2,27;-0,11;0,29;-13,66;-0,97;4,30;-0,99;0,05;0,27;0,00
10.244;-2,27;-0,11;0,29;-7,76;0,29;1,26;-0,99;0,05;0,27;0,00
10.245;-1,89;0,04;0,27;-7,76;0,29;1,26;-0,99;0,05;0,27;0,00
10.245;-1,29;0,17;0,22;-7,76;0,29;1,26;-0,99;0,05;0,27;0,00
10.246;-0,83;0,24;0,05;-7,76;0,29;1,26;-0,99;0,05;0,27;0,00
10.303;-0,83;0,24;0,05;-7,76;0,29;1,26;-0,75;-1,07;0,13;0,00
10.303;-0,83;0,24;0,05;6,02;2,42;-1,98;-0,75;-1,07;0,13;0,00
10.304;-0,34;0,25;0,01;6,02;2,42;-1,98;-0,75;-1,07;0,13;0,00
10.304;0,01;0,27;-0,10;6,02;2,42;-1,98;-0,75;-1,07;0,13;0,00
10.304;0,23;0,35;-0,02;6,02;2,42;-1,98;-0,75;-1,07;0,13;0,00
10.36;0,23;0,35;-0,02;6,02;2,42;-1,98;-0,04;-1,18;0,41;0,00
10.361;0,35;0,41;-0,05;6,02;2,42;-1,98;-0,04;-1,18;0,41;0,00
10.361;0,30;0,43;-0,07;6,02;2,42;-1,98;-0,04;-1,18;0,41;0,00
10.362;0,06;0,50;0,01;6,02;2,42;-1,98;-0,04;-1,18;0,41;0,00
10.362;0,06;0,50;0,01;12,32;3,54;-2,95;-0,04;-1,18;0,41;0,00
10.419;0,06;0,50;0,01;12,32;3,54;-2,95;0,97;-0,71;0,69;0,00
10.42;0,06;0,50;0,01;7,81;3,40;-1,56;0,97;-0,71;0,69;0,00
10.422;-0,20;0,49;0,12;7,81;3,40;-1,56;0,97;-0,71;0,69;0,00
10.422;-0,29;0,35;0,26;7,81;3,40;-1,56;0,97;-0,71;0,69;0,00
10.423;-0,58;0,33;0,29;7,81;3,40;-1,56;0,97;-0,71;0,69;0,00
10.477;-0,58;0,33;0,29;7,81;3,40;-1,56;1,91;-0,32;0,86;0,00
10.48;-0,58;0,33;0,29;-1,73;3,19;1,47;1,91;-0,32;0,86;0,00
10.481;-1,05;0,53;0,36;-1,73;3,19;1,47;1,91;-0,32;0,86;0,00
10.482;-1,69;0,66;0,67;-1,73;3,19;1,47;1,91;-0,32;0,86;0,00
10.482;-2,32;0,53;0,89;-1,73;3,19;1,47;1,91;-0,32;0,86;0,00
10.536;-2,32;0,53;0,89;-1,73;3,19;1,47;2,45;1,00;1,25;0,00
10.537;-2,32;0,53;0,89;-16,43;1,06;6,23;2,45;1,00;1,25;0,00
10.537;-2,82;0,31;0,84;-16,43;1,06;6,23;2,45;1,00;1,25;0,00
10.537;-2,75;0,35;0,83;-16,43;1,06;6,23;2,45;1,00;1,25;0,00
10.538;-2,29;0,38;0,81;-16,43;1,06;6,23;2,45;1,00;1,25;0,00
10.594;-2,29;0,38;0,81;-16,43;1,06;6,23;1,85;-0,86;0,37;0,00
10.594;-2,29;0,38;0,81;-8,76;-0,02;4,53;1,85;-0,86;0,37;0,00
10.595;-1,83;0,35;0,67;-8,76;-0,02;4,53;1,85;-0,86;0,37;0,00
10.595;-1,42;0,27;0,61;-8,76;-0,02;4,53;1,85;-0,86;0,37;0,00
10.596;-1,06;0,13;0,50;-8,76;-0,02;4,53;1,85;-0,86;0,37;0,00
10.653;-1,06;0,13;0,50;-8,76;-0,02;4,53;1,02;-0,26;0,03;0,00
10.654;-0,69;-0,01;0,25;-8,76;-0,02;4,53;1,02;-0,26;0,03;0,00
10.654;-0,27;-0,11;0,03;-8,76;-0,02;4,53;1,02;-0,26;0,03;0,00
10.654;0,12;-0,26;-0,01;-8,76;-0,02;4,53;1,02;-0,26;0,03;0,00
10.655;0,12;-0,26;-0,01;2,65;-3,31;0,27;1,02;-0,26;0,03;0,00
10.71;0,12;-0,26;-0,01;2,65;-3,31;0,27;-0,07;-0,76;0,04;0,00
10.711;0,36;-0,41;0,05;2,65;-3,31;0,27;-0,07;-0,76;0,04;0,00
10.711;0,31;-0,34;-0,05;2,65;-3,31;0,27;-0,07;-0,76;0,04;0,00
10.711;-0,12;-0,24;-0,01;2,65;-3,31;0,27;-0,07;-0,76;0,04;0,00
10.712;-0,12;-0,24;-0,01;11,49;-6,56;-2,70;-0,07;-0,76;0,04;0,00
10.769;-0,12;-0,24;-0,01;11,49;-6,56;-2,70;-1,06;0,74;0,97;0,00
10.771;-0,12;-0,24;-0,01;5,99;-6,07;-1,57;-1,06;0,74;0,97;0,00
10.772;-0,33;-0,25;0,05;5,99;-6,07;-1,57;-1,06;0,74;0,97;0,00
10.773;-0,40;-0,30;0,23;5,99;-6,07;-1,57;-1,06;0,74;0,97;0,00
10.773;-0,43;-0,31;0,25;5,99;-6,07;-1,57;-1,06;0,74;0,97;0,00
10.828;-0,43;-0,31;0,25;5,99;-6,07;-1,57;-1,40;0,01;1,66;0,00
10.829;-0,57;-0,14;0,22;5,99;-6,07;-1,57;-1,40;0,01;1,66;0,00
10.829;-0,87;0,34;0,32;5,99;-6,07;-1,57;-1,40;0,01;1,66;0,00
10.83;-1,42;0,49;0,76;5,99;-6,07;-1,57;-1,40;0,01;1,66;0,00
10.83;-1,42;0,49;0,76;2,23;-4,35;-0,14;-1,40;0,01;1,66;0,00
10.887;-1,42;0,49;0,76;2,23;-4,35;-0,14;-1,37;1,91;1,57;0,00
10.888;-2,05;0,11;1,02;2,23;-4,35;-0,14;-1,37;1,91;1,57;0,00
10.889;-2,25;0,03;0,71;2,23;-4,35;-0,14;-1,37;1,91;1,57;0,00
10.89;-2,03;0,35;0,57;2,23;-4,35;-0,14;-1,37;1,91;1,57;0,00
10.89;-2,03;0,35;0,57;-10,28;-2,51;5,87;-1,37;1,91;1,57;0,00
10.943;-2,03;0,35;0,57;-10,28;-2,51;5,87;-1,43;0,25;-0,54;0,00
10.945;-2,03;0,35;0,57;-7,71;0,45;2,59;-1,43;0,25;-0,54;0,00
10.945;-1,64;0,41;0,54;-7,71;0,45;2,59;-1,43;0,25;-0,54;0,00
10.946;-1,36;0,62;0,47;-7,71;0,45;2,59;-1,43;0,25;-0,54;0,00
10.946;-0,98;0,61;0,30;-7,71;0,45;2,59;-1,43;0,25;-0,54;0,00
11.003;-0,98;0,61;0,30;-7,71;0,45;2,59;-1,45;0,72;-2,04;0,00
11.004;-0,62;0,51;0,18;-7,71;0,45;2,59;-1,45;0,72;-2,04;0,00
11.005;-0,32;0,43;0,23;-7,71;0,45;2,59;-1,45;0,72;-2,04;0,00
11.006;-0,12;0,48;0,28;-7,71;0,45;2,59;-1,45;0,72;-2,04;0,00
11.006;-0,12;0,48;0,28;2,89;2,22;-0,14;-1,45;0,72;-2,04;0,00
11.061;-0,12;0,48;0,28;2,89;2,22;-0,14;-0,79;0,05;-1,91;0,00
11.062;0,09;0,53;0,29;2,89;2,22;-0,14;-0,79;0,05;-1,91;0,00
11.062;0,10;0,73;0,04;2,89;2,22;-0,14;-0,79;0,05;-1,91;0,00
11.063;0,35;0,82;-0,09;2,89;2,22;-0,14;-0,79;0,05;-1,91;0,00
11.063;0,35;0,82;-0,09;9,50;3,93;-0,56;-0,79;0,05;-1,91;0,00
11.121;0,35;0,82;-0,09;9,84;8,08;-2,22;-0,79;0,05;-1,91;0,00
11.122;0,35;0,82;-0,09;9,84;8,08;-2,22;0,45;-0,72;-1,10;0,00
11.123;0,18;1,07;-0,07;9,84;8,08;-2,22;0,45;-0,72;-1,10;0,00
11.123;-0,29;1,01;0,36;9,84;8,08;-2,22;0,45;-0,72;-1,10;0,00
11.123;-0,54;0,58;0,27;9,84;8,08;-2,22;0,45;-0,72;-1,10;0,00
11.178;-0,54;0,58;0,27;9,84;8,08;-2,22;1,82;-0,13;0,09;0,00
11.179;-0,54;0,58;0,27;-1,20;3,92;0,32;1,82;-0,13;0,09;0,00
11.18;-1,02;0,48;0,27;-1,20;3,92;0,32;1,82;-0,13;0,09;0,00
11.18;-1,59;0,68;0,41;-1,20;3,92;0,32;1,82;-0,13;0,09;0,00
11.18;-1,99;1,05;0,72;-1,20;3,92;0,32;1,82;-0,13;0,09;0,00
11.242;-1,99;1,05;0,72;-1,20;3,92;0,32;3,00;1,75;2,33;0,00
11.244;-2,55;1,03;0,74;-1,20;3,92;0,32;3,00;1,75;2,33;0,00
11.245;-2,80;0,37;0,51;-1,20;3,92;0,32;3,00;1,75;2,33;0,00
11.245;-2,71;0,26;0,40;-1,20;3,92;0,32;3,00;1,75;2,33;0,00
11.246;-2,71;0,26;0,40;-14,79;4,55;4,91;3,00;1,75;2,33;0,00
11.293;-2,71;0,26;0,40;-14,79;4,55;4,91;2,32;0,77;1,69;0,00
11.294;-2,71;0,26;0,40;-13,66;-0,72;3,76;2,32;0,77;1,69;0,00
11.295;-2,27;0,47;0,46;-13,66;-0,72;3,76;2,32;0,77;1,69;0,00
11.295;-1,97;0,42;0,48;-13,66;-0,72;3,76;2,32;0,77;1,69;0,00
11.295;-1,68;0,25;0,46;-13,66;-0,72;3,76;2,32;0,77;1,69;0,00
11.353;-1,68;0,25;0,46;-13,66;-0,72;3,76;1,10;0,08;0,63;0,00
11.353;-1,68;0,25;0,46;-2,62;-4,00;3,33;1,10;0,08;0,63;0,00
11.355;-1,18;0,08;0,41;-2,62;-4,00;3,33;1,10;0,08;0,63;0,00
11.355;-0,68;-0,09;0,25;-2,62;-4,00;3,33;1,10;0,08;0,63;0,00
11.356;-0,21;-0,27;0,07;-2,62;-4,00;3,33;1,10;0,08;0,63;0,00
11.411;-0,21;-0,27;0,07;-2,62;-4,00;3,33;0,18;-1,58;-0,19;0,00
11.412;0,22;-0,41;-0,11;-2,62;-4,00;3,33;0,18;-1,58;-0,19;0,00
11.412;0,63;-0,52;-0,09;-2,62;-4,00;3,33;0,18;-1,58;-0,19;0,00
11.413;0,77;-0,53;-0,05;-2,62;-4,00;3,33;0,18;-1,58;-0,19;0,00
11.413;0,77;-0,53;-0,05;10,83;-8,49;-1,51;0,18;-1,58;-0,19;0,00
11.468;0,77;-0,53;-0,05;10,83;-8,49;-1,51;-0,63;0,34;-0,46;0,00
11.469;0,77;-0,53;-0,05;14,72;-10,21;-0,55;-0,63;0,34;-0,46;0,00
11.47;0,74;-0,61;0,01;14,72;-10,21;-0,55;-0,63;0,34;-0,46;0,00
11.471;0,36;-0,74;0,19;14,72;-10,21;-0,55;-0,63;0,34;-0,46;0,00
11.471;0,07;-0,84;0,31;14,72;-10,21;-0,55;-0,63;0,34;-0,46;0,00
11.528;0,07;-0,84;0,31;14,72;-10,21;-0,55;-1,67;0,28;-1,91;0,00
11.53;-0,39;-0,80;0,40;14,72;-10,21;-0,55;-1,67;0,28;-1,91;0,00
11.531;-1,11;-0,59;0,33;14,72;-10,21;-0,55;-1,67;0,28;-1,91;0,00
11.531;-1,80;-0,16;0,23;14,72;-10,21;-0,55;-1,67;0,28;-1,91;0,00
11.532;-1,80;-0,16;0,23;4,31;-10,13;2,14;-1,67;0,28;-1,91;0,00
11.587;-1,80;-0,16;0,23;4,31;-10,13;2,14;-1,91;1,01;-0,74;0,00
11.588;-1,80;-0,16;0,23;-15,28;-0,72;3,37;-1,91;1,01;-0,74;0,00
11.589;-2,58;0,30;0,42;-15,28;-0,72;3,37;-1,91;1,01;-0,74;0,00
11.59;-3,17;0,34;0,71;-15,28;-0,72;3,37;-1,91;1,01;-0,74;0,00
11.591;-2,84;0,61;0,34;-15,28;-0,72;3,37;-1,91;1,01;-0,74;0,00
11.644;-2,84;0,61;0,34;-15,28;-0,72;3,37;-2,12;-0,06;-1,33;0,00
11.645;-2,84;0,61;0,34;-13,50;5,12;1,36;-2,12;-0,06;-1,33;0,00
11.645;-2,24;0,74;0,23;-13,50;5,12;1,36;-2,12;-0,06;-1,33;0,00
11.646;-2,04;0,68;0,26;-13,50;5,12;1,36;-2,12;-0,06;-1,33;0,00
11.646;-1,80;0,79;0,26;-13,50;5,12;1,36;-2,12;-0,06;-1,33;0,00
11.703;-1,80;0,79;0,26;-13,50;5,12;1,36;-1,47;-0,66;-0,79;0,00
11.704;-1,80;0,79;0,26;-3,48;5,69;0,06;-1,47;-0,66;-0,79;0,00
11.705;-1,37;0,71;0,21;-3,48;5,69;0,06;-1,47;-0,66;-0,79;0,00
11.705;-0,89;0,55;0,12;-3,48;5,69;0,06;-1,47;-0,66;-0,79;0,00
11.706;-0,36;0,42;0,05;-3,48;5,69;0,06;-1,47;-0,66;-0,79;0,00
11.761;-0,36;0,42;0,05;-3,48;5,69;0,06;-1,10;-1,27;0,14;0,00
11.761;0,04;0,38;0,16;-3,48;5,69;0,06;-1,10;-1,27;0,14;0,00
11.762;0,18;0,42;0,16;-3,48;5,69;0,06;-1,10;-1,27;0,14;0,00
11.762;0,31;0,43;0,06;-3,48;5,69;0,06;-1,10;-1,27;0,14;0,00
11.762;0,31;0,43;0,06;9,03;3,00;-1,39;-1,10;-1,27;0,14;0,00
11.818;0,31;0,43;0,06;9,03;3,00;-1,39;-0,03;-0,49;0,77;0,00
11.819;0,31;0,43;0,06;12,13;3,00;-2,35;-0,03;-0,49;0,77;0,00
11.819;0,36;0,42;0,01;12,13;3,00;-2,35;-0,03;-0,49;0,77;0,00
11.82;0,24;0,51;0,08;12,13;3,00;-2,35;-0,03;-0,49;0,77;0,00
11.82;0,04;0,60;0,17;12,13;3,00;-2,35;-0,03;-0,49;0,77;0,00
11.878;0,04;0,60;0,17;12,13;3,00;-2,35;1,11;-0,22;0,44;0,00
11.878;0,04;0,60;0,17;6,33;2,77;0,14;1,11;-0,22;0,44;0,00
11.878;-0,26;0,45;0,37;6,33;2,77;0,14;1,11;-0,22;0,44;0,00
11.879;-0,59;0,38;0,37;6,33;2,77;0,14;1,11;-0,22;0,44;0,00
11.879;-1,02;0,72;0,22;6,33;2,77;0,14;1,11;-0,22;0,44;0,00
11.936;-1,02;0,72;0,22;6,33;2,77;0,14;2,46;-0,21;0,87;0,00
11.937;-1,02;0,72;0,22;-8,73;6,23;2,36;2,46;-0,21;0,87;0,00
11.937;-1,79;1,10;0,59;-8,73;6,23;2,36;2,46;-0,21;0,87;0,00
11.937;-2,61;0,97;0,73;-8,73;6,23;2,36;2,46;-0,21;0,87;0,00
11.937;-3,26;0,67;0,70;-8,73;6,23;2,36;2,46;-0,21;0,87;0,00
11.993;-3,26;0,67;0,70;-8,73;6,23;2,36;2,84;1,26;1,62;0,00
11.994;-3,26;0,67;0,70;-19,33;1,81;5,01;2,84;1,26;1,62;0,00
11.994;-3,09;0,55;0,72;-19,33;1,81;5,01;2,84;1,26;1,62;0,00
11.995;-2,36;0,59;0,57;-19,33;1,81;5,01;2,84;1,26;1,62;0,00
11.995;-1,80;0,48;0,42;-19,33;1,81;5,01;2,84;1,26;1,62;0,00
12.052;-1,80;0,48;0,42;-19,33;1,81;5,01;2,19;0,22;0,94;0,00
12.053;-1,80;0,48;0,42;-3,78;-1,95;2,24;2,19;0,22;0,94;0,00
12.053;-1,27;0,29;0,29;-3,78;-1,95;2,24;2,19;0,22;0,94;0,00
12.053;-0,82;0,08;0,24;-3,78;-1,95;2,24;2,19;0,22;0,94;0,00
12.054;-0,42;-0,10;0,18;-3,78;-1,95;2,24;2,19;0,22;0,94;0,00
12.111;-0,42;-0,10;0,18;-3,78;-1,95;2,24;1,31;0,05;0,27;0,00
12.112;-0,11;-0,29;0,17;-3,78;-1,95;2,24;1,31;0,05;0,27;0,00
12.112;0,11;-0,44;0,18;-3,78;-1,95;2,24;1,31;0,05;0,27;0,00
12.112;0,29;-0,59;0,10;-3,78;-1,95;2,24;1,31;0,05;0,27;0,00
12.113;0,29;-0,59;0,10;7,38;-7,47;1,28;1,31;0,05;0,27;0,00
12.169;0,29;-0,59;0,10;7,38;-7,47;1,28;0,23;0,13;-0,19;0,00
12.171;0,29;-0,59;0,10;11,60;-11,20;0,87;0,23;0,13;-0,19;0,00
12.172;0,37;-0,70;0,06;11,60;-11,20;0,87;0,23;0,13;-0,19;0,00
12.173;0,25;-0,76;0,22;11,60;-11,20;0,87;0,23;0,13;-0,19;0,00
12.173;0,09;-0,84;0,40;11,60;-11,20;0,87;0,23;0,13;-0,19;0,00
12.227;0,09;-0,84;0,40;11,60;-11,20;0,87;-1,27;0,11;-1,15;0,00
12.228;0,09;-0,84;0,40;7,04;-11,61;2,60;-1,27;0,11;-1,15;0,00
12.229;-0,15;-0,85;0,36;7,04;-11,61;2,60;-1,27;0,11;-1,15;0,00
12.229;-0,47;-0,73;0,23;7,04;-11,61;2,60;-1,27;0,11;-1,15;0,00
12.23;-0,84;-0,39;0,06;7,04;-11,61;2,60;-1,27;0,11;-1,15;0,00
12.286;-0,84;-0,39;0,06;7,04;-11,61;2,60;-2,01;0,15;-1,27;0,00
12.287;-0,84;-0,39;0,06;-5,55;-4,27;0,65;-2,01;0,15;-1,27;0,00
12.288;-1,46;-0,08;0,08;-5,55;-4,27;0,65;-2,01;0,15;-1,27;0,00
12.288;-2,19;0,05;0,35;-5,55;-4,27;0,65;-2,01;0,15;-1,27;0,00
12.289;-2,87;0,38;0,32;-5,55;-4,27;0,65;-2,01;0,15;-1,27;0,00
12.343;-2,87;0,38;0,32;-5,55;-4,27;0,65;-2,29;1,27;-1,55;0,00
12.344;-2,87;0,38;0,32;-18,26;3,73;1,58;-2,29;1,27;-1,55;0,00
12.345;-2,98;0,63;0,17;-18,26;3,73;1,58;-2,29;1,27;-1,55;0,00
12.346;-2,71;0,73;0,18;-18,26;3,73;1,58;-2,29;1,27;-1,55;0,00
12.346;-2,15;0,85;0,13;-18,26;3,73;1,58;-2,29;1,27;-1,55;0,00
12.402;-2,15;0,85;0,13;-18,26;3,73;1,58;-2,17;-1,39;-1,62;0,00
12.404;-1,60;0,87;0,09;-18,26;3,73;1,58;-2,17;-1,39;-1,62;0,00
12.405;-1,06;0,73;0,07;-18,26;3,73;1,58;-2,17;-1,39;-1,62;0,00
12.405;-0,61;0,62;0,07;-18,26;3,73;1,58;-2,17;-1,39;-1,62;0,00
12.406;-0,61;0,62;0,07;-5,87;6,94;-0,61;-2,17;-1,39;-1,62;0,00
12.46;-0,61;0,62;0,07;-5,87;6,94;-0,61;-1,47;-1,40;-0,51;0,00
12.461;-0,61;0,62;0,07;6,75;5,10;-1,51;-1,47;-1,40;-0,51;0,00
12.461;-0,27;0,61;0,09;6,75;5,10;-1,51;-1,47;-1,40;-0,51;0,00
12.462;0,00;0,55;0,11;6,75;5,10;-1,51;-1,47;-1,40;-0,51;0,00
12.462;0,15;0,46;0,04;6,75;5,10;-1,51;-1,47;-1,40;-0,51;0,00
12.518;0,15;0,46;0,04;6,75;5,10;-1,51;-0,42;-1,45;0,52;0,00
12.518;0,15;0,46;0,04;11,24;3,83;-3,22;-0,42;-1,45;0,52;0,00
12.519;0,25;0,46;-0,06;11,24;3,83;-3,22;-0,42;-1,45;0,52;0,00
12.519;0,24;0,55;0,00;11,24;3,83;-3,22;-0,42;-1,45;0,52;0,00
12.519;-0,00;0,67;0,01;11,24;3,83;-3,22;-0,42;-1,45;0,52;0,00
12.58;-0,00;0,67;0,01;11,24;3,83;-3,22;0,69;-0,47;0,99;0,00
12.582;-0,00;0,67;0,01;6,70;3,85;-1,51;0,69;-0,47;0,99;0,00
12.583;-0,20;0,57;0,20;6,70;3,85;-1,51;0,69;-0,47;0,99;0,00
12.583;-0,46;0,46;0,35;6,70;3,85;-1,51;0,69;-0,47;0,99;0,00
12.584;-0,92;0,48;0,43;6,70;3,85;-1,51;0,69;-0,47;0,99;0,00
12.636;-0,92;0,48;0,43;6,70;3,85;-1,51;2,12;-0,27;1,40;0,00
12.638;-0,92;0,48;0,43;-7,44;4,96;2,49;2,12;-0,27;1,40;0,00
12.639;-1,56;0,82;0,60;-7,44;4,96;2,49;2,12;-0,27;1,40;0,00
12.64;-2,47;1,12;0,72;-7,44;4,96;2,49;2,12;-0,27;1,40;0,00
12.64;-3,05;0,71;0,62;-7,44;4,96;2,49;2,12;-0,27;1,40;0,00
12.695;-3,05;0,71;0,62;-7,44;4,96;2,49;3,00;1,47;2,04;0,00
12.697;-3,07;0,26;0,49;-7,44;4,96;2,49;3,00;1,47;2,04;0,00
12.699;-2,47;0,50;0,48;-7,44;4,96;2,49;3,00;1,47;2,04;0,00
12.699;-2,01;0,44;0,40;-7,44;4,96;2,49;3,00;1,47;2,04;0,00
12.7;-2,01;0,44;0,40;-19,21;0,41;3,24;3,00;1,47;2,04;0,00
12.759;-2,01;0,44;0,40;-7,19;-2,12;3,21;3,00;1,47;2,04;0,00
12.76;-2,01;0,44;0,40;-7,19;-2,12;3,21;2,46;0,78;1,12;0,00
12.761;-1,66;0,34;0,41;-7,19;-2,12;3,21;2,46;0,78;1,12;0,00
12.761;-1,21;0,14;0,46;-7,19;-2,12;3,21;2,46;0,78;1,12;0,00
12.762;-0,78;-0,06;0,40;-7,19;-2,12;3,21;2,46;0,78;1,12;0,00
12.811;-0,78;-0,06;0,40;5,13;-7,78;1,69;2,46;0,78;1,12;0,00
12.812;-0,78;-0,06;0,40;5,13;-7,78;1,69;1,49;0,01;-0,23;0,00
12.812;-0,39;-0,31;0,23;5,13;-7,78;1,69;1,49;0,01;-0,23;0,00
12.813;0,07;-0,50;0,03;5,13;-7,78;1,69;1,49;0,01;-0,23;0,00
12.813;0,36;-0,49;0,03;5,13;-7,78;1,69;1,49;0,01;-0,23;0,00
12.873;0,36;-0,49;0,03;5,13;-7,78;1,69;0,36;-0,44;-0,54;0,00
12.874;0,36;-0,49;0,03;12,47;-9,18;0,42;0,36;-0,44;-0,54;0,00
12.874;0,46;-0,46;0,10;12,47;-9,18;0,42;0,36;-0,44;-0,54;0,00
12.874;0,35;-0,48;0,20;12,47;-9,18;0,42;0,36;-0,44;-0,54;0,00
12.875;0,17;-0,51;0,31;12,47;-9,18;0,42;0,36;-0,44;-0,54;0,00
12.928;0,17;-0,51;0,31;12,47;-9,18;0,42;-0,84;0,28;-1,15;0,00
12.928;0,05;-0,61;0,29;12,47;-9,18;0,42;-0,84;0,28;-1,15;0,00
12.929;-0,06;-0,69;0,34;12,47;-9,18;0,42;-0,84;0,28;-1,15;0,00
12.929;-0,33;-0,62;0,26;12,47;-9,18;0,42;-0,84;0,28;-1,15;0,00
12.929;-0,33;-0,62;0,26;9,28;-9,61;2,32;-0,84;0,28;-1,15;0,00
12.986;-0,33;-0,62;0,26;9,28;-9,61;2,32;-1,89;-0,44;-1,35;0,00
12.987;-0,72;-0,46;0,16;9,28;-9,61;2,32;-1,89;-0,44;-1,35;0,00
12.987;-1,30;-0,01;0,08;9,28;-9,61;2,32;-1,89;-0,44;-1,35;0,00
12.988;-1,94;0,32;0,29;9,28;-9,61;2,32;-1,89;-0,44;-1,35;0,00
12.989;-1,94;0,32;0,29;1,32;-6,36;0,33;-1,89;-0,44;-1,35;0,00
13.044;-1,94;0,32;0,29;-15,48;2,62;2,28;-1,89;-0,44;-1,35;0,00
13.046;-1,94;0,32;0,29;-15,48;2,62;2,28;-2,77;1,20;-0,58;0,00
13.047;-2,65;0,52;0,47;-15,48;2,62;2,28;-2,77;1,20;-0,58;0,00
13.048;-3,03;0,68;0,28;-15,48;2,62;2,28;-2,77;1,20;-0,58;0,00
13.049;-3,08;0,71;0,27;-15,48;2,62;2,28;-2,77;1,20;-0,58;0,00
13.104;-3,08;0,71;0,27;-14,68;5,42;0,36;-2,77;1,20;-0,58;0,00
13.105;-3,08;0,71;0,27;-14,68;5,42;0,36;-2,67;-0,32;-0,87;0,00
13.106;-2,53;0,71;0,22;-14,68;5,42;0,36;-2,67;-0,32;-0,87;0,00
13.107;-1,86;0,78;0,12;-14,68;5,42;0,36;-2,67;-0,32;-0,87;0,00
13.108;-1,18;0,73;0,04;-14,68;5,42;0,36;-2,67;-0,32;-0,87;0,00
13.161;-1,18;0,73;0,04;-14,68;5,42;0,36;-1,71;-1,38;-0,58;0,00
13.162;-0,63;0,57;-0,01;-14,68;5,42;0,36;-1,71;-1,38;-0,58;0,00
13.163;-0,20;0,50;0,01;-14,68;5,42;0,36;-1,71;-1,38;-0,58;0,00
13.164;0,06;0,52;0,04;-14,68;5,42;0,36;-1,71;-1,38;-0,58;0,00
13.165;0,06;0,52;0,04;3,03;4,55;-2,36;-1,71;-1,38;-0,58;0,00
13.22;0,06;0,52;0,04;3,03;4,55;-2,36;-0,69;-1,29;0,06;0,00
13.221;0,06;0,52;0,04;10,81;3,92;-3,28;-0,69;-1,29;0,06;0,00
13.223;0,19;0,56;-0,02;10,81;3,92;-3,28;-0,69;-1,29;0,06;0,00
13.223;0,25;0,52;-0,04;10,81;3,92;-3,28;-0,69;-1,29;0,06;0,00
13.224;0,15;0,59;0,02;10,81;3,92;-3,28;-0,69;-1,29;0,06;0,00
13.278;0,15;0,59;0,02;10,81;3,92;-3,28;0,53;-0,47;0,81;0,00
13.278;0,15;0,59;0,02;8,50;4,05;-2,33;0,53;-0,47;0,81;0,00
13.279;-0,05;0,65;0,12;8,50;4,05;-2,33;0,53;-0,47;0,81;0,00
13.279;-0,21;0,58;0,19;8,50;4,05;-2,33;0,53;-0,47;0,81;0,00
13.279;-0,32;0,41;0,25;8,50;4,05;-2,33;0,53;-0,47;0,81;0,00
13.336;-0,32;0,41;0,25;8,50;4,05;-2,33;1,83;-0,65;0,76;0,00
13.337;-0,32;0,41;0,25;1,66;2,96;-0,41;1,83;-0,65;0,76;0,00
13.337;-0,68;0,47;0,29;1,66;2,96;-0,41;1,83;-0,65;0,76;0,00
13.338;-1,12;0,85;0,39;1,66;2,96;-0,41;1,83;-0,65;0,76;0,00
13.338;-1,85;1,13;0,68;1,66;2,96;-0,41;1,83;-0,65;0,76;0,00
13.394;-1,85;1,13;0,68;1,66;2,96;-0,41;3,03;1,28;1,65;0,00
13.395;-1,85;1,13;0,68;-14,87;4,27;4,49;3,03;1,28;1,65;0,00
13.396;-2,60;0,89;0,74;-14,87;4,27;4,49;3,03;1,28;1,65;0,00
13.397;-2,77;0,55;0,65;-14,87;4,27;4,49;3,03;1,28;1,65;0,00
13.397;-2,48;0,68;0,55;-14,87;4,27;4,49;3,03;1,28;1,65;0,00
13.455;-2,48;0,68;0,55;-14,87;4,27;4,49;2,96;0,47;1,31;0,00
13.456;-1,91;0,61;0,53;-14,87;4,27;4,49;2,96;0,47;1,31;0,00
13.457;-1,53;0,51;0,42;-14,87;4,27;4,49;2,96;0,47;1,31;0,00
13.457;-1,11;0,26;0,40;-14,87;4,27;4,49;2,96;0,47;1,31;0,00
13.457;-1,11;0,26;0,40;-10,73;0,79;3,60;2,96;0,47;1,31;0,00
13.51;-1,11;0,26;0,40;-10,73;0,79;3,60;1,85;0,34;-0,01;0,00
13.511;-1,11;0,26;0,40;1,71;-5,00;2,40;1,85;0,34;-0,01;0,00
13.511;-0,66;-0,03;0,33;1,71;-5,00;2,40;1,85;0,34;-0,01;0,00
13.512;-0,35;-0,21;0,19;1,71;-5,00;2,40;1,85;0,34;-0,01;0,00
13.512;-0,04;-0,26;0,10;1,71;-5,00;2,40;1,85;0,34;-0,01;0,00
13.569;-0,04;-0,26;0,10;1,71;-5,00;2,40;0,74;-0,61;-0,72;0,00
13.57;-0,04;-0,26;0,10;9,70;-8,57;0,70;0,74;-0,61;-0,72;0,00
13.57;0,14;-0,40;0,13;9,70;-8,57;0,70;0,74;-0,61;-0,72;0,00
13.57;0,22;-0,56;0,20;9,70;-8,57;0,70;0,74;-0,61;-0,72;0,00
13.571;0,17;-0,61;0,16;9,70;-8,57;0,70;0,74;-0,61;-0,72;0,00
13.628;0,17;-0,61;0,16;9,70;-8,57;0,70;-0,67;-0,03;-1,03;0,00
13.629;0,17;-0,61;0,16;8,60;-10,55;1,48;-0,67;-0,03;-1,03;0,00
13.631;0,01;-0,71;0,22;8,60;-10,55;1,48;-0,67;-0,03;-1,03;0,00
13.631;-0,22;-0,73;0,36;8,60;-10,55;1,48;-0,67;-0,03;-1,03;0,00
13.632;-0,50;-0,66;0,39;8,60;-10,55;1,48;-0,67;-0,03;-1,03;0,00
13.686;-0,50;-0,66;0,39;8,60;-10,55;1,48;-1,71;-0,44;-1,08;0,00
13.687;-0,50;-0,66;0,39;1,03;-7,57;0,35;-1,71;-0,44;-1,08;0,00
13.688;-0,76;-0,51;0,24;1,03;-7,57;0,35;-1,71;-0,44;-1,08;0,00
13.688;-1,16;-0,20;-0,07;1,03;-7,57;0,35;-1,71;-0,44;-1,08;0,00
13.689;-1,67;0,12;0,00;1,03;-7,57;0,35;-1,71;-0,44;-1,08;0,00
13.744;-1,67;0,12;0,00;1,03;-7,57;0,35;-2,51;1,19;-0,19;0,00
13.745;-1,67;0,12;0,00;-13,33;1,01;1,19;-2,51;1,19;-0,19;0,00
13.745;-2,39;0,37;0,39;-13,33;1,01;1,19;-2,51;1,19;-0,19;0,00
13.746;-2,87;0,67;0,36;-13,33;1,01;1,19;-2,51;1,19;-0,19;0,00
13.746;-2,87;0,78;0,34;-13,33;1,01;1,19;-2,51;1,19;-0,19;0,00
13.803;-2,87;0,78;0,34;-13,33;1,01;1,19;-2,60;0,02;-0,80;0,00
13.804;-2,47;0,87;0,31;-13,33;1,01;1,19;-2,60;0,02;-0,80;0,00
13.804;-1,88;0,90;0,20;-13,33;1,01;1,19;-2,60;0,02;-0,80;0,00
13.805;-1,25;0,87;0,10;-13,33;1,01;1,19;-2,60;0,02;-0,80;0,00
13.805;-1,25;0,87;0,10;-13,95;6,10;1,11;-2,60;0,02;-0,80;0,00
13.862;-1,25;0,87;0,10;2,07;4,84;-1,98;-2,60;0,02;-0,80;0,00
13.863;-1,25;0,87;0,10;2,07;4,84;-1,98;-1,82;-1,17;-0,47;0,00
13.863;-0,71;0,66;0,02;2,07;4,84;-1,98;-1,82;-1,17;-0,47;0,00
13.864;-0,32;0,51;0,03;2,07;4,84;-1,98;-1,82;-1,17;-0,47;0,00
13.864;-0,01;0,45;0,06;2,07;4,84;-1,98;-1,82;-1,17;-0,47;0,00
13.919;-0,01;0,45;0,06;2,07;4,84;-1,98;-0,86;-0,51;0,34;0,00
13.919;-0,01;0,45;0,06;10,53;2,35;-2,04;-0,86;-0,51;0,34;0,00
13.92;0,15;0,45;0,10;10,53;2,35;-2,04;-0,86;-0,51;0,34;0,00
13.92;0,27;0,42;0,08;10,53;2,35;-2,04;-0,86;-0,51;0,34;0,00
13.92;0,35;0,43;0,04;10,53;2,35;-2,04;-0,86;-0,51;0,34;0,00
13.979;0,35;0,43;0,04;10,53;2,35;-2,04;0,14;-0,64;0,69;0,00
13.98;0,35;0,43;0,04;11,16;2,84;-2,41;0,14;-0,64;0,69;0,00
13.982;0,32;0,57;0,02;11,16;2,84;-2,41;0,14;-0,64;0,69;0,00
13.984;0,04;0,59;0,16;11,16;2,84;-2,41;0,14;-0,64;0,69;0,00
13.985;-0,11;0,50;0,26;11,16;2,84;-2,41;0,14;-0,64;0,69;0,00
14.036;-0,11;0,50;0,26;11,16;2,84;-2,41;1,23;-0,63;0,42;0,00
14.036;-0,11;0,50;0,26;4,65;2,15;0,17;1,23;-0,63;0,42;0,00
14.037;-0,30;0,45;0,38;4,65;2,15;0,17;1,23;-0,63;0,42;0,00
14.037;-0,79;0,58;0,41;4,65;2,15;0,17;1,23;-0,63;0,42;0,00
14.038;-1,57;0,97;0,49;4,65;2,15;0,17;1,23;-0,63;0,42;0,00
14.097;-1,57;0,97;0,49;4,65;2,15;0,17;2,80;0,17;1,32;0,00
14.1;-1,57;0,97;0,49;-14,31;6,47;3,57;2,80;0,17;1,32;0,00
14.102;-2,47;1,34;0,76;-14,31;6,47;3,57;2,80;0,17;1,32;0,00
14.102;-2,96;0,93;0,67;-14,31;6,47;3,57;2,80;0,17;1,32;0,00
14.103;-2,77;0,62;0,34;-14,31;6,47;3,57;2,80;0,17;1,32;0,00
14.153;-2,77;0,62;0,34;-14,31;6,47;3,57;2,85;1,51;1,53;0,00
14.153;-2,46;0,72;0,54;-14,31;6,47;3,57;2,85;1,51;1,53;0,00
14.154;-2,05;0,53;0,47;-14,31;6,47;3,57;2,85;1,51;1,53;0,00
14.154;-1,49;0,41;0,34;-14,31;6,47;3,57;2,85;1,51;1,53;0,00
14.155;-1,49;0,41;0,34;-15,19;0,93;3,18;2,85;1,51;1,53;0,00
14.212;-1,49;0,41;0,34;-15,19;0,93;3,18;1,74;0,18;0,25;0,00
14.213;-0,94;0,23;0,20;-15,19;0,93;3,18;1,74;0,18;0,25;0,00
14.214;-0,48;-0,01;0,08;-15,19;0,93;3,18;1,74;0,18;0,25;0,00
14.214;-0,10;-0,24;0,01;-15,19;0,93;3,18;1,74;0,18;0,25;0,00
14.215;-0,10;-0,24;0,01;-0,97;-3,30;1,40;1,74;0,18;0,25;0,00
14.268;-0,10;-0,24;0,01;-0,97;-3,30;1,40;1,04;-0,59;-0,58;0,00
14.269;-0,10;-0,24;0,01;10,43;-8,57;-0,52;1,04;-0,59;-0,58;0,00
14.269;0,26;-0,38;-0,03;10,43;-8,57;-0,52;1,04;-0,59;-0,58;0,00
14.269;0,43;-0,49;0,04;10,43;-8,57;-0,52;1,04;-0,59;-0,58;0,00
14.27;0,28;-0,51;0,19;10,43;-8,57;-0,52;1,04;-0,59;-0,58;0,00
14.328;0,28;-0,51;0,19;10,43;-8,57;-0,52;-0,08;0,07;-0,84;0,00
14.329;0,28;-0,51;0,19;10,49;-9,98;1,94;-0,08;0,07;-0,84;0,00
14.33;0,21;-0,57;0,27;10,49;-9,98;1,94;-0,08;0,07;-0,84;0,00
14.331;0,10;-0,63;0,32;10,49;-9,98;1,94;-0,08;0,07;-0,84;0,00
14.331;-0,15;-0,66;0,34;10,49;-9,98;1,94;-0,08;0,07;-0,84;0,00
14.386;-0,15;-0,66;0,34;4,04;-8,91;1,59;-0,08;0,07;-0,84;0,00
14.387;-0,15;-0,66;0,34;4,04;-8,91;1,59;-1,40;-0,23;-1,34;0,00
14.388;-0,46;-0,60;0,27;4,04;-8,91;1,59;-1,40;-0,23;-1,34;0,00
14.388;-0,84;-0,42;0,21;4,04;-8,91;1,59;-1,40;-0,23;-1,34;0,00
14.389;-1,23;-0,06;0,11;4,04;-8,91;1,59;-1,40;-0,23;-1,34;0,00
14.445;-1,23;-0,06;0,11;4,04;-8,91;1,59;-2,24;0,31;-0,45;0,00
14.446;-1,23;-0,06;0,11;-9,19;-0,86;1,38;-2,24;0,31;-0,45;0,00
14.446;-1,81;0,27;0,27;-9,19;-0,86;1,38;-2,24;0,31;-0,45;0,00
14.447;-2,54;0,45;0,46;-9,19;-0,86;1,38;-2,24;0,31;-0,45;0,00
14.447;-3,14;0,54;0,41;-9,19;-0,86;1,38;-2,24;0,31;-0,45;0,00
14.503;-3,14;0,54;0,41;-19,07;3,89;2,01;-2,24;0,31;-0,45;0,00
14.505;-3,14;0,54;0,41;-19,07;3,89;2,01;-2,59;0,80;-0,69;0,00
14.506;-3,15;0,68;0,39;-19,07;3,89;2,01;-2,59;0,80;-0,69;0,00
14.506;-2,47;0,73;0,24;-19,07;3,89;2,01;-2,59;0,80;-0,69;0,00
14.507;-1,77;0,85;0,14;-19,07;3,89;2,01;-2,59;0,80;-0,69;0,00
14.561;-1,77;0,85;0,14;-19,07;3,89;2,01;-2,14;-1,04;-0,73;0,00
14.562;-1,77;0,85;0,14;-2,21;5,73;-1,65;-2,14;-1,04;-0,73;0,00
14.562;-1,14;0,84;0,05;-2,21;5,73;-1,65;-2,14;-1,04;-0,73;0,00
14.563;-0,70;0,68;-0,02;-2,21;5,73;-1,65;-2,14;-1,04;-0,73;0,00
14.563;-0,37;0,52;0,04;-2,21;5,73;-1,65;-2,14;-1,04;-0,73;0,00
14.619;-0,37;0,52;0,04;-2,21;5,73;-1,65;-1,57;-0,13;-0,14;0,00
14.62;-0,37;0,52;0,04;7,89;3,28;-1,12;-1,57;-0,13;-0,14;0,00
14.64;-0,15;0,51;0,16;7,89;3,28;-1,12;-1,57;-0,13;-0,14;0,00
14.642;0,04;0,52;0,19;7,89;3,28;-1,12;-1,57;-0,13;-0,14;0,00
14.642;0,21;0,49;0,09;7,89;3,28;-1,12;-1,57;-0,13;-0,14;0,00
14.678;0,21;0,49;0,09;7,89;3,28;-1,12;-0,56;-1,03;0,60;0,00
14.679;0,21;0,49;0,09;12,76;3,26;-3,08;-0,56;-1,03;0,60;0,00
14.679;0,42;0,49;-0,03;12,76;3,26;-3,08;-0,56;-1,03;0,60;0,00
14.679;0,52;0,64;-0,09;12,76;3,26;-3,08;-0,56;-1,03;0,60;0,00
14.679;0,15;0,68;0,09;12,76;3,26;-3,08;-0,56;-1,03;0,60;0,00
14.737;0,15;0,68;0,09;6,90;2,78;-0,09;-0,56;-1,03;0,60;0,00
14.738;0,15;0,68;0,09;6,90;2,78;-0,09;0,59;-0,01;0,95;0,00
14.739;-0,19;0,54;0,28;6,90;2,78;-0,09;0,59;-0,01;0,95;0,00
14.74;-0,54;0,45;0,49;6,90;2,78;-0,09;0,59;-0,01;0,95;0,00
14.741;-1,12;0,58;0,51;6,90;2,78;-0,09;0,59;-0,01;0,95;0,00
14.794;-1,12;0,58;0,51;6,90;2,78;-0,09;2,19;-0,31;1,12;0,00
14.795;-1,12;0,58;0,51;-8,73;5,32;3,16;2,19;-0,31;1,12;0,00
14.795;-1,69;0,97;0,47;-8,73;5,32;3,16;2,19;-0,31;1,12;0,00
14.796;-2,51;1,21;0,81;-8,73;5,32;3,16;2,19;-0,31;1,12;0,00
14.796;-2,87;0,80;0,79;-8,73;5,32;3,16;2,19;-0,31;1,12;0,00
14.853;-2,87;0,80;0,79;-8,73;5,32;3,16;2,89;1,05;1,41;0,00
14.855;-2,54;0,66;0,55;-8,73;5,32;3,16;2,89;1,05;1,41;0,00
14.856;-2,10;0,61;0,54;-8,73;5,32;3,16;2,89;1,05;1,41;0,00
14.856;-1,69;0,49;0,40;-8,73;5,32;3,16;2,89;1,05;1,41;0,00
14.857;-1,69;0,49;0,40;-15,86;1,99;4,59;2,89;1,05;1,41;0,00
14.912;-1,69;0,49;0,40;-15,86;1,99;4,59;2,13;0,22;0,10;0,00
14.913;-1,27;0,38;0,33;-15,86;1,99;4,59;2,13;0,22;0,10;0,00
14.914;-0,85;0,18;0,30;-15,86;1,99;4,59;2,13;0,22;0,10;0,00
14.915;-0,53;-0,01;0,23;-15,86;1,99;4,59;2,13;0,22;0,10;0,00
14.915;-0,53;-0,01;0,23;-3,70;-1,52;2,49;2,13;0,22;0,10;0,00
14.969;-0,53;-0,01;0,23;-3,70;-1,52;2,49;1,19;-0,03;-0,98;0,00
14.97;-0,53;-0,01;0,23;6,37;-6,66;0,97;1,19;-0,03;-0,98;0,00
14.97;-0,23;-0,24;0,18;6,37;-6,66;0,97;1,19;-0,03;-0,98;0,00
14.971;-0,01;-0,45;0,07;6,37;-6,66;0,97;1,19;-0,03;-0,98;0,00
14.971;0,21;-0,51;0,05;6,37;-6,66;0,97;1,19;-0,03;-0,98;0,00
15.029;0,21;-0,51;0,05;6,37;-6,66;0,97;0,09;-0,70;-1,18;0,00
15.03;0,33;-0,43;0,12;6,37;-6,66;0,97;0,09;-0,70;-1,18;0,00
15.031;0,32;-0,46;0,13;6,37;-6,66;0,97;0,09;-0,70;-1,18;0,00
15.032;0,15;-0,58;0,15;6,37;-6,66;0,97;0,09;-0,70;-1,18;0,00
15.033;0,15;-0,58;0,15;11,76;-8,24;0,08;0,09;-0,70;-1,18;0,00
15.085;0,15;-0,58;0,15;11,76;-8,24;0,08;-1,16;0,54;-1,44;0,00
15.086;0,15;-0,58;0,15;7,74;-8,91;0,82;-1,16;0,54;-1,44;0,00
15.087;-0,13;-0,65;0,18;7,74;-8,91;0,82;-1,16;0,54;-1,44;0,00
15.087;-0,45;-0,68;0,19;7,74;-8,91;0,82;-1,16;0,54;-1,44;0,00
15.087;-0,67;-0,55;0,12;7,74;-8,91;0,82;-1,16;0,54;-1,44;0,00
15.143;-0,67;-0,55;0,12;7,74;-8,91;0,82;-2,01;-0,07;-1,11;0,00
15.144;-0,67;-0,55;0,12;-1,58;-4,39;-0,80;-2,01;-0,07;-1,11;0,00
15.145;-1,05;-0,35;0,00;-1,58;-4,39;-0,80;-2,01;-0,07;-1,11;0,00
15.145;-1,61;0,12;-0,02;-1,58;-4,39;-0,80;-2,01;-0,07;-1,11;0,00
15.145;-2,49;0,42;0,15;-1,58;-4,39;-0,80;-2,01;-0,07;-1,11;0,00
15.203;-2,49;0,42;0,15;-18,79;3,00;2,84;-2,01;-0,07;-1,11;0,00
15.204;-2,49;0,42;0,15;-18,79;3,00;2,84;-2,54;2,27;-0,35;0,00
15.204;-3,17;0,38;0,46;-18,79;3,00;2,84;-2,54;2,27;-0,35;0,00
15.205;-3,08;0,60;0,34;-18,79;3,00;2,84;-2,54;2,27;-0,35;0,00
15.207;-2,42;0,65;0,19;-18,79;3,00;2,84;-2,54;2,27;-0,35;0,00
15.261;-2,42;0,65;0,19;-18,79;3,00;2,84;-2,33;-0,85;-0,72;0,00
15.262;-2,42;0,65;0,19;-9,09;6,12;0,91;-2,33;-0,85;-0,72;0,00
15.262;-1,92;0,78;0,18;-9,09;6,12;0,91;-2,33;-0,85;-0,72;0,00
15.262;-1,48;0,82;0,20;-9,09;6,12;0,91;-2,33;-0,85;-0,72;0,00
15.263;-1,03;0,69;0,16;-9,09;6,12;0,91;-2,33;-0,85;-0,72;0,00
15.319;-1,03;0,69;0,16;-9,09;6,12;0,91;-1,33;-1,06;-0,31;0,00
15.32;-0,56;0,53;0,07;-9,09;6,12;0,91;-1,33;-1,06;-0,31;0,00
15.32;-0,20;0,49;0,06;-9,09;6,12;0,91;-1,33;-1,06;-0,31;0,00
15.32;0,10;0,47;0,04;-9,09;6,12;0,91;-1,33;-1,06;-0,31;0,00
15.321;0,10;0,47;0,04;3,96;4,55;-0,66;-1,33;-1,06;-0,31;0,00
15.377;0,10;0,47;0,04;3,96;4,55;-0,66;-0,49;-1,48;0,30;0,00
15.377;0,10;0,47;0,04;12,16;3,04;-2,43;-0,49;-1,48;0,30;0,00
15.378;0,31;0,42;0,01;12,16;3,04;-2,43;-0,49;-1,48;0,30;0,00
15.379;0,44;0,42;-0,05;12,16;3,04;-2,43;-0,49;-1,48;0,30;0,00
15.379;0,45;0,49;-0,02;12,16;3,04;-2,43;-0,49;-1,48;0,30;0,00
15.436;0,45;0,49;-0,02;12,16;3,04;-2,43;0,50;-0,70;0,47;0,00
15.436;0,17;0,51;0,06;12,16;3,04;-2,43;0,50;-0,70;0,47;0,00
15.437;-0,06;0,43;0,20;12,16;3,04;-2,43;0,50;-0,70;0,47;0,00
15.437;-0,33;0,37;0,40;12,16;3,04;-2,43;0,50;-0,70;0,47;0,00
15.437;-0,33;0,37;0,40;10,92;3,05;-1,97;0,50;-0,70;0,47;0,00
15.494;-0,33;0,37;0,40;10,92;3,05;-1,97;1,61;-0,66;0,19;0,00
15.494;-0,33;0,37;0,40;1,08;2,41;1,43;1,61;-0,66;0,19;0,00
15.495;-0,74;0,38;0,52;1,08;2,41;1,43;1,61;-0,66;0,19;0,00
15.495;-1,33;0,60;0,43;1,08;2,41;1,43;1,61;-0,66;0,19;0,00
15.495;-1,95;0,93;0,66;1,08;2,41;1,43;1,61;-0,66;0,19;0,00
15.553;-1,95;0,93;0,66;1,08;2,41;1,43;2,67;0,48;1,20;0,00
15.553;-1,95;0,93;0,66;-14,69;4,52;5,69;2,67;0,48;1,20;0,00
15.554;-2,63;0,90;0,98;-14,69;4,52;5,69;2,67;0,48;1,20;0,00
15.554;-2,70;0,50;0,85;-14,69;4,52;5,69;2,67;0,48;1,20;0,00
15.554;-2,32;0,54;0,62;-14,69;4,52;5,69;2,67;0,48;1,20;0,00
15.611;-2,32;0,54;0,62;-14,69;4,52;5,69;2,76;0,20;0,82;0,00
15.612;-2,32;0,54;0,62;-10,40;0,12;3,24;2,76;0,20;0,82;0,00
15.613;-2,00;0,38;0,53;-10,40;0,12;3,24;2,76;0,20;0,82;0,00
15.613;-1,66;0,30;0,41;-10,40;0,12;3,24;2,76;0,20;0,82;0,00
15.614;-1,14;0,21;0,28;-10,40;0,12;3,24;2,76;0,20;0,82;0,00
15.669;-1,14;0,21;0,28;-10,40;0,12;3,24;1,93;-0,27;0,00;0,00
15.67;-1,14;0,21;0,28;2,70;-3,04;-0,27;1,93;-0,27;0,00;0,00
15.67;-0,62;0,10;0,13;2,70;-3,04;-0,27;1,93;-0,27;0,00;0,00
15.67;-0,18;-0,01;-0,04;2,70;-3,04;-0,27;1,93;-0,27;0,00;0,00
15.67;0,16;-0,17;0,01;2,70;-3,04;-0,27;1,93;-0,27;0,00;0,00
15.728;0,16;-0,17;0,01;2,70;-3,04;-0,27;1,10;0,56;-0,52;0,00
15.728;0,19;-0,37;0,11;2,70;-3,04;-0,27;1,10;0,56;-0,52;0,00
15.729;0,12;-0,54;0,13;2,70;-3,04;-0,27;1,10;0,56;-0,52;0,00
15.729;0,17;-0,54;0,08;2,70;-3,04;-0,27;1,10;0,56;-0,52;0,00
15.729;0,17;-0,54;0,08;10,54;-7,24;-0,13;1,10;0,56;-0,52;0,00
15.787;0,17;-0,54;0,08;10,25;-8,17;0,30;1,10;0,56;-0,52;0,00
15.789;0,17;-0,54;0,08;10,25;-8,17;0,30;0,21;0,20;-0,71;0,00
15.79;0,18;-0,45;0,07;10,25;-8,17;0,30;0,21;0,20;-0,71;0,00
15.79;0,04;-0,54;0,19;10,25;-8,17;0,30;0,21;0,20;-0,71;0,00
15.791;-0,21;-0,71;0,25;10,25;-8,17;0,30;0,21;0,20;-0,71;0,00
15.845;-0,21;-0,71;0,25;10,25;-8,17;0,30;-1,24;0,08;-1,24;0,00
15.847;-0,21;-0,71;0,25;3,59;-7,68;0,10;-1,24;0,08;-1,24;0,00
15.848;-0,55;-0,68;0,11;3,59;-7,68;0,10;-1,24;0,08;-1,24;0,00
15.849;-0,94;-0,25;-0,03;3,59;-7,68;0,10;-1,24;0,08;-1,24;0,00
15.849;-1,76;0,26;0,19;3,59;-7,68;0,10;-1,24;0,08;-1,24;0,00
15.903;-1,76;0,26;0,19;3,59;-7,68;0,10;-2,43;1,30;-0,05;0,00
15.904;-2,63;0,48;0,41;3,59;-7,68;0,10;-2,43;1,30;-0,05;0,00
15.904;-3,20;0,54;0,30;3,59;-7,68;0,10;-2,43;1,30;-0,05;0,00
15.904;-3,50;0,64;0,36;3,59;-7,68;0,10;-2,43;1,30;-0,05;0,00
15.905;-3,50;0,64;0,36;-15,33;1,95;2,29;-2,43;1,30;-0,05;0,00
15.961;-3,50;0,64;0,36;-15,33;1,95;2,29;-2,39;-0,10;-0,29;0,00
15.963;-2,83;0,64;0,13;-15,33;1,95;2,29;-2,39;-0,10;-0,29;0,00
15.963;-1,95;0,74;-0,05;-15,33;1,95;2,29;-2,39;-0,10;-0,29;0,00
15.964;-1,13;0,75;-0,08;-15,33;1,95;2,29;-2,39;-0,10;-0,29;0,00
15.965;-1,13;0,75;-0,08;-17,26;4,55;0,45;-2,39;-0,10;-0,29;0,00
16.019;-1,13;0,75;-0,08;-17,26;4,55;0,45;-1,26;-1,58;-0,62;0,00
16.021;-1,13;0,75;-0,08;3,65;4,98;-2,51;-1,26;-1,58;-0,62;0,00
16.023;-0,54;0,67;-0,07;3,65;4,98;-2,51;-1,26;-1,58;-0,62;0,00
16.024;-0,17;0,60;0,00;3,65;4,98;-2,51;-1,26;-1,58;-0,62;0,00
16.028;0,05;0,55;-0,00;3,65;4,98;-2,51;-1,26;-1,58;-0,62;0,00
16.078;0,05;0,55;-0,00;3,65;4,98;-2,51;-0,45;-1,05;-0,01;0,00
16.078;0,05;0,55;-0,00;10,59;3,23;-2,82;-0,45;-1,05;-0,01;0,00
16.079;0,15;0,49;-0,02;10,59;3,23;-2,82;-0,45;-1,05;-0,01;0,00
16.079;0,19;0,45;-0,05;10,59;3,23;-2,82;-0,45;-1,05;-0,01;0,00
16.079;0,22;0,44;-0,07;10,59;3,23;-2,82;-0,45;-1,05;-0,01;0,00
16.137;0,22;0,44;-0,07;10,59;3,23;-2,82;0,23;-0,72;0,23;0,00
16.138;0,11;0,55;-0,04;10,59;3,23;-2,82;0,23;-0,72;0,23;0,00
16.139;-0,11;0,49;0,09;10,59;3,23;-2,82;0,23;-0,72;0,23;0,00
16.139;-0,42;0,38;0,19;10,59;3,23;-2,82;0,23;-0,72;0,23;0,00
16.14;-0,42;0,38;0,19;9,74;2,98;-2,99;0,23;-0,72;0,23;0,00
16.194;-0,42;0,38;0,19;9,74;2,98;-2,99;1,55;-0,30;0,39;0,00
16.195;-0,42;0,38;0,19;1,16;2,35;-0,50;1,55;-0,30;0,39;0,00
16.195;-0,71;0,36;0,18;1,16;2,35;-0,50;1,55;-0,30;0,39;0,00
16.196;-1,24;0,71;0,35;1,16;2,35;-0,50;1,55;-0,30;0,39;0,00
16.196;-1,98;1,09;0,75;1,16;2,35;-0,50;1,55;-0,30;0,39;0,00
16.254;-1,98;1,09;0,75;1,16;2,35;-0,50;2,59;0,73;1,52;0,00
16.255;-1,98;1,09;0,75;-16,11;5,44;5,52;2,59;0,73;1,52;0,00
16.256;-2,74;1,02;0,88;-16,11;5,44;5,52;2,59;0,73;1,52;0,00
16.257;-2,98;0,65;0,72;-16,11;5,44;5,52;2,59;0,73;1,52;0,00
16.258;-2,70;0,63;0,66;-16,11;5,44;5,52;2,59;0,73;1,52;0,00
16.311;-2,70;0,63;0,66;-16,11;5,44;5,52;2,11;0,41;1,71;0,00
16.312;-2,14;0,57;0,53;-16,11;5,44;5,52;2,11;0,41;1,71;0,00
16.312;-1,71;0,44;0,43;-16,11;5,44;5,52;2,11;0,41;1,71;0,00
16.313;-1,31;0,29;0,45;-16,11;5,44;5,52;2,11;0,41;1,71;0,00
16.313;-1,31;0,29;0,45;-12,55;0,66;3,78;2,11;0,41;1,71;0,00
16.369;-1,31;0,29;0,45;-12,55;0,66;3,78;1,09;0,34;0,71;0,00
16.37;-1,31;0,29;0,45;-0,43;-3,87;2,29;1,09;0,34;0,71;0,00
16.371;-0,94;0,12;0,36;-0,43;-3,87;2,29;1,09;0,34;0,71;0,00
16.371;-0,55;-0,04;0,21;-0,43;-3,87;2,29;1,09;0,34;0,71;0,00
16.373;-0,19;-0,17;0,17;-0,43;-3,87;2,29;1,09;0,34;0,71;0,00
16.428;-0,19;-0,17;0,17;-0,43;-3,87;2,29;0,44;-0,26;-0,39;0,00
16.429;-0,19;-0,17;0,17;8,96;-7,97;-0,03;0,44;-0,26;-0,39;0,00
16.43;0,08;-0,35;0,09;8,96;-7,97;-0,03;0,44;-0,26;-0,39;0,00
16.43;0,21;-0,46;0,04;8,96;-7,97;-0,03;0,44;-0,26;-0,39;0,00
16.431;0,21;-0,53;0,02;8,96;-7,97;-0,03;0,44;-0,26;-0,39;0,00
16.486;0,21;-0,53;0,02;8,96;-7,97;-0,03;-0,17;-0,17;-0,68;0,00
16.487;0,21;-0,53;0,02;10,26;-9,47;-0,45;-0,17;-0,17;-0,68;0,00
16.488;0,16;-0,56;0,06;10,26;-9,47;-0,45;-0,17;-0,17;-0,68;0,00
16.488;0,13;-0,51;0,14;10,26;-9,47;-0,45;-0,17;-0,17;-0,68;0,00
16.488;0,02;-0,50;0,18;10,26;-9,47;-0,45;-0,17;-0,17;-0,68;0,00
16.545;0,02;-0,50;0,18;6,64;-8,50;0,28;-0,17;-0,17;-0,68;0,00
16.546;0,02;-0,50;0,18;6,64;-8,50;0,28;-1,12;-0,20;-1,15;0,00
16.547;-0,20;-0,54;0,24;6,64;-8,50;0,28;-1,12;-0,20;-1,15;0,00
16.548;-0,47;-0,51;0,14;6,64;-8,50;0,28;-1,12;-0,20;-1,15;0,00
16.549;-0,78;-0,29;0,07;6,64;-8,50;0,28;-1,12;-0,20;-1,15;0,00
16.605;-0,78;-0,29;0,07;6,64;-8,50;0,28;-1,82;-0,04;-0,53;0,00
16.607;-1,28;0,19;0,22;6,64;-8,50;0,28;-1,82;-0,04;-0,53;0,00
16.607;-2,01;0,51;0,52;6,64;-8,50;0,28;-1,82;-0,04;-0,53;0,00
16.608;-2,80;0,60;0,67;6,64;-8,50;0,28;-1,82;-0,04;-0,53;0,00
16.609;-2,80;0,60;0,67;-4,34;-1,63;0,77;-1,82;-0,04;-0,53;0,00
16.662;-2,80;0,60;0,67;-18,89;4,52;3,86;-1,82;-0,04;-0,53;0,00
16.663;-2,80;0,60;0,67;-18,89;4,52;3,86;-2,36;1,19;-0,59;0,00
16.663;-3,12;0,77;0,58;-18,89;4,52;3,86;-2,36;1,19;-0,59;0,00
16.664;-2,77;0,77;0,45;-18,89;4,52;3,86;-2,36;1,19;-0,59;0,00
16.664;-2,15;0,82;0,33;-18,89;4,52;3,86;-2,36;1,19;-0,59;0,00
16.719;-2,15;0,82;0,33;-18,89;4,52;3,86;-2,22;-0,96;-0,93;0,00
16.72;-2,15;0,82;0,33;-6,18;6,24;-0,29;-2,22;-0,96;-0,93;0,00
16.721;-1,58;0,86;0,22;-6,18;6,24;-0,29;-2,22;-0,96;-0,93;0,00
16.721;-1,09;0,77;0,13;-6,18;6,24;-0,29;-2,22;-0,96;-0,93;0,00
16.722;-0,63;0,61;0,07;-6,18;6,24;-0,29;-2,22;-0,96;-0,93;0,00
16.778;-0,63;0,61;0,07;-6,18;6,24;-0,29;-1,21;-0,15;-0,45;0,00
16.779;-0,29;0,49;0,07;-6,18;6,24;-0,29;-1,21;-0,15;-0,45;0,00
16.779;-0,06;0,44;0,15;-6,18;6,24;-0,29;-1,21;-0,15;-0,45;0,00
16.78;0,12;0,48;0,12;-6,18;6,24;-0,29;-1,21;-0,15;-0,45;0,00
16.78;0,12;0,48;0,12;6,28;3,60;-1,75;-1,21;-0,15;-0,45;0,00
16.836;0,12;0,48;0,12;11,64;3,29;-3,13;-1,21;-0,15;-0,45;0,00
16.837;0,12;0,48;0,12;11,64;3,29;-3,13;-0,09;-0,89;0,12;0,00
16.837;0,26;0,48;-0,00;11,64;3,29;-3,13;-0,09;-0,89;0,12;0,00
16.838;0,38;0,51;-0,12;11,64;3,29;-3,13;-0,09;-0,89;0,12;0,00
16.838;0,28;0,63;-0,11;11,64;3,29;-3,13;-0,09;-0,89;0,12;0,00
16.894;0,28;0,63;-0,11;11,64;3,29;-3,13;1,00;-0,33;0,39;0,00
16.895;0,28;0,63;-0,11;9,85;3,60;-2,51;1,00;-0,33;0,39;0,00
16.895;0,08;0,61;0,03;9,85;3,60;-2,51;1,00;-0,33;0,39;0,00
16.895;-0,06;0,46;0,28;9,85;3,60;-2,51;1,00;-0,33;0,39;0,00
16.895;-0,41;0,46;0,35;9,85;3,60;-2,51;1,00;-0,33;0,39;0,00
16.953;-0,41;0,46;0,35;9,85;3,60;-2,51;2,17;-0,24;0,57;0,00
16.954;-0,41;0,46;0,35;-1,00;4,28;1,75;2,17;-0,24;0,57;0,00
16.954;-0,92;0,59;0,41;-1,00;4,28;1,75;2,17;-0,24;0,57;0,00
16.955;-1,66;1,10;0,70;-1,00;4,28;1,75;2,17;-0,24;0,57;0,00
16.955;-2,55;1,23;0,90;-1,00;4,28;1,75;2,17;-0,24;0,57;0,00
17.012;-2,55;1,23;0,90;-1,00;4,28;1,75;3,12;1,00;1,54;0,00
17.013;-2,99;0,77;0,74;-1,00;4,28;1,75;3,12;1,00;1,54;0,00
17.014;-2,80;0,62;0,40;-1,00;4,28;1,75;3,12;1,00;1,54;0,00
17.016;-2,39;0,53;0,55;-1,00;4,28;1,75;3,12;1,00;1,54;0,00
17.016;-2,39;0,53;0,55;-18,34;4,53;4,66;3,12;1,00;1,54;0,00
17.069;-2,39;0,53;0,55;-18,34;4,53;4,66;2,24;0,61;1,16;0,00
17.07;-2,39;0,53;0,55;-9,63;-0,37;3,26;2,24;0,61;1,16;0,00
17.07;-1,91;0,47;0,48;-9,63;-0,37;3,26;2,24;0,61;1,16;0,00
17.071;-1,35;0,37;0,32;-9,63;-0,37;3,26;2,24;0,61;1,16;0,00
17.071;-0,85;0,26;0,19;-9,63;-0,37;3,26;2,24;0,61;1,16;0,00
17.129;-0,85;0,26;0,19;-9,63;-0,37;3,26;1,26;-0,22;-0,02;0,00
17.13;-0,85;0,26;0,19;3,88;-4,27;0,27;1,26;-0,22;-0,02;0,00
17.131;-0,47;0,06;0,09;3,88;-4,27;0,27;1,26;-0,22;-0,02;0,00
17.131;-0,17;-0,15;0,07;3,88;-4,27;0,27;1,26;-0,22;-0,02;0,00
17.132;0,11;-0,35;0,11;3,88;-4,27;0,27;1,26;-0,22;-0,02;0,00
17.186;0,11;-0,35;0,11;3,88;-4,27;0,27;0,57;-0,28;-0,54;0,00
17.186;0,11;-0,35;0,11;10,96;-9,19;0,45;0,57;-0,28;-0,54;0,00
17.187;0,29;-0,52;0,12;10,96;-9,19;0,45;0,57;-0,28;-0,54;0,00
17.187;0,30;-0,59;0,18;10,96;-9,19;0,45;0,57;-0,28;-0,54;0,00
17.188;0,27;-0,58;0,20;10,96;-9,19;0,45;0,57;-0,28;-0,54;0,00
17.251;0,27;-0,58;0,20;10,96;-9,19;0,45;-0,58;-0,27;-1,05;0,00
17.252;0,27;-0,58;0,20;9,73;-9,96;0,95;-0,58;-0,27;-1,05;0,00
17.254;0,13;-0,63;0,19;9,73;-9,96;0,95;-0,58;-0,27;-1,05;0,00
17.255;-0,10;-0,72;0,26;9,73;-9,96;0,95;-0,58;-0,27;-1,05;0,00
17.255;-0,47;-0,71;0,30;9,73;-9,96;0,95;-0,58;-0,27;-1,05;0,00
17.303;-0,47;-0,71;0,30;9,73;-9,96;0,95;-1,60;0,15;-1,33;0,00
17.304;-0,47;-0,71;0,30;0,17;-7,17;0,06;-1,60;0,15;-1,33;0,00
17.305;-0,95;-0,50;0,18;0,17;-7,17;0,06;-1,60;0,15;-1,33;0,00
17.305;-1,29;-0,14;-0,02;0,17;-7,17;0,06;-1,60;0,15;-1,33;0,00
17.306;-1,92;0,16;0,11;0,17;-7,17;0,06;-1,60;0,15;-1,33;0,00
17.373;-1,92;0,16;0,11;0,17;-7,17;0,06;-2,32;1,01;-0,83;0,00
17.374;-1,92;0,16;0,11;-14,84;1,56;1,62;-2,32;1,01;-0,83;0,00
17.375;-2,67;0,39;0,44;-14,84;1,56;1,62;-2,32;1,01;-0,83;0,00
17.376;-2,86;0,59;0,32;-14,84;1,56;1,62;-2,32;1,01;-0,83;0,00
17.377;-2,52;0,68;0,23;-14,84;1,56;1,62;-2,32;1,01;-0,83;0,00
17.419;-2,52;0,68;0,23;-14,84;1,56;1,62;-2,21;-0,15;-1,19;0,00
17.42;-2,52;0,68;0,23;-11,29;5,90;0,59;-2,21;-0,15;-1,19;0,00
17.421;-2,17;0,73;0,16;-11,29;5,90;0,59;-2,21;-0,15;-1,19;0,00
17.422;-1,76;0,83;0,26;-11,29;5,90;0,59;-2,21;-0,15;-1,19;0,00
17.422;-1,29;0,81;0,20;-11,29;5,90;0,59;-2,21;-0,15;-1,19;0,00
17.478;-1,29;0,81;0,20;-11,29;5,90;0,59;-1,63;-0,10;-0,88;0,00
17.479;-0,83;0,73;0,17;-11,29;5,90;0,59;-1,63;-0,10;-0,88;0,00
17.479;-0,47;0,57;0,19;-11,29;5,90;0,59;-1,63;-0,10;-0,88;0,00
17.479;-0,15;0,50;0,23;-11,29;5,90;0,59;-1,63;-0,10;-0,88;0,00
17.479;-0,15;0,50;0,23;1,35;6,03;0,12;-1,63;-0,10;-0,88;0,00
17.536;-0,15;0,50;0,23;1,35;6,03;0,12;-0,94;-0,92;-0,21;0,00
17.537;0,02;0,60;0,23;1,35;6,03;0,12;-0,94;-0,92;-0,21;0,00
17.537;0,20;0,63;0,11;1,35;6,03;0,12;-0,94;-0,92;-0,21;0,00
17.537;0,37;0,60;0,01;1,35;6,03;0,12;-0,94;-0,92;-0,21;0,00
17.538;0,37;0,60;0,01;9,77;4,93;-0,43;-0,94;-0,92;-0,21;0,00
17.595;0,37;0,60;0,01;9,77;4,93;-0,43;0,23;-1,32;0,66;0,00
17.597;0,37;0,60;0,01;11,06;4,68;-2,14;0,23;-1,32;0,66;0,00
17.598;0,31;0,64;0,03;11,06;4,68;-2,14;0,23;-1,32;0,66;0,00
17.599;-0,08;0,57;0,20;11,06;4,68;-2,14;0,23;-1,32;0,66;0,00
17.6;-0,30;0,45;0,32;11,06;4,68;-2,14;0,23;-1,32;0,66;0,00
17.652;-0,30;0,45;0,32;11,06;4,68;-2,14;1,59;-0,78;0,85;0,00
17.653;-0,66;0,51;0,38;11,06;4,68;-2,14;1,59;-0,78;0,85;0,00
17.654;-1,41;0,77;0,57;11,06;4,68;-2,14;1,59;-0,78;0,85;0,00
17.654;-2,37;1,01;0,85;11,06;4,68;-2,14;1,59;-0,78;0,85;0,00
17.654;-2,37;1,01;0,85;1,14;3,65;0,93;1,59;-0,78;0,85;0,00
17.712;-2,37;1,01;0,85;-17,78;3,33;4,61;1,59;-0,78;0,85;0,00
17.713;-2,37;1,01;0,85;-17,78;3,33;4,61;2,84;0,89;1,92;0,00
17.713;-2,95;0,76;0,75;-17,78;3,33;4,61;2,84;0,89;1,92;0,00
17.714;-2,88;0,32;0,55;-17,78;3,33;4,61;2,84;0,89;1,92;0,00
17.714;-2,37;0,42;0,58;-17,78;3,33;4,61;2,84;0,89;1,92;0,00
17.769;-2,37;0,42;0,58;-17,78;3,33;4,61;2,28;0,46;1,11;0,00
17.77;-2,37;0,42;0,58;-9,35;-0,79;2,69;2,28;0,46;1,11;0,00
17.771;-1,88;0,34;0,46;-9,35;-0,79;2,69;2,28;0,46;1,11;0,00
17.772;-1,35;0,33;0,30;-9,35;-0,79;2,69;2,28;0,46;1,11;0,00
17.772;-0,91;0,32;0,22;-9,35;-0,79;2,69;2,28;0,46;1,11;0,00
17.828;-0,91;0,32;0,22;-9,35;-0,79;2,69;1,66;0,14;-0,09;0,00
17.829;-0,59;0,17;0,11;-9,35;-0,79;2,69;1,66;0,14;-0,09;0,00
17.829;-0,37;-0,03;0,08;-9,35;-0,79;2,69;1,66;0,14;-0,09;0,00
17.83;-0,18;-0,28;0,09;-9,35;-0,79;2,69;1,66;0,14;-0,09;0,00
17.83;-0,18;-0,28;0,09;2,87;-2,91;0,17;1,66;0,14;-0,09;0,00
17.886;-0,18;-0,28;0,09;2,87;-2,91;0,17;0,72;0,06;-0,73;0,00
17.886;-0,01;-0,48;0,05;2,87;-2,91;0,17;0,72;0,06;-0,73;0,00
17.887;0,15;-0,53;-0,02;2,87;-2,91;0,17;0,72;0,06;-0,73;0,00
17.887;0,24;-0,55;0,03;2,87;-2,91;0,17;0,72;0,06;-0,73;0,00
17.887;0,24;-0,55;0,03;8,87;-8,14;-0,55;0,72;0,06;-0,73;0,00
17.945;0,24;-0,55;0,03;8,87;-8,14;-0,55;-0,55;0,10;-0,91;0,00
17.946;0,24;-0,55;0,03;10,39;-9,33;-0,09;-0,55;0,10;-0,91;0,00
17.947;0,17;-0,65;0,11;10,39;-9,33;-0,09;-0,55;0,10;-0,91;0,00
17.948;0,01;-0,67;0,14;10,39;-9,33;-0,09;-0,55;0,10;-0,91;0,00
17.949;-0,23;-0,66;0,10;10,39;-9,33;-0,09;-0,55;0,10;-0,91;0,00
18.004;-0,23;-0,66;0,10;10,39;-9,33;-0,09;-1,89;0,11;-1,34;0,00
18.005;-0,54;-0,58;0,05;10,39;-9,33;-0,09;-1,89;0,11;-1,34;0,00
18.006;-0,94;-0,25;-0,02;10,39;-9,33;-0,09;-1,89;0,11;-1,34;0,00
18.007;-1,69;0,07;0,12;10,39;-9,33;-0,09;-1,89;0,11;-1,34;0,00
18.007;-1,69;0,07;0,12;3,59;-7,14;-0,83;-1,89;0,11;-1,34;0,00
18.062;-1,69;0,07;0,12;-15,12;0,22;2,56;-1,89;0,11;-1,34;0,00
18.063;-1,69;0,07;0,12;-15,12;0,22;2,56;-2,71;1,85;-0,58;0,00
18.063;-2,61;0,26;0,38;-15,12;0,22;2,56;-2,71;1,85;-0,58;0,00
18.063;-3,27;0,30;0,46;-15,12;0,22;2,56;-2,71;1,85;-0,58;0,00
18.064;-3,05;0,56;0,36;-15,12;0,22;2,56;-2,71;1,85;-0,58;0,00
18.124;-3,05;0,56;0,36;-15,12;0,22;2,56;-2,55;-0,16;-0,95;0,00
18.125;-3,05;0,56;0,36;-14,36;5,26;1,64;-2,55;-0,16;-0,95;0,00
18.126;-2,49;0,64;0,23;-14,36;5,26;1,64;-2,55;-0,16;-0,95;0,00
18.127;-1,90;0,80;0,20;-14,36;5,26;1,64;-2,55;-0,16;-0,95;0,00
18.128;-1,33;0,79;0,22;-14,36;5,26;1,64;-2,55;-0,16;-0,95;0,00
18.179;-1,33;0,79;0,22;0,83;5,53;0,15;-2,55;-0,16;-0,95;0,00
18.181;-1,33;0,79;0,22;0,83;5,53;0,15;-1,50;-0,89;-0,50;0,00
18.182;-0,91;0,68;0,17;0,83;5,53;0,15;-1,50;-0,89;-0,50;0,00
18.182;-0,53;0,52;0,13;0,83;5,53;0,15;-1,50;-0,89;-0,50;0,00
18.182;-0,25;0,47;0,17;0,83;5,53;0,15;-1,50;-0,89;-0,50;0,00
18.243;-0,25;0,47;0,17;0,83;5,53;0,15;-0,62;-1,02;0,17;0,00
18.244;-0,01;0,47;0,20;0,83;5,53;0,15;-0,62;-1,02;0,17;0,00
18.245;0,19;0,43;0,11;0,83;5,53;0,15;-0,62;-1,02;0,17;0,00
18.246;0,37;0,40;-0,03;0,83;5,53;0,15;-0,62;-1,02;0,17;0,00
18.247;0,37;0,40;-0,03;9,37;3,38;-0,59;-0,62;-1,02;0,17;0,00
18.294;0,37;0,40;-0,03;9,37;3,38;-0,59;0,49;-1,62;0,68;0,00
18.295;0,37;0,40;-0,03;12,60;3,03;-3,07;0,49;-1,62;0,68;0,00
18.295;0,46;0,48;-0,05;12,60;3,03;-3,07;0,49;-1,62;0,68;0,00
18.296;0,25;0,53;0,05;12,60;3,03;-3,07;0,49;-1,62;0,68;0,00
18.296;-0,01;0,50;0,08;12,60;3,03;-3,07;0,49;-1,62;0,68;0,00
18.353;-0,01;0,50;0,08;12,60;3,03;-3,07;1,57;-0,82;0,65;0,00
18.354;-0,30;0,49;0,20;12,60;3,03;-3,07;1,57;-0,82;0,65;0,00
18.354;-0,83;0,52;0,44;12,60;3,03;-3,07;1,57;-0,82;0,65;0,00
18.355;-1,52;0,76;0,64;12,60;3,03;-3,07;1,57;-0,82;0,65;0,00
18.355;-1,52;0,76;0,64;5,06;2,68;-0,84;1,57;-0,82;0,65;0,00
18.412;-1,52;0,76;0,64;5,06;2,68;-0,84;2,79;-0,14;1,20;0,00
18.413;-1,52;0,76;0,64;-13,71;4,49;3,70;2,79;-0,14;1,20;0,00
18.414;-2,45;0,98;0,69;-13,71;4,49;3,70;2,79;-0,14;1,20;0,00
18.415;-2,91;0,68;0,68;-13,71;4,49;3,70;2,79;-0,14;1,20;0,00
18.416;-2,61;0,51;0,55;-13,71;4,49;3,70;2,79;-0,14;1,20;0,00
18.469;-2,61;0,51;0,55;-13,71;4,49;3,70;2,41;0,68;0,99;0,00
18.47;-2,61;0,51;0,55;-13,17;0,41;3,54;2,41;0,68;0,99;0,00
18.47;-2,24;0,54;0,63;-13,17;0,41;3,54;2,41;0,68;0,99;0,00
18.471;-1,91;0,40;0,53;-13,17;0,41;3,54;2,41;0,68;0,99;0,00
18.471;-1,47;0,33;0,45;-13,17;0,41;3,54;2,41;0,68;0,99;0,00
18.529;-1,47;0,33;0,45;-13,17;0,41;3,54;1,41;0,03;0,06;0,00
18.531;-0,99;0,23;0,32;-13,17;0,41;3,54;1,41;0,03;0,06;0,00
18.532;-0,61;0,13;0,17;-13,17;0,41;3,54;1,41;0,03;0,06;0,00
18.533;-0,30;-0,09;0,05;-13,17;0,41;3,54;1,41;0,03;0,06;0,00
18.533;-0,30;-0,09;0,05;-1,14;-2,21;1,39;1,41;0,03;0,06;0,00
18.586;-0,30;-0,09;0,05;8,51;-7,18;-1,44;1,41;0,03;0,06;0,00
18.587;-0,30;-0,09;0,05;8,51;-7,18;-1,44;0,73;-0,35;-0,74;0,00
18.588;-0,03;-0,33;0,02;8,51;-7,18;-1,44;0,73;-0,35;-0,74;0,00
18.588;0,21;-0,54;-0,00;8,51;-7,18;-1,44;0,73;-0,35;-0,74;0,00
18.589;0,34;-0,57;-0,06;8,51;-7,18;-1,44;0,73;-0,35;-0,74;0,00
18.644;0,34;-0,57;-0,06;8,51;-7,18;-1,44;-0,10;-0,07;-0,88;0,00
18.644;0,34;-0,57;-0,06;11,51;-8,22;-1,41;-0,10;-0,07;-0,88;0,00
18.646;0,33;-0,46;0,01;11,51;-8,22;-1,41;-0,10;-0,07;-0,88;0,00
18.646;0,12;-0,45;0,14;11,51;-8,22;-1,41;-0,10;-0,07;-0,88;0,00
18.646;-0,08;-0,61;0,27;11,51;-8,22;-1,41;-0,10;-0,07;-0,88;0,00
18.703;-0,08;-0,61;0,27;11,51;-8,22;-1,41;-1,29;0,70;-1,28;0,00
18.704;-0,47;-0,76;0,25;11,51;-8,22;-1,41;-1,29;0,70;-1,28;0,00
18.705;-0,89;-0,51;0,17;11,51;-8,22;-1,41;-1,29;0,70;-1,28;0,00
18.705;-1,49;-0,14;0,34;11,51;-8,22;-1,41;-1,29;0,70;-1,28;0,00
18.706;-1,49;-0,14;0,34;4,38;-8,61;0,69;-1,29;0,70;-1,28;0,00
18.762;-1,49;-0,14;0,34;4,38;-8,61;0,69;-2,45;0,72;-0,65;0,00
18.763;-2,16;0,08;0,50;4,38;-8,61;0,69;-2,45;0,72;-0,65;0,00
18.764;-2,76;0,21;0,40;4,38;-8,61;0,69;-2,45;0,72;-0,65;0,00
18.765;-2,89;0,40;0,19;4,38;-8,61;0,69;-2,45;0,72;-0,65;0,00
18.766;-2,89;0,40;0,19;-11,50;-1,42;2,52;-2,45;0,72;-0,65;0,00
18.819;-2,89;0,40;0,19;-15,64;3,95;0,61;-2,45;0,72;-0,65;0,00
18.821;-2,89;0,40;0,19;-15,64;3,95;0,61;-2,64;0,72;-0,95;0,00
18.822;-2,72;0,52;0,23;-15,64;3,95;0,61;-2,64;0,72;-0,95;0,00
18.822;-2,20;0,66;0,18;-15,64;3,95;0,61;-2,64;0,72;-0,95;0,00
18.823;-1,64;0,83;0,16;-15,64;3,95;0,61;-2,64;0,72;-0,95;0,00
18.883;-1,64;0,83;0,16;-15,64;3,95;0,61;-1,79;-0,96;-1,05;0,00
18.884;-1,64;0,83;0,16;-1,81;6,89;-0,46;-1,79;-0,96;-1,05;0,00
18.885;-1,14;0,77;0,16;-1,81;6,89;-0,46;-1,79;-0,96;-1,05;0,00
18.886;-0,79;0,67;0,14;-1,81;6,89;-0,46;-1,79;-0,96;-1,05;0,00
18.887;-0,42;0,56;0,09;-1,81;6,89;-0,46;-1,79;-0,96;-1,05;0,00
18.938;-0,42;0,56;0,09;7,69;4,75;-1,50;-1,79;-0,96;-1,05;0,00
18.94;-0,42;0,56;0,09;7,69;4,75;-1,50;-0,66;-0,77;-0,36;0,00
18.94;-0,17;0,50;0,09;7,69;4,75;-1,50;-0,66;-0,77;-0,36;0,00
18.941;0,01;0,49;0,10;7,69;4,75;-1,50;-0,66;-0,77;-0,36;0,00
18.942;0,15;0,43;0,08;7,69;4,75;-1,50;-0,66;-0,77;-0,36;0,00
18.995;0,15;0,43;0,08;7,69;4,75;-1,50;0,33;-0,91;0,72;0,00
18.996;0,15;0,43;0,08;10,94;3,77;-2,20;0,33;-0,91;0,72;0,00
18.997;0,21;0,45;0,02;10,94;3,77;-2,20;0,33;-0,91;0,72;0,00
18.998;0,15;0,54;0,10;10,94;3,77;-2,20;0,33;-0,91;0,72;0,00
18.999;-0,00;0,53;0,20;10,94;3,77;-2,20;0,33;-0,91;0,72;0,00
19.053;-0,00;0,53;0,20;6,43;3,52;-0,26;0,33;-0,91;0,72;0,00
19.054;-0,00;0,53;0,20;6,43;3,52;-0,26;1,13;-0,74;0,89;0,00
19.054;-0,24;0,51;0,30;6,43;3,52;-0,26;1,13;-0,74;0,89;0,00
19.054;-0,54;0,52;0,39;6,43;3,52;-0,26;1,13;-0,74;0,89;0,00
19.055;-1,02;0,68;0,44;6,43;3,52;-0,26;1,13;-0,74;0,89;0,00
19.112;-1,02;0,68;0,44;6,43;3,52;-0,26;2,28;-0,23;1,42;0,00
19.113;-1,02;0,68;0,44;-9,59;5,24;2,18;2,28;-0,23;1,42;0,00
19.113;-1,90;0,98;0,48;-9,59;5,24;2,18;2,28;-0,23;1,42;0,00
19.114;-2,74;0,82;0,67;-9,59;5,24;2,18;2,28;-0,23;1,42;0,00
19.115;-2,87;0,34;0,52;-9,59;5,24;2,18;2,28;-0,23;1,42;0,00
19.17;-2,87;0,34;0,52;-15,03;0,15;3,23;2,28;-0,23;1,42;0,00
19.171;-2,87;0,34;0,52;-15,03;0,15;3,23;2,52;1,37;1,52;0,00
19.172;-2,46;0,46;0,53;-15,03;0,15;3,23;2,52;1,37;1,52;0,00
19.172;-2,04;0,47;0,52;-15,03;0,15;3,23;2,52;1,37;1,52;0,00
19.173;-1,65;0,39;0,41;-15,03;0,15;3,23;2,52;1,37;1,52;0,00
19.227;-1,65;0,39;0,41;-15,03;0,15;3,23;1,68;0,22;0,55;0,00
19.229;-1,65;0,39;0,41;-3,24;-2,00;2,13;1,68;0,22;0,55;0,00
19.229;-1,23;0,26;0,37;-3,24;-2,00;2,13;1,68;0,22;0,55;0,00
19.229;-0,86;0,08;0,30;-3,24;-2,00;2,13;1,68;0,22;0,55;0,00
19.23;-0,52;-0,16;0,20;-3,24;-2,00;2,13;1,68;0,22;0,55;0,00
19.285;-0,52;-0,16;0,20;-3,24;-2,00;2,13;0,73;-0,07;-0,53;0,00
19.286;-0,52;-0,16;0,20;6,82;-7,47;-0,20;0,73;-0,07;-0,53;0,00
19.286;-0,21;-0,37;0,11;6,82;-7,47;-0,20;0,73;-0,07;-0,53;0,00
19.286;0,06;-0,51;0,01;6,82;-7,47;-0,20;0,73;-0,07;-0,53;0,00
19.287;0,24;-0,56;-0,02;6,82;-7,47;-0,20;0,73;-0,07;-0,53;0,00
19.344;0,24;-0,56;-0,02;6,82;-7,47;-0,20;-0,16;-0,40;-0,78;0,00
19.345;0,24;-0,56;-0,02;11,61;-8,93;-1,32;-0,16;-0,40;-0,78;0,00
19.345;0,29;-0,53;0,01;11,61;-8,93;-1,32;-0,16;-0,40;-0,78;0,00
19.346;0,28;-0,59;0,07;11,61;-8,93;-1,32;-0,16;-0,40;-0,78;0,00
19.346;0,06;-0,63;0,19;11,61;-8,93;-1,32;-0,16;-0,40;-0,78;0,00
19.403;0,06;-0,63;0,19;11,61;-8,93;-1,32;-1,10;0,40;-1,35;0,00
19.403;-0,24;-0,71;0,22;11,61;-8,93;-1,32;-1,10;0,40;-1,35;0,00
19.404;-0,57;-0,66;0,19;11,61;-8,93;-1,32;-1,10;0,40;-1,35;0,00
19.404;-0,94;-0,46;0,10;11,61;-8,93;-1,32;-1,10;0,40;-1,35;0,00
19.404;-0,94;-0,46;0,10;6,65;-9,04;0,46;-1,10;0,40;-1,35;0,00
19.461;-0,94;-0,46;0,10;6,65;-9,04;0,46;-2,00;0,43;-0,80;0,00
19.462;-1,34;0,01;0,14;6,65;-9,04;0,46;-2,00;0,43;-0,80;0,00
19.462;-1,96;0,41;0,44;6,65;-9,04;0,46;-2,00;0,43;-0,80;0,00
19.462;-2,64;0,48;0,61;6,65;-9,04;0,46;-2,00;0,43;-0,80;0,00
19.463;-2,64;0,48;0,61;-4,55;-2,01;0,70;-2,00;0,43;-0,80;0,00
19.519;-2,64;0,48;0,61;-4,55;-2,01;0,70;-2,74;1,15;-1,03;0,00
19.519;-2,64;0,48;0,61;-16,37;4,61;3,32;-2,74;1,15;-1,03;0,00
19.519;-2,81;0,63;0,47;-16,37;4,61;3,32;-2,74;1,15;-1,03;0,00
19.52;-2,57;0,65;0,29;-16,37;4,61;3,32;-2,74;1,15;-1,03;0,00
19.52;-2,11;0,69;0,20;-16,37;4,61;3,32;-2,74;1,15;-1,03;0,00
19.578;-2,11;0,69;0,20;-16,37;4,61;3,32;-1,89;-0,83;-0,76;0,00
19.578;-1,67;0,77;0,18;-16,37;4,61;3,32;-1,89;-0,83;-0,76;0,00
19.579;-1,23;0,69;0,19;-16,37;4,61;3,32;-1,89;-0,83;-0,76;0,00
19.579;-0,80;0,53;0,11;-16,37;4,61;3,32;-1,89;-0,83;-0,76;0,00
19.579;-0,80;0,53;0,11;-6,49;6,35;0,14;-1,89;-0,83;-0,76;0,00
19.642;-0,80;0,53;0,11;-6,49;6,35;0,14;-0,69;-0,56;-0,38;0,00
19.643;-0,43;0,45;0,05;-6,49;6,35;0,14;-0,69;-0,56;-0,38;0,00
19.643;-0,21;0,44;0,09;-6,49;6,35;0,14;-0,69;-0,56;-0,38;0,00
19.643;-0,00;0,37;0,11;-6,49;6,35;0,14;-0,69;-0,56;-0,38;0,00
19.644;-0,00;0,37;0,11;5,02;4,17;-1,26;-0,69;-0,56;-0,38;0,00
19.694;-0,00;0,37;0,11;5,02;4,17;-1,26;0,09;-1,17;0,02;0,00
19.695;-0,00;0,37;0,11;10,96;2,93;-2,18;0,09;-1,17;0,02;0,00
19.695;0,17;0,32;0,05;10,96;2,93;-2,18;0,09;-1,17;0,02;0,00
19.695;0,31;0,37;-0,01;10,96;2,93;-2,18;0,09;-1,17;0,02;0,00
19.695;0,30;0,51;-0,00;10,96;2,93;-2,18;0,09;-1,17;0,02;0,00
19.756;0,30;0,51;-0,00;10,96;2,93;-2,18;1,03;-0,77;0,54;0,00
19.756;0,10;0,60;0,13;10,96;2,93;-2,18;1,03;-0,77;0,54;0,00
19.757;-0,16;0,56;0,27;10,96;2,93;-2,18;1,03;-0,77;0,54;0,00
19.757;-0,48;0,48;0,35;10,96;2,93;-2,18;1,03;-0,77;0,54;0,00
19.757;-0,48;0,48;0,35;9,83;4,40;-1,70;1,03;-0,77;0,54;0,00
19.811;-0,48;0,48;0,35;9,83;4,40;-1,70;2,03;-0,47;0,89;0,00
19.812;-0,48;0,48;0,35;-1,11;4,23;1,51;2,03;-0,47;0,89;0,00
19.812;-0,99;0,56;0,47;-1,11;4,23;1,51;2,03;-0,47;0,89;0,00
19.813;-1,60;0,87;0,60;-1,11;4,23;1,51;2,03;-0,47;0,89;0,00
19.813;-2,37;1,18;0,85;-1,11;4,23;1,51;2,03;-0,47;0,89;0,00
19.87;-2,37;1,18;0,85;-1,11;4,23;1,51;2,98;0,58;2,06;0,00
19.872;-2,37;1,18;0,85;-17,03;4,42;4,62;2,98;0,58;2,06;0,00
19.878;-2,86;0,90;0,79;-17,03;4,42;4,62;2,98;0,58;2,06;0,00
19.879;-2,73;0,39;0,51;-17,03;4,42;4,62;2,98;0,58;2,06;0,00
19.883;-2,21;0,34;0,47;-17,03;4,42;4,62;2,98;0,58;2,06;0,00
19.928;-2,21;0,34;0,47;-17,03;4,42;4,62;2,54;0,35;1,20;0,00
19.929;-1,83;0,37;0,43;-17,03;4,42;4,62;2,54;0,35;1,20;0,00
19.93;-1,43;0,34;0,37;-17,03;4,42;4,62;2,54;0,35;1,20;0,00
19.93;-1,01;0,27;0,31;-17,03;4,42;4,62;2,54;0,35;1,20;0,00
19.93;-1,01;0,27;0,31;-9,00;-1,09;2,48;2,54;0,35;1,20;0,00
19.987;-1,01;0,27;0,31;-9,00;-1,09;2,48;1,65;-0,06;-0,09;0,00
19.988;-0,60;0,06;0,16;-9,00;-1,09;2,48;1,65;-0,06;-0,09;0,00
19.988;-0,26;-0,19;0,11;-9,00;-1,09;2,48;1,65;-0,06;-0,09;0,00
19.989;0,01;-0,41;0,14;-9,00;-1,09;2,48;1,65;-0,06;-0,09;0,00
19.989;0,01;-0,41;0,14;2,73;-4,09;0,64;1,65;-0,06;-0,09;0,00
20.044;0,01;-0,41;0,14;9,83;-8,75;0,09;1,65;-0,06;-0,09;0,00
20.046;0,01;-0,41;0,14;9,83;-8,75;0,09;0,64;-0,14;-0,59;0,00
20.047;0,13;-0,50;0,13;9,83;-8,75;0,09;0,64;-0,14;-0,59;0,00
20.047;0,17;-0,51;0,11;9,83;-8,75;0,09;0,64;-0,14;-0,59;0,00
20.047;0,13;-0,54;0,12;9,83;-8,75;0,09;0,64;-0,14;-0,59;0,00
20.104;0,13;-0,54;0,12;9,83;-8,75;0,09;-0,48;0,28;-0,74;0,00
20.104;0,13;-0,54;0,12;9,00;-9,75;0,76;-0,48;0,28;-0,74;0,00
20.105;0,07;-0,62;0,17;9,00;-9,75;0,76;-0,48;0,28;-0,74;0,00
20.105;-0,16;-0,74;0,29;9,00;-9,75;0,76;-0,48;0,28;-0,74;0,00
20.105;-0,52;-0,74;0,27;9,00;-9,75;0,76;-0,48;0,28;-0,74;0,00
20.162;-0,52;-0,74;0,27;9,00;-9,75;0,76;-1,74;0,10;-0,93;0,00
20.164;-0,77;-0,53;0,14;9,00;-9,75;0,76;-1,74;0,10;-0,93;0,00
20.165;-1,08;-0,07;0,02;9,00;-9,75;0,76;-1,74;0,10;-0,93;0,00
20.165;-1,74;0,29;0,14;9,00;-9,75;0,76;-1,74;0,10;-0,93;0,00
20.166;-1,74;0,29;0,14;1,28;-7,18;-0,03;-1,74;0,10;-0,93;0,00
20.22;-1,74;0,29;0,14;1,28;-7,18;-0,03;-2,75;1,45;-0,68;0,00
20.222;-1,74;0,29;0,14;-14,70;1,75;1,93;-2,75;1,45;-0,68;0,00
20.224;-2,62;0,40;0,43;-14,70;1,75;1,93;-2,75;1,45;-0,68;0,00
20.225;-3,04;0,54;0,35;-14,70;1,75;1,93;-2,75;1,45;-0,68;0,00
20.226;-2,86;0,71;0,26;-14,70;1,75;1,93;-2,75;1,45;-0,68;0,00
20.279;-2,86;0,71;0,26;-14,70;1,75;1,93;-2,59;0,01;-1,19;0,00
20.279;-2,86;0,71;0,26;-12,81;6,80;1,03;-2,59;0,01;-1,19;0,00
20.28;-2,31;0,87;0,22;-12,81;6,80;1,03;-2,59;0,01;-1,19;0,00
20.28;-1,76;0,98;0,24;-12,81;6,80;1,03;-2,59;0,01;-1,19;0,00
20.281;-1,21;0,91;0,22;-12,81;6,80;1,03;-2,59;0,01;-1,19;0,00
20.337;-1,21;0,91;0,22;-12,81;6,80;1,03;-1,42;-0,72;-0,89;0,00
20.338;-0,75;0,75;0,19;-12,81;6,80;1,03;-1,42;-0,72;-0,89;0,00
20.339;-0,37;0,63;0,09;-12,81;6,80;1,03;-1,42;-0,72;-0,89;0,00
20.339;-0,13;0,57;0,11;-12,81;6,80;1,03;-1,42;-0,72;-0,89;0,00
20.34;-0,13;0,57;0,11;2,18;6,45;-0,21;-1,42;-0,72;-0,89;0,00
20.395;-0,13;0,57;0,11;2,18;6,45;-0,21;-0,48;-1,06;-0,13;0,00
20.396;-0,13;0,57;0,11;9,89;4,20;-1,97;-0,48;-1,06;-0,13;0,00
20.398;0,05;0,52;0,06;9,89;4,20;-1,97;-0,48;-1,06;-0,13;0,00
20.398;0,20;0,50;-0,01;9,89;4,20;-1,97;-0,48;-1,06;-0,13;0,00
20.399;0,27;0,57;-0,04;9,89;4,20;-1,97;-0,48;-1,06;-0,13;0,00
20.453;0,27;0,57;-0,04;9,89;4,20;-1,97;0,67;-1,04;0,86;0,00
20.454;0,27;0,57;-0,04;9,84;4,24;-2,31;0,67;-1,04;0,86;0,00
20.458;0,10;0,62;0,04;9,84;4,24;-2,31;0,67;-1,04;0,86;0,00
20.458;-0,15;0,60;0,19;9,84;4,24;-2,31;0,67;-1,04;0,86;0,00
20.459;-0,40;0,56;0,25;9,84;4,24;-2,31;0,67;-1,04;0,86;0,00
20.512;-0,40;0,56;0,25;9,84;4,24;-2,31;1,89;-0,34;1,19;0,00
20.513;-0,79;0,51;0,39;9,84;4,24;-2,31;1,89;-0,34;1,19;0,00
20.514;-1,20;0,66;0,59;9,84;4,24;-2,31;1,89;-0,34;1,19;0,00
20.515;-1,93;1,12;0,73;9,84;4,24;-2,31;1,89;-0,34;1,19;0,00
20.516;-1,93;1,12;0,73;1,05;3,08;1,12;1,89;-0,34;1,19;0,00
20.569;-1,93;1,12;0,73;1,05;3,08;1,12;3,04;0,41;1,93;0,00
20.57;-1,93;1,12;0,73;-13,54;5,34;4,36;3,04;0,41;1,93;0,00
20.571;-2,43;1,13;0,68;-13,54;5,34;4,36;3,04;0,41;1,93;0,00
20.571;-2,47;0,66;0,58;-13,54;5,34;4,36;3,04;0,41;1,93;0,00
20.571;-2,46;0,53;0,67;-13,54;5,34;4,36;3,04;0,41;1,93;0,00
20.63;-2,46;0,53;0,67;-11,83;-0,25;4,62;3,04;0,41;1,93;0,00
20.632;-2,46;0,53;0,67;-11,83;-0,25;4,62;2,58;0,70;1,24;0,00
20.639;-2,15;0,50;0,65;-11,83;-0,25;4,62;2,58;0,70;1,24;0,00
20.639;-1,68;0,42;0,46;-11,83;-0,25;4,62;2,58;0,70;1,24;0,00
20.64;-1,24;0,31;0,35;-11,83;-0,25;4,62;2,58;0,70;1,24;0,00
20.686;-1,24;0,31;0,35;-11,83;-0,25;4,62;1,79;-0,06;0,19;0,00
20.687;-0,85;0,09;0,23;-11,83;-0,25;4,62;1,79;-0,06;0,19;0,00
20.687;-0,54;-0,17;0,14;-11,83;-0,25;4,62;1,79;-0,06;0,19;0,00
20.687;-0,26;-0,40;0,10;-11,83;-0,25;4,62;1,79;-0,06;0,19;0,00
20.687;-0,26;-0,40;0,10;0,03;-4,40;1,63;1,79;-0,06;0,19;0,00
20.744;-0,26;-0,40;0,10;0,03;-4,40;1,63;0,96;-0,48;-0,38;0,00
20.745;-0,26;-0,40;0,10;8,24;-10,02;-0,27;0,96;-0,48;-0,38;0,00
20.756;-0,01;-0,57;0,04;8,24;-10,02;-0,27;0,96;-0,48;-0,38;0,00
20.757;0,16;-0,63;-0,01;8,24;-10,02;-0,27;0,96;-0,48;-0,38;0,00
20.757;0,24;-0,69;0,04;8,24;-10,02;-0,27;0,96;-0,48;-0,38;0,00
20.803;0,24;-0,69;0,04;8,24;-10,02;-0,27;-0,34;0,05;-0,78;0,00
20.804;0,15;-0,72;0,09;8,24;-10,02;-0,27;-0,34;0,05;-0,78;0,00
20.804;-0,01;-0,77;0,09;8,24;-10,02;-0,27;-0,34;0,05;-0,78;0,00
20.805;-0,11;-0,74;0,09;8,24;-10,02;-0,27;-0,34;0,05;-0,78;0,00
20.805;-0,11;-0,74;0,09;9,89;-11,36;-0,01;-0,34;0,05;-0,78;0,00
20.862;-0,11;-0,74;0,09;6,35;-8,64;-0,71;-0,34;0,05;-0,78;0,00
20.864;-0,11;-0,74;0,09;6,35;-8,64;-0,71;-1,80;0,04;-1,56;0,00
20.865;-0,23;-0,58;0,04;6,35;-8,64;-0,71;-1,80;0,04;-1,56;0,00
20.866;-0,44;-0,36;-0,00;6,35;-8,64;-0,71;-1,80;0,04;-1,56;0,00
20.867;-0,97;-0,03;0,04;6,35;-8,64;-0,71;-1,80;0,04;-1,56;0,00
20.92;-0,97;-0,03;0,04;6,35;-8,64;-0,71;-2,89;1,14;-1,44;0,00
20.92;-0,97;-0,03;0,04;-9,77;-0,45;2,45;-2,89;1,14;-1,44;0,00
20.921;-1,94;0,20;0,44;-9,77;-0,45;2,45;-2,89;1,14;-1,44;0,00
20.922;-2,94;0,36;0,57;-9,77;-0,45;2,45;-2,89;1,14;-1,44;0,00
20.923;-3,51;0,62;0,43;-9,77;-0,45;2,45;-2,89;1,14;-1,44;0,00
20.979;-3,51;0,62;0,43;-21,50;6,13;2,52;-2,89;1,14;-1,44;0,00
20.981;-3,51;0,62;0,43;-21,50;6,13;2,52;-2,97;0,60;-1,76;0,00
20.982;-3,53;0,78;0,43;-21,50;6,13;2,52;-2,97;0,60;-1,76;0,00
20.982;-2,58;0,84;0,22;-21,50;6,13;2,52;-2,97;0,60;-1,76;0,00
20.982;-1,64;0,95;0,04;-21,50;6,13;2,52;-2,97;0,60;-1,76;0,00
21.035;-1,64;0,95;0,04;-0,56;8,00;-1,75;-2,97;0,60;-1,76;0,00
21.037;-1,64;0,95;0,04;-0,56;8,00;-1,75;-1,94;-1,71;-1,04;0,00
21.038;-1,00;0,93;0,02;-0,56;8,00;-1,75;-1,94;-1,71;-1,04;0,00
21.038;-0,54;0,73;0,04;-0,56;8,00;-1,75;-1,94;-1,71;-1,04;0,00
21.04;-0,29;0,63;0,02;-0,56;8,00;-1,75;-1,94;-1,71;-1,04;0,00
21.095;-0,29;0,63;0,02;-0,56;8,00;-1,75;-1,04;-0,31;-0,11;0,00
21.095;-0,29;0,63;0,02;8,51;5,18;-1,50;-1,04;-0,31;-0,11;0,00
21.095;-0,11;0,56;0,10;8,51;5,18;-1,50;-1,04;-0,31;-0,11;0,00
21.096;0,06;0,52;0,11;8,51;5,18;-1,50;-1,04;-0,31;-0,11;0,00
21.096;0,18;0,53;0,15;8,51;5,18;-1,50;-1,04;-0,31;-0,11;0,00
21.154;0,18;0,53;0,15;8,51;5,18;-1,50;0,01;-0,76;0,51;0,00
21.155;0,20;0,60;0,15;8,51;5,18;-1,50;0,01;-0,76;0,51;0,00
21.156;0,05;0,68;0,28;8,51;5,18;-1,50;0,01;-0,76;0,51;0,00
21.157;-0,14;0,69;0,42;8,51;5,18;-1,50;0,01;-0,76;0,51;0,00
21.158;-0,14;0,69;0,42;10,75;5,10;-0,76;0,01;-0,76;0,51;0,00
21.211;-0,14;0,69;0,42;10,75;5,10;-0,76;1,29;-0,89;0,98;0,00
21.212;-0,41;0,55;0,50;10,75;5,10;-0,76;1,29;-0,89;0,98;0,00
21.213;-0,91;0,41;0,38;10,75;5,10;-0,76;1,29;-0,89;0,98;0,00
21.213;-1,24;0,45;0,26;10,75;5,10;-0,76;1,29;-0,89;0,98;0,00
21.213;-1,24;0,45;0,26;4,27;3,78;1,15;1,29;-0,89;0,98;0,00
21.273;-1,24;0,45;0,26;4,27;3,78;1,15;2,75;-0,85;1,79;0,00
21.274;-1,70;0,76;0,44;4,27;3,78;1,15;2,75;-0,85;1,79;0,00
21.275;-2,18;0,81;0,58;4,27;3,78;1,15;2,75;-0,85;1,79;0,00
21.275;-2,51;0,84;0,53;4,27;3,78;1,15;2,75;-0,85;1,79;0,00
21.275;-2,51;0,84;0,53;-7,98;3,48;1,00;2,75;-0,85;1,79;0,00
21.329;-2,51;0,84;0,53;-7,98;3,48;1,00;3,34;1,60;2,01;0,00
21.33;-2,72;0,68;0,59;-7,98;3,48;1,00;3,34;1,60;2,01;0,00
21.33;-2,51;0,47;0,60;-7,98;3,48;1,00;3,34;1,60;2,01;0,00
21.331;-1,89;0,47;0,46;-7,98;3,48;1,00;3,34;1,60;2,01;0,00
21.331;-1,89;0,47;0,46;-16,46;1,87;3,89;3,34;1,60;2,01;0,00
21.391;-1,89;0,47;0,46;-16,46;1,87;3,89;1,96;0,30;0,70;0,00
21.392;-1,89;0,47;0,46;-4,73;-1,91;2,74;1,96;0,30;0,70;0,00
21.393;-1,34;0,30;0,39;-4,73;-1,91;2,74;1,96;0,30;0,70;0,00
21.393;-0,89;0,20;0,30;-4,73;-1,91;2,74;1,96;0,30;0,70;0,00
21.394;-0,51;0,01;0,21;-4,73;-1,91;2,74;1,96;0,30;0,70;0,00
21.444;-0,51;0,01;0,21;-4,73;-1,91;2,74;1,22;0,21;-0,14;0,00
21.445;-0,51;0,01;0,21;6,05;-7,07;0,87;1,22;0,21;-0,14;0,00
21.447;-0,24;-0,20;0,14;6,05;-7,07;0,87;1,22;0,21;-0,14;0,00
21.447;-0,06;-0,45;0,09;6,05;-7,07;0,87;1,22;0,21;-0,14;0,00
21.448;-0,01;-0,58;0,17;6,05;-7,07;0,87;1,22;0,21;-0,14;0,00
21.503;-0,01;-0,58;0,17;6,05;-7,07;0,87;0,56;0,48;-0,53;0,00
21.504;0,08;-0,66;0,14;6,05;-7,07;0,87;0,56;0,48;-0,53;0,00
21.504;0,17;-0,69;0,11;6,05;-7,07;0,87;0,56;0,48;-0,53;0,00
21.504;0,12;-0,71;0,08;6,05;-7,07;0,87;0,56;0,48;-0,53;0,00
21.504;0,12;-0,71;0,08;9,46;-10,83;1,19;0,56;0,48;-0,53;0,00
21.562;0,12;-0,71;0,08;9,46;-10,83;1,19;-0,42;0,16;-1,42;0,00
21.564;0,12;-0,71;0,08;8,34;-10,68;0,25;-0,42;0,16;-1,42;0,00
21.565;-0,04;-0,73;0,07;8,34;-10,68;0,25;-0,42;0,16;-1,42;0,00
21.566;-0,24;-0,73;-0,01;8,34;-10,68;0,25;-0,42;0,16;-1,42;0,00
21.566;-0,41;-0,64;-0,20;8,34;-10,68;0,25;-0,42;0,16;-1,42;0,00
21.621;-0,41;-0,64;-0,20;8,34;-10,68;0,25;-1,60;0,09;-1,80;0,00
21.623;-0,41;-0,64;-0,20;1,12;-4,76;-2,63;-1,60;0,09;-1,80;0,00
21.624;-0,71;-0,28;-0,43;1,12;-4,76;-2,63;-1,60;0,09;-1,80;0,00
21.625;-1,35;0,23;-0,04;1,12;-4,76;-2,63;-1,60;0,09;-1,80;0,00
21.625;-2,34;0,46;0,36;1,12;-4,76;-2,63;-1,60;0,09;-1,80;0,00
21.678;-2,34;0,46;0,36;1,12;-4,76;-2,63;-2,76;1,65;-1,68;0,00
21.679;-3,19;0,55;0,28;1,12;-4,76;-2,63;-2,76;1,65;-1,68;0,00
21.68;-3,42;0,67;0,23;1,12;-4,76;-2,63;-2,76;1,65;-1,68;0,00
21.68;-2,75;0,76;0,06;1,12;-4,76;-2,63;-2,76;1,65;-1,68;0,00
21.68;-2,75;0,76;0,06;-19,52;3,79;2,96;-2,76;1,65;-1,68;0,00
21.737;-2,75;0,76;0,06;-19,52;3,79;2,96;-2,73;-0,99;-0,79;0,00
21.738;-2,75;0,76;0,06;-9,94;6,79;0,11;-2,73;-0,99;-0,79;0,00
21.739;-1,99;0,88;0,06;-9,94;6,79;0,11;-2,73;-0,99;-0,79;0,00
21.739;-1,35;0,85;0,12;-9,94;6,79;0,11;-2,73;-0,99;-0,79;0,00
21.74;-0,89;0,64;0,24;-9,94;6,79;0,11;-2,73;-0,99;-0,79;0,00
21.794;-0,89;0,64;0,24;-9,94;6,79;0,11;-1,63;-0,93;-0,49;0,00
21.795;-0,89;0,64;0,24;4,34;4,33;-0,13;-1,63;-0,93;-0,49;0,00
21.796;-0,55;0,52;0,12;4,34;4,33;-0,13;-1,63;-0,93;-0,49;0,00
21.797;-0,25;0,47;0,01;4,34;4,33;-0,13;-1,63;-0,93;-0,49;0,00
21.797;0,02;0,45;-0,06;4,34;4,33;-0,13;-1,63;-0,93;-0,49;0,00
21.852;0,02;0,45;-0,06;4,34;4,33;-0,13;-0,60;-1,16;-0,13;0,00
21.854;0,21;0,48;-0,14;4,34;4,33;-0,13;-0,60;-1,16;-0,13;0,00
21.854;0,27;0,49;-0,11;4,34;4,33;-0,13;-0,60;-1,16;-0,13;0,00
21.854;0,13;0,53;0,10;4,34;4,33;-0,13;-0,60;-1,16;-0,13;0,00
21.855;0,13;0,53;0,10;11,18;3,73;-3,00;-0,60;-1,16;-0,13;0,00
21.912;0,13;0,53;0,10;11,18;3,73;-3,00;0,33;-0,60;0,65;0,00
21.914;-0,02;0,63;0,11;11,18;3,73;-3,00;0,33;-0,60;0,65;0,00
21.916;-0,12;0,62;-0,01;11,18;3,73;-3,00;0,33;-0,60;0,65;0,00
21.917;-0,36;0,54;0,03;11,18;3,73;-3,00;0,33;-0,60;0,65;0,00
21.918;-0,36;0,54;0,03;9,23;4,44;-1,64;0,33;-0,60;0,65;0,00
21.969;-0,36;0,54;0,03;9,23;4,44;-1,64;1,50;-0,12;1,01;0,00
21.969;-0,36;0,54;0,03;1,11;3,53;0,42;1,50;-0,12;1,01;0,00
21.97;-0,82;0,50;0,29;1,11;3,53;0,42;1,50;-0,12;1,01;0,00
21.971;-1,27;0,72;0,46;1,11;3,53;0,42;1,50;-0,12;1,01;0,00
21.971;-1,76;1,12;0,70;1,11;3,53;0,42;1,50;-0,12;1,01;0,00
22.029;-1,76;1,12;0,70;1,11;3,53;0,42;2,37;-0,06;1,82;0,00
22.03;-2,30;1,12;0,73;1,11;3,53;0,42;2,37;-0,06;1,82;0,00
22.031;-2,49;0,71;0,64;1,11;3,53;0,42;2,37;-0,06;1,82;0,00
22.032;-2,54;0,55;0,57;1,11;3,53;0,42;2,37;-0,06;1,82;0,00
22.032;-2,54;0,55;0,57;-12,33;6,10;4,83;2,37;-0,06;1,82;0,00
22.087;-2,54;0,55;0,57;-12,33;6,10;4,83;2,27;0,23;1,66;0,00
22.087;-2,54;0,55;0,57;-13,06;0,23;3,31;2,27;0,23;1,66;0,00
22.088;-2,26;0,51;0,45;-13,06;0,23;3,31;2,27;0,23;1,66;0,00
22.088;-1,91;0,43;0,39;-13,06;0,23;3,31;2,27;0,23;1,66;0,00
22.089;-1,49;0,33;0,29;-13,06;0,23;3,31;2,27;0,23;1,66;0,00
22.146;-1,49;0,33;0,29;-13,06;0,23;3,31;1,66;0,10;0,52;0,00
22.147;-1,05;0,13;0,25;-13,06;0,23;3,31;1,66;0,10;0,52;0,00
22.147;-0,72;-0,12;0,21;-13,06;0,23;3,31;1,66;0,10;0,52;0,00
22.148;-0,36;-0,34;0,12;-13,06;0,23;3,31;1,66;0,10;0,52;0,00
22.149;-0,36;-0,34;0,12;-1,87;-3,82;1,68;1,66;0,10;0,52;0,00
22.203;-0,36;-0,34;0,12;-1,87;-3,82;1,68;0,97;-0,28;-0,48;0,00
22.204;-0,04;-0,51;0,03;-1,87;-3,82;1,68;0,97;-0,28;-0,48;0,00
22.205;0,16;-0,62;-0,09;-1,87;-3,82;1,68;0,97;-0,28;-0,48;0,00
22.205;0,15;-0,64;-0,04;-1,87;-3,82;1,68;0,97;-0,28;-0,48;0,00
22.206;0,15;-0,64;-0,04;7,97;-9,34;-0,45;0,97;-0,28;-0,48;0,00
22.265;0,15;-0,64;-0,04;7,97;-9,34;-0,45;0,10;0,25;-0,72;0,00
22.266;0,15;-0,64;-0,04;9,27;-10,19;0,03;0,10;0,25;-0,72;0,00
22.266;0,05;-0,61;0,07;9,27;-10,19;0,03;0,10;0,25;-0,72;0,00
22.267;-0,06;-0,65;0,13;9,27;-10,19;0,03;0,10;0,25;-0,72;0,00
22.267;-0,26;-0,74;0,16;9,27;-10,19;0,03;0,10;0,25;-0,72;0,00
22.32;-0,26;-0,74;0,16;9,27;-10,19;0,03;-1,36;-0,11;-1,53;0,00
22.32;-0,26;-0,74;0,16;4,20;-9,21;-0,47;-1,36;-0,11;-1,53;0,00
22.321;-0,47;-0,72;0,04;4,20;-9,21;-0,47;-1,36;-0,11;-1,53;0,00
22.321;-0,75;-0,45;-0,08;4,20;-9,21;-0,47;-1,36;-0,11;-1,53;0,00
22.321;-1,10;-0,03;-0,08;4,20;-9,21;-0,47;-1,36;-0,11;-1,53;0,00
22.378;-1,10;-0,03;-0,08;-7,76;0,45;1,44;-1,36;-0,11;-1,53;0,00
22.379;-1,10;-0,03;-0,08;-7,76;0,45;1,44;-2,49;0,52;-1,11;0,00
22.38;-1,77;0,33;0,28;-7,76;0,45;1,44;-2,49;0,52;-1,11;0,00
22.38;-2,37;0,54;0,53;-7,76;0,45;1,44;-2,49;0,52;-1,11;0,00
22.38;-2,60;0,72;0,33;-7,76;0,45;1,44;-2,49;0,52;-1,11;0,00
22.436;-2,60;0,72;0,33;-7,76;0,45;1,44;-2,63;0,57;-1,11;0,00
22.437;-2,60;0,72;0,33;-15,76;5,97;2,24;-2,63;0,57;-1,11;0,00
22.438;-2,73;0,77;0,37;-15,76;5,97;2,24;-2,63;0,57;-1,11;0,00
22.438;-2,49;0,83;0,29;-15,76;5,97;2,24;-2,63;0,57;-1,11;0,00
22.438;-1,89;0,89;0,28;-15,76;5,97;2,24;-2,63;0,57;-1,11;0,00
22.496;-1,89;0,89;0,28;-15,76;5,97;2,24;-2,00;-0,89;-0,85;0,00
22.498;-1,89;0,89;0,28;-3,31;7,04;0,57;-2,00;-0,89;-0,85;0,00
22.498;-1,32;0,87;0,22;-3,31;7,04;0,57;-2,00;-0,89;-0,85;0,00
22.5;-0,82;0,74;0,18;-3,31;7,04;0,57;-2,00;-0,89;-0,85;0,00
22.5;-0,40;0,63;0,13;-3,31;7,04;0,57;-2,00;-0,89;-0,85;0,00
22.553;-0,40;0,63;0,13;-3,31;7,04;0,57;-0,90;-0,79;-0,29;0,00
22.554;-0,09;0,54;0,02;-3,31;7,04;0,57;-0,90;-0,79;-0,29;0,00
22.554;0,11;0,46;0,01;-3,31;7,04;0,57;-0,90;-0,79;-0,29;0,00
22.555;0,24;0,42;0,01;-3,31;7,04;0,57;-0,90;-0,79;-0,29;0,00
22.555;0,24;0,42;0,01;8,42;4,39;-1,60;-0,90;-0,79;-0,29;0,00
22.612;0,24;0,42;0,01;8,42;4,39;-1,60;0,10;-0,58;0,35;0,00
22.612;0,27;0,44;0,03;8,42;4,39;-1,60;0,10;-0,58;0,35;0,00
22.613;0,12;0,52;0,09;8,42;4,39;-1,60;0,10;-0,58;0,35;0,00
22.613;-0,01;0,49;0,15;8,42;4,39;-1,60;0,10;-0,58;0,35;0,00
22.614;-0,01;0,49;0,15;11,40;3,29;-2,00;0,10;-0,58;0,35;0,00
22.669;-0,01;0,49;0,15;11,40;3,29;-2,00;0,97;-0,65;0,24;0,00
22.67;-0,01;0,49;0,15;6,33;2,86;-0,75;0,97;-0,65;0,24;0,00
22.671;-0,22;0,42;0,15;6,33;2,86;-0,75;0,97;-0,65;0,24;0,00
22.671;-0,62;0,44;0,29;6,33;2,86;-0,75;0,97;-0,65;0,24;0,00
22.672;-1,11;0,64;0,40;6,33;2,86;-0,75;0,97;-0,65;0,24;0,00
22.729;-1,11;0,64;0,40;6,33;2,86;-0,75;2,27;-0,42;1,23;0,00
22.73;-1,11;0,64;0,40;-7,36;6,59;3,62;2,27;-0,42;1,23;0,00
22.731;-1,67;1,03;0,65;-7,36;6,59;3,62;2,27;-0,42;1,23;0,00
22.731;-2,24;1,14;0,89;-7,36;6,59;3,62;2,27;-0,42;1,23;0,00
22.731;-2,53;0,72;0,77;-7,36;6,59;3,62;2,27;-0,42;1,23;0,00
22.787;-2,53;0,72;0,77;-14,41;0,97;3,74;2,27;-0,42;1,23;0,00
22.789;-2,53;0,72;0,77;-14,41;0,97;3,74;3,02;0,13;1,43;0,00
22.79;-2,52;0,42;0,56;-14,41;0,97;3,74;3,02;0,13;1,43;0,00
22.791;-2,13;0,32;0,48;-14,41;0,97;3,74;3,02;0,13;1,43;0,00
22.792;-1,76;0,27;0,40;-14,41;0,97;3,74;3,02;0,13;1,43;0,00
22.844;-1,76;0,27;0,40;-14,41;0,97;3,74;2,35;0,32;0,38;0,00
22.845;-1,76;0,27;0,40;-4,36;-2,03;1,32;2,35;0,32;0,38;0,00
22.846;-1,36;0,23;0,25;-4,36;-2,03;1,32;2,35;0,32;0,38;0,00
22.847;-0,98;0,16;0,19;-4,36;-2,03;1,32;2,35;0,32;0,38;0,00
22.847;-0,66;-0,01;0,14;-4,36;-2,03;1,32;2,35;0,32;0,38;0,00
22.904;-0,66;-0,01;0,14;-4,36;-2,03;1,32;1,36;0,65;-0,42;0,00
22.905;-0,66;-0,01;0,14;4,96;-6,39;0,58;1,36;0,65;-0,42;0,00
22.906;-0,43;-0,27;0,16;4,96;-6,39;0,58;1,36;0,65;-0,42;0,00
22.907;-0,19;-0,47;0,11;4,96;-6,39;0,58;1,36;0,65;-0,42;0,00
22.908;0,05;-0,56;0,04;4,96;-6,39;0,58;1,36;0,65;-0,42;0,00
22.962;0,05;-0,56;0,04;4,96;-6,39;0,58;0,30;-0,07;-0,55;0,00
22.963;0,05;-0,56;0,04;10,28;-8,86;-0,11;0,30;-0,07;-0,55;0,00
22.963;0,19;-0,54;0,03;10,28;-8,86;-0,11;0,30;-0,07;-0,55;0,00
22.964;0,13;-0,53;0,13;10,28;-8,86;-0,11;0,30;-0,07;-0,55;0,00
22.964;-0,04;-0,62;0,25;10,28;-8,86;-0,11;0,30;-0,07;-0,55;0,00
23.031;-0,04;-0,62;0,25;10,28;-8,86;-0,11;-1,03;0,38;-0,79;0,00
23.032;-0,04;-0,62;0,25;6,90;-9,21;1,41;-1,03;0,38;-0,79;0,00
