time;gFx;gFy;gFz;ax;ay;az;wx;wy;wz;P
0.017;-0,39;0,22;0,82;-0,32;0,07;0,50;0,07;-0,46;0,02;0,00
0.059;-0,39;0,22;0,82;-0,10;0,20;0,20;0,07;-0,46;0,02;0,00
0.06;-0,41;0,21;0,83;-0,10;0,20;0,20;0,07;-0,46;0,02;0,00
0.06;-0,42;0,20;0,86;-0,10;0,20;0,20;0,07;-0,46;0,02;0,00
0.061;-0,42;0,20;0,86;-0,19;0,14;0,14;0,07;-0,46;0,02;0,00
0.069;-0,42;0,20;0,86;-0,19;0,14;0,14;0,09;-0,15;0,01;0,00
0.084;-0,41;0,20;0,90;-0,19;0,14;0,14;0,09;-0,15;0,01;0,00
0.129;-0,41;0,20;0,90;0,05;-0,12;-0,33;0,09;-0,15;0,01;0,00
0.13;-0,40;0,21;0,90;0,05;-0,12;-0,33;0,09;-0,15;0,01;0,00
0.13;-0,41;0,23;0,87;0,05;-0,12;-0,33;0,09;-0,15;0,01;0,00
0.13;-0,43;0,23;0,85;0,05;-0,12;-0,33;0,09;-0,15;0,01;0,00
0.131;-0,43;0,23;0,85;0,05;-0,11;-0,29;0,09;-0,15;0,01;0,00
0.148;-0,43;0,23;0,85;0,05;-0,11;-0,29;0,03;0,01;-0,01;0,00
0.15;-0,42;0,22;0,87;0,05;-0,11;-0,29;0,03;0,01;-0,01;0,00
0.189;-0,39;0,22;0,90;0,05;-0,11;-0,29;0,03;0,01;-0,01;0,00
0.189;-0,39;0,22;0,90;0,05;-0,11;-0,29;0,02;-0,10;0,02;0,00
0.199;-0,39;0,22;0,90;-0,03;-0,04;0,04;0,02;-0,10;0,02;0,00
0.199;-0,39;0,22;0,89;-0,03;-0,04;0,04;0,02;-0,10;0,02;0,00
0.2;-0,39;0,22;0,89;-0,06;-0,04;0,03;0,02;-0,10;0,02;0,00
0.217;-0,41;0,21;0,89;-0,06;-0,04;0,03;0,02;-0,10;0,02;0,00
0.269;-0,41;0,21;0,89;-0,06;-0,04;0,03;0,04;-0,06;0,01;0,00
0.27;-0,41;0,23;0,87;-0,06;-0,04;0,03;0,04;-0,06;0,01;0,00
0.27;-0,39;0,23;0,87;-0,06;-0,04;0,03;0,04;-0,06;0,01;0,00
0.27;-0,40;0,23;0,88;-0,06;-0,04;0,03;0,04;-0,06;0,01;0,00
0.27;-0,40;0,23;0,88;0,04;-0,05;0,07;0,04;-0,06;0,01;0,00
0.339;-0,40;0,23;0,88;-0,01;0,01;-0,05;0,04;-0,06;0,01;0,00
0.341;-0,40;0,23;0,88;-0,01;0,01;-0,05;0,04;-0,06;0,01;0,00
0.341;-0,41;0,22;0,88;-0,01;0,01;-0,05;0,04;-0,06;0,01;0,00
0.342;-0,41;0,23;0,89;-0,01;0,01;-0,05;0,04;-0,06;0,01;0,00
0.342;-0,40;0,22;0,89;-0,01;0,01;-0,05;0,04;-0,06;0,01;0,00
0.35;-0,40;0,22;0,89;-0,01;0,01;-0,05;0,00;-0,02;-0,01;0,00
0.352;-0,41;0,22;0,87;-0,01;0,01;-0,05;0,00;-0,02;-0,01;0,00
0.389;-0,40;0,21;0,87;-0,01;0,01;-0,05;0,00;-0,02;-0,01;0,00
0.39;-0,40;0,21;0,87;-0,01;0,01;-0,05;0,01;-0,01;-0,01;0,00
0.409;-0,40;0,21;0,87;-0,07;-0,03;0,05;0,01;-0,01;-0,01;0,00
0.411;-0,39;0,21;0,87;-0,07;-0,03;0,05;0,01;-0,01;-0,01;0,00
0.411;-0,40;0,21;0,88;-0,07;-0,03;0,05;0,01;-0,01;-0,01;0,00
0.412;-0,40;0,21;0,88;-0,06;-0,03;0,04;0,01;-0,01;-0,01;0,00
0.469;-0,40;0,21;0,88;-0,06;-0,03;0,04;-0,01;-0,02;-0,02;0,00
0.47;-0,41;0,22;0,88;-0,06;-0,03;0,04;-0,01;-0,02;-0,02;0,00
0.47;-0,40;0,22;0,88;-0,06;-0,03;0,04;-0,01;-0,02;-0,02;0,00
0.479;-0,40;0,22;0,85;-0,06;-0,03;0,04;-0,01;-0,02;-0,02;0,00
0.48;-0,40;0,22;0,85;0,02;-0,11;-0,07;-0,01;-0,02;-0,02;0,00
0.48;-0,40;0,22;0,85;0,02;-0,09;-0,06;-0,01;-0,02;-0,02;0,00
0.551;-0,40;0,22;0,85;0,02;0,01;-0,12;-0,01;-0,02;-0,02;0,00
0.553;-0,40;0,22;0,85;0,02;0,01;-0,12;-0,01;-0,02;-0,02;0,00
0.554;-0,38;0,22;0,89;0,02;0,01;-0,12;-0,01;-0,02;-0,02;0,00
0.556;-0,38;0,23;0,91;0,02;0,01;-0,12;-0,01;-0,02;-0,02;0,00
0.556;-0,38;0,23;0,91;0,02;0,01;-0,12;-0,03;0,03;-0,09;0,00
0.557;-0,39;0,22;0,91;0,02;0,01;-0,12;-0,03;0,03;-0,09;0,00
0.589;-0,39;0,22;0,90;0,02;0,01;-0,12;-0,03;0,03;-0,09;0,00
0.59;-0,39;0,22;0,90;0,02;0,01;-0,12;-0,05;0,02;-0,10;0,00
0.617;-0,41;0,21;0,88;0,02;0,01;-0,12;-0,05;0,02;-0,10;0,00
0.618;-0,41;0,21;0,88;0,02;0,01;-0,12;-0,05;0,02;-0,10;0,00
0.618;-0,41;0,21;0,88;0,19;0,05;0,17;-0,05;0,02;-0,10;0,00
0.619;-0,41;0,21;0,88;0,18;0,08;0,15;-0,05;0,02;-0,10;0,00
0.669;-0,41;0,21;0,88;0,18;0,08;0,15;-0,03;0,01;-0,13;0,00
0.67;-0,40;0,22;0,90;0,18;0,08;0,15;-0,03;0,01;-0,13;0,00
0.671;-0,41;0,22;0,91;0,18;0,08;0,15;-0,03;0,01;-0,13;0,00
0.684;-0,42;0,21;0,90;0,18;0,08;0,15;-0,03;0,01;-0,13;0,00
0.689;-0,43;0,20;0,88;0,18;0,08;0,15;-0,03;0,01;-0,13;0,00
0.69;-0,43;0,20;0,88;0,00;0,03;0,05;-0,03;0,01;-0,13;0,00
0.69;-0,43;0,20;0,88;0,03;0,05;0,05;-0,03;0,01;-0,13;0,00
0.749;-0,43;0,20;0,88;0,03;0,05;0,05;0,02;0,09;-0,12;0,00
0.751;-0,44;0,21;0,87;0,03;0,05;0,05;0,02;0,09;-0,12;0,00
0.752;-0,42;0,21;0,87;0,03;0,05;0,05;0,02;0,09;-0,12;0,00
0.752;-0,42;0,21;0,87;0,03;0,05;0,05;0,02;0,09;-0,12;0,00
0.76;-0,42;0,21;0,87;-0,07;0,03;0,14;0,02;0,09;-0,12;0,00
0.761;-0,42;0,21;0,87;-0,03;0,04;0,14;0,02;0,09;-0,12;0,00
0.789;-0,42;0,21;0,87;-0,03;0,04;0,14;0,02;0,13;-0,12;0,00
0.79;-0,42;0,20;0,86;-0,03;0,04;0,14;0,02;0,13;-0,12;0,00
0.818;-0,44;0,20;0,86;-0,03;0,04;0,14;0,02;0,13;-0,12;0,00
0.82;-0,50;0,19;0,88;-0,03;0,04;0,14;0,02;0,13;-0,12;0,00
0.829;-0,48;0,18;0,87;-0,03;0,04;0,14;0,02;0,13;-0,12;0,00
0.83;-0,48;0,18;0,87;-0,03;0,04;-0,11;0,02;0,13;-0,12;0,00
0.869;-0,43;0,20;0,86;-0,03;0,04;-0,11;0,02;0,13;-0,12;0,00
0.87;-0,43;0,20;0,86;-0,03;0,04;-0,11;-0,02;0,08;-0,07;0,00
0.884;-0,42;0,20;0,86;-0,03;0,04;-0,11;-0,02;0,08;-0,07;0,00
0.899;-0,43;0,19;0,87;-0,03;0,04;-0,11;-0,02;0,08;-0,07;0,00
0.9;-0,43;0,19;0,87;-0,34;-0,13;-0,06;-0,02;0,08;-0,07;0,00
0.9;-0,43;0,19;0,87;-0,30;-0,09;-0,06;-0,02;0,08;-0,07;0,00
0.949;-0,44;0,20;0,85;-0,30;-0,09;-0,06;-0,02;0,08;-0,07;0,00
0.95;-0,44;0,19;0,85;-0,30;-0,09;-0,06;-0,02;0,08;-0,07;0,00
0.95;-0,44;0,19;0,85;-0,30;-0,09;-0,06;-0,04;0,17;-0,03;0,00
0.951;-0,45;0,18;0,87;-0,30;-0,09;-0,06;-0,04;0,17;-0,03;0,00
0.969;-0,45;0,17;0,88;-0,30;-0,09;-0,06;-0,04;0,17;-0,03;0,00
0.97;-0,45;0,17;0,88;0,12;-0,02;-0,11;-0,04;0,17;-0,03;0,00
0.97;-0,45;0,17;0,88;0,18;0,01;-0,07;-0,04;0,17;-0,03;0,00
0.989;-0,45;0,17;0,88;0,18;0,01;-0,07;-0,06;0,17;-0,08;0,00
1.018;-0,44;0,18;0,89;0,18;0,01;-0,07;-0,06;0,17;-0,08;0,00
1.019;-0,43;0,18;0,89;0,18;0,01;-0,07;-0,06;0,17;-0,08;0,00
1.039;-0,43;0,18;0,87;0,18;0,01;-0,07;-0,06;0,17;-0,08;0,00
1.041;-0,43;0,18;0,87;0,07;-0,09;-0,01;-0,06;0,17;-0,08;0,00
1.041;-0,43;0,18;0,87;0,11;-0,04;0,01;-0,06;0,17;-0,08;0,00
1.069;-0,45;0,18;0,87;0,11;-0,04;0,01;-0,06;0,17;-0,08;0,00
1.07;-0,45;0,18;0,87;0,11;-0,04;0,01;-0,05;0,12;-0,14;0,00
1.085;-0,48;0,20;0,88;0,11;-0,04;0,01;-0,05;0,12;-0,14;0,00
1.109;-0,48;0,21;0,87;0,11;-0,04;0,01;-0,05;0,12;-0,14;0,00
1.11;-0,48;0,21;0,84;0,11;-0,04;0,01;-0,05;0,12;-0,14;0,00
1.111;-0,48;0,21;0,84;0,24;-0,02;0,18;-0,05;0,12;-0,14;0,00
1.15;-0,48;0,21;0,84;0,24;-0,02;0,18;0,00;0,20;-0,11;0,00
1.152;-0,50;0,19;0,85;0,24;-0,02;0,18;0,00;0,20;-0,11;0,00
1.152;-0,50;0,18;0,88;0,24;-0,02;0,18;0,00;0,20;-0,11;0,00
1.179;-0,47;0,19;0,87;0,24;-0,02;0,18;0,00;0,20;-0,11;0,00
1.181;-0,47;0,19;0,87;-0,12;0,23;0,05;0,00;0,20;-0,11;0,00
1.181;-0,47;0,19;0,87;-0,04;0,21;0,07;0,00;0,20;-0,11;0,00
1.189;-0,47;0,19;0,87;-0,04;0,21;0,07;0,02;0,04;-0,10;0,00
1.218;-0,45;0,19;0,84;-0,04;0,21;0,07;0,02;0,04;-0,10;0,00
1.219;-0,48;0,19;0,82;-0,04;0,21;0,07;0,02;0,04;-0,10;0,00
1.25;-0,48;0,19;0,82;-0,07;0,02;0,06;0,02;0,04;-0,10;0,00
1.252;-0,50;0,18;0,84;-0,07;0,02;0,06;0,02;0,04;-0,10;0,00
1.253;-0,49;0,17;0,86;-0,07;0,02;0,06;0,02;0,04;-0,10;0,00
1.255;-0,49;0,17;0,86;-0,04;0,02;0,06;0,02;0,04;-0,10;0,00
1.269;-0,49;0,17;0,86;-0,04;0,02;0,06;0,01;0,06;-0,09;0,00
1.284;-0,47;0,18;0,86;-0,04;0,02;0,06;0,01;0,06;-0,09;0,00
1.319;-0,47;0,18;0,86;-0,02;0,03;-0,14;0,01;0,06;-0,09;0,00
1.32;-0,47;0,19;0,83;-0,02;0,03;-0,14;0,01;0,06;-0,09;0,00
1.321;-0,49;0,18;0,80;-0,02;0,03;-0,14;0,01;0,06;-0,09;0,00
1.321;-0,49;0,18;0,80;-0,01;0,04;-0,12;0,01;0,06;-0,09;0,00
1.349;-0,49;0,17;0,79;-0,01;0,04;-0,12;0,01;0,06;-0,09;0,00
1.352;-0,49;0,17;0,79;-0,01;0,04;-0,12;-0,02;0,01;-0,08;0,00
1.353;-0,49;0,15;0,84;-0,01;0,04;-0,12;-0,02;0,01;-0,08;0,00
1.389;-0,50;0,16;0,89;-0,01;0,04;-0,12;-0,02;0,01;-0,08;0,00
1.39;-0,50;0,16;0,89;-0,01;0,04;-0,12;-0,09;-0,11;-0,09;0,00
1.39;-0,51;0,17;0,92;-0,01;0,04;-0,12;-0,09;-0,11;-0,09;0,00
1.391;-0,51;0,17;0,92;0,03;0,07;-0,27;-0,09;-0,11;-0,09;0,00
1.418;-0,50;0,19;0,90;0,03;0,07;-0,27;-0,09;-0,11;-0,09;0,00
1.46;-0,50;0,19;0,90;-0,18;-0,07;0,13;-0,09;-0,11;-0,09;0,00
1.462;-0,49;0,20;0,88;-0,18;-0,07;0,13;-0,09;-0,11;-0,09;0,00
1.462;-0,47;0,19;0,86;-0,18;-0,07;0,13;-0,09;-0,11;-0,09;0,00
1.463;-0,47;0,19;0,86;-0,19;-0,05;0,10;-0,09;-0,11;-0,09;0,00
1.469;-0,47;0,19;0,86;-0,19;-0,05;0,10;0,02;-0,12;-0,05;0,00
1.485;-0,46;0,20;0,86;-0,19;-0,05;0,10;0,02;-0,12;-0,05;0,00
1.529;-0,46;0,20;0,86;-0,08;0,22;0,10;0,02;-0,12;-0,05;0,00
1.531;-0,45;0,19;0,87;-0,08;0,22;0,10;0,02;-0,12;-0,05;0,00
1.531;-0,44;0,19;0,88;-0,08;0,22;0,10;0,02;-0,12;-0,05;0,00
1.532;-0,44;0,19;0,87;-0,08;0,22;0,10;0,02;-0,12;-0,05;0,00
1.533;-0,44;0,19;0,87;-0,07;0,20;0,09;0,02;-0,12;-0,05;0,00
1.549;-0,44;0,19;0,87;-0,07;0,20;0,09;0,03;-0,02;-0,06;0,00
1.551;-0,45;0,20;0,86;-0,07;0,20;0,09;0,03;-0,02;-0,06;0,00
1.589;-0,45;0,20;0,86;-0,07;0,20;0,09;0,03;-0,02;-0,06;0,00
1.591;-0,45;0,20;0,86;-0,07;0,20;0,09;0,06;0,03;-0,15;0,00
1.599;-0,45;0,19;0,84;-0,07;0,20;0,09;0,06;0,03;-0,15;0,00
1.601;-0,45;0,19;0,84;0,30;0,15;0,04;0,06;0,03;-0,15;0,00
1.601;-0,45;0,19;0,84;0,29;0,14;0,04;0,06;0,03;-0,15;0,00
1.618;-0,46;0,19;0,85;0,29;0,14;0,04;0,06;0,03;-0,15;0,00
1.669;-0,46;0,19;0,85;0,21;0,19;-0,11;0,06;0,03;-0,15;0,00
1.671;-0,46;0,19;0,85;0,21;0,19;-0,11;0,03;0,04;-0,18;0,00
1.672;-0,46;0,18;0,88;0,21;0,19;-0,11;0,03;0,04;-0,18;0,00
1.673;-0,47;0,18;0,89;0,21;0,19;-0,11;0,03;0,04;-0,18;0,00
1.673;-0,48;0,18;0,89;0,21;0,19;-0,11;0,03;0,04;-0,18;0,00
1.74;-0,48;0,18;0,89;0,08;0,03;0,19;0,03;0,04;-0,18;0,00
1.744;-0,48;0,18;0,88;0,08;0,03;0,19;0,03;0,04;-0,18;0,00
1.745;-0,49;0,17;0,86;0,08;0,03;0,19;0,03;0,04;-0,18;0,00
1.747;-0,48;0,17;0,87;0,08;0,03;0,19;0,03;0,04;-0,18;0,00
1.748;-0,48;0,17;0,87;0,10;0,05;0,18;0,03;0,04;-0,18;0,00
1.749;-0,48;0,17;0,87;0,10;0,05;0,18;0,04;0,05;-0,23;0,00
1.752;-0,48;0,16;0,89;0,10;0,05;0,18;0,04;0,05;-0,23;0,00
1.789;-0,48;0,16;0,90;0,10;0,05;0,18;0,04;0,05;-0,23;0,00
1.79;-0,48;0,16;0,90;0,10;0,05;0,18;0,01;0,00;-0,19;0,00
1.812;-0,49;0,15;0,87;0,10;0,05;0,18;0,01;0,00;-0,19;0,00
1.813;-0,50;0,17;0,82;0,10;0,05;0,18;0,01;0,00;-0,19;0,00
1.813;-0,50;0,17;0,82;-0,04;0,00;0,07;0,01;0,00;-0,19;0,00
1.813;-0,50;0,17;0,82;-0,03;0,03;0,07;0,01;0,00;-0,19;0,00
1.869;-0,47;0,17;0,82;-0,03;0,03;0,07;0,01;0,00;-0,19;0,00
1.869;-0,47;0,17;0,86;-0,03;0,03;0,07;0,01;0,00;-0,19;0,00
1.87;-0,47;0,17;0,86;-0,03;0,03;0,07;0,07;-0,01;-0,15;0,00
1.879;-0,48;0,16;0,88;-0,03;0,03;0,07;0,07;-0,01;-0,15;0,00
1.88;-0,48;0,16;0,88;-0,06;-0,06;0,04;0,07;-0,01;-0,15;0,00
1.881;-0,48;0,16;0,88;-0,04;-0,06;0,05;0,07;-0,01;-0,15;0,00
1.949;-0,48;0,16;0,88;-0,04;-0,06;0,05;0,09;0,05;-0,11;0,00
1.95;-0,47;0,17;0,87;-0,04;-0,06;0,05;0,09;0,05;-0,11;0,00
1.95;-0,46;0,18;0,85;-0,04;-0,06;0,05;0,09;0,05;-0,11;0,00
1.95;-0,44;0,17;0,86;-0,04;-0,06;0,05;0,09;0,05;-0,11;0,00
1.951;-0,44;0,16;0,89;-0,04;-0,06;0,05;0,09;0,05;-0,11;0,00
1.951;-0,44;0,16;0,89;0,12;0,02;-0,04;0,09;0,05;-0,11;0,00
1.989;-0,45;0,18;0,89;0,12;0,02;-0,04;0,09;0,05;-0,11;0,00
1.99;-0,45;0,18;0,89;0,12;0,02;-0,04;0,07;0,00;-0,14;0,00
2.018;-0,42;0,20;0,89;0,12;0,02;-0,04;0,07;0,00;-0,14;0,00
2.019;-0,43;0,21;0,88;0,12;0,02;-0,04;0,07;0,00;-0,14;0,00
2.019;-0,43;0,21;0,88;0,29;0,05;0,00;0,07;0,00;-0,14;0,00
2.02;-0,43;0,21;0,88;0,27;0,05;0,01;0,07;0,00;-0,14;0,00
2.069;-0,43;0,21;0,88;0,27;0,05;0,01;0,16;0,04;-0,28;0,00
2.07;-0,43;0,22;0,88;0,27;0,05;0,01;0,16;0,04;-0,28;0,00
2.07;-0,41;0,23;0,88;0,27;0,05;0,01;0,16;0,04;-0,28;0,00
2.084;-0,39;0,24;0,87;0,27;0,05;0,01;0,16;0,04;-0,28;0,00
2.089;-0,37;0,25;0,87;0,27;0,05;0,01;0,16;0,04;-0,28;0,00
2.09;-0,37;0,25;0,87;0,44;0,29;0,21;0,16;0,04;-0,28;0,00
2.09;-0,37;0,25;0,87;0,41;0,25;0,20;0,16;0,04;-0,28;0,00
2.15;-0,37;0,25;0,87;0,41;0,25;0,20;0,17;-0,01;-0,33;0,00
2.153;-0,36;0,26;0,88;0,41;0,25;0,20;0,17;-0,01;-0,33;0,00
2.154;-0,35;0,25;0,89;0,41;0,25;0,20;0,17;-0,01;-0,33;0,00
2.155;-0,36;0,25;0,90;0,41;0,25;0,20;0,17;-0,01;-0,33;0,00
2.163;-0,36;0,25;0,90;0,72;0,57;0,09;0,17;-0,01;-0,33;0,00
2.164;-0,36;0,25;0,90;0,68;0,52;0,10;0,17;-0,01;-0,33;0,00
2.189;-0,36;0,25;0,90;0,68;0,52;0,10;0,17;0,07;-0,39;0,00
2.191;-0,38;0,24;0,91;0,68;0,52;0,10;0,17;0,07;-0,39;0,00
2.218;-0,38;0,25;0,90;0,68;0,52;0,10;0,17;0,07;-0,39;0,00
2.219;-0,37;0,26;0,87;0,68;0,52;0,10;0,17;0,07;-0,39;0,00
2.229;-0,37;0,26;0,85;0,68;0,52;0,10;0,17;0,07;-0,39;0,00
2.231;-0,37;0,26;0,85;1,03;0,64;0,31;0,17;0,07;-0,39;0,00
2.269;-0,40;0,26;0,83;1,03;0,64;0,31;0,17;0,07;-0,39;0,00
2.27;-0,40;0,26;0,83;1,03;0,64;0,31;0,20;0,06;-0,38;0,00
2.284;-0,42;0,27;0,81;1,03;0,64;0,31;0,20;0,06;-0,38;0,00
2.3;-0,44;0,26;0,82;1,03;0,64;0,31;0,20;0,06;-0,38;0,00
2.303;-0,44;0,26;0,82;0,94;0,63;0,19;0,20;0,06;-0,38;0,00
2.304;-0,44;0,26;0,82;0,98;0,62;0,21;0,20;0,06;-0,38;0,00
2.349;-0,44;0,26;0,82;0,98;0,62;0,21;0,26;0,23;-0,30;0,00
2.351;-0,44;0,25;0,88;0,98;0,62;0,21;0,26;0,23;-0,30;0,00
2.351;-0,47;0,20;0,95;0,98;0,62;0,21;0,26;0,23;-0,30;0,00
2.352;-0,57;0,12;1,00;0,98;0,62;0,21;0,26;0,23;-0,30;0,00
2.369;-0,63;0,09;0,94;0,98;0,62;0,21;0,26;0,23;-0,30;0,00
2.371;-0,63;0,09;0,94;0,58;0,68;-0,25;0,26;0,23;-0,30;0,00
2.372;-0,63;0,09;0,94;0,68;0,65;-0,18;0,26;0,23;-0,30;0,00
2.389;-0,63;0,09;0,94;0,68;0,65;-0,18;0,10;0,09;-0,26;0,00
2.418;-0,60;0,12;0,82;0,68;0,65;-0,18;0,10;0,09;-0,26;0,00
2.42;-0,56;0,15;0,73;0,68;0,65;-0,18;0,10;0,09;-0,26;0,00
2.444;-0,58;0,15;0,73;0,68;0,65;-0,18;0,10;0,09;-0,26;0,00
2.445;-0,58;0,15;0,73;-0,45;-0,38;1,10;0,10;0,09;-0,26;0,00
2.445;-0,58;0,15;0,73;-0,44;-0,35;1,07;0,10;0,09;-0,26;0,00
2.469;-0,58;0,15;0,73;-0,44;-0,35;1,07;0,19;-0,03;-0,36;0,00
2.47;-0,62;0,14;0,76;-0,44;-0,35;1,07;0,19;-0,03;-0,36;0,00
2.484;-0,62;0,13;0,80;-0,44;-0,35;1,07;0,19;-0,03;-0,36;0,00
2.51;-0,62;0,13;0,80;-0,82;-0,47;-0,82;0,19;-0,03;-0,36;0,00
2.512;-0,62;0,12;0,82;-0,82;-0,47;-0,82;0,19;-0,03;-0,36;0,00
2.513;-0,64;0,11;0,80;-0,82;-0,47;-0,82;0,19;-0,03;-0,36;0,00
2.549;-0,61;0,09;0,77;-0,82;-0,47;-0,82;0,19;-0,03;-0,36;0,00
2.55;-0,61;0,09;0,77;-0,82;-0,47;-0,82;0,28;0,03;-0,25;0,00
2.55;-0,65;0,10;0,78;-0,82;-0,47;-0,82;0,28;0,03;-0,25;0,00
2.579;-0,65;0,10;0,78;-1,15;-0,68;-0,36;0,28;0,03;-0,25;0,00
2.58;-0,68;0,12;0,78;-1,15;-0,68;-0,36;0,28;0,03;-0,25;0,00
2.581;-0,68;0,12;0,78;-1,14;-0,67;-0,36;0,28;0,03;-0,25;0,00
2.589;-0,68;0,12;0,78;-1,14;-0,67;-0,36;0,16;-0,31;-0,46;0,00
2.617;-0,68;0,13;0,71;-1,14;-0,67;-0,36;0,16;-0,31;-0,46;0,00
2.619;-0,66;0,15;0,69;-1,14;-0,67;-0,36;0,16;-0,31;-0,46;0,00
2.65;-0,67;0,13;0,71;-1,14;-0,67;-0,36;0,16;-0,31;-0,46;0,00
2.651;-0,62;0,11;0,75;-1,14;-0,67;-0,36;0,16;-0,31;-0,46;0,00
2.652;-0,62;0,11;0,75;-1,45;-0,79;-0,73;0,16;-0,31;-0,46;0,00
2.652;-0,62;0,11;0,75;-1,49;-0,73;-0,77;0,16;-0,31;-0,46;0,00
2.669;-0,62;0,11;0,75;-1,49;-0,73;-0,77;0,07;-0,16;-0,35;0,00
2.684;-0,58;0,12;0,78;-1,49;-0,73;-0,77;0,07;-0,16;-0,35;0,00
2.719;-0,62;0,14;0,80;-1,49;-0,73;-0,77;0,07;-0,16;-0,35;0,00
2.72;-0,66;0,19;0,80;-1,49;-0,73;-0,77;0,07;-0,16;-0,35;0,00
2.721;-0,66;0,19;0,80;-1,48;-0,42;-1,26;0,07;-0,16;-0,35;0,00
2.721;-0,66;0,19;0,80;-1,49;-0,37;-1,27;0,07;-0,16;-0,35;0,00
2.749;-0,66;0,19;0,80;-1,49;-0,37;-1,27;0,11;-0,18;-0,39;0,00
2.749;-0,65;0,21;0,80;-1,49;-0,37;-1,27;0,11;-0,18;-0,39;0,00
2.75;-0,58;0,24;0,72;-1,49;-0,37;-1,27;0,11;-0,18;-0,39;0,00
2.789;-0,58;0,24;0,72;-1,49;-0,37;-1,27;0,27;-0,15;-0,21;0,00
2.79;-0,54;0,23;0,68;-1,49;-0,37;-1,27;0,27;-0,15;-0,21;0,00
2.791;-0,54;0,22;0,68;-1,49;-0,37;-1,27;0,27;-0,15;-0,21;0,00
2.791;-0,54;0,22;0,68;-1,17;-0,13;-0,45;0,27;-0,15;-0,21;0,00
2.817;-0,54;0,22;0,71;-1,17;-0,13;-0,45;0,27;-0,15;-0,21;0,00
2.859;-0,54;0,22;0,71;-0,66;0,48;-1,36;0,27;-0,15;-0,21;0,00
2.86;-0,53;0,22;0,71;-0,66;0,48;-1,36;0,27;-0,15;-0,21;0,00
2.861;-0,51;0,23;0,72;-0,66;0,48;-1,36;0,27;-0,15;-0,21;0,00
2.861;-0,51;0,23;0,72;-0,72;0,44;-1,37;0,27;-0,15;-0,21;0,00
2.869;-0,51;0,23;0,72;-0,72;0,44;-1,37;0,20;-0,20;-0,16;0,00
2.884;-0,51;0,24;0,74;-0,72;0,44;-1,37;0,20;-0,20;-0,16;0,00
2.929;-0,50;0,25;0,76;-0,72;0,44;-1,37;0,20;-0,20;-0,16;0,00
2.93;-0,51;0,25;0,77;-0,72;0,44;-1,37;0,20;-0,20;-0,16;0,00
2.931;-0,53;0,24;0,79;-0,72;0,44;-1,37;0,20;-0,20;-0,16;0,00
2.931;-0,53;0,24;0,79;-0,31;0,37;-1,26;0,20;-0,20;-0,16;0,00
2.932;-0,53;0,24;0,79;-0,31;0,32;-1,23;0,20;-0,20;-0,16;0,00
2.949;-0,53;0,24;0,79;-0,31;0,32;-1,23;0,29;-0,07;-0,27;0,00
2.951;-0,56;0,22;0,82;-0,31;0,32;-1,23;0,29;-0,07;-0,27;0,00
2.989;-0,56;0,22;0,82;-0,31;0,32;-1,23;0,48;-0,13;-0,26;0,00
2.99;-0,57;0,23;0,82;-0,31;0,32;-1,23;0,48;-0,13;-0,26;0,00
2.999;-0,57;0,23;0,82;-0,20;0,45;-0,65;0,48;-0,13;-0,26;0,00
3.0;-0,57;0,23;0,82;-0,22;0,32;-0,62;0,48;-0,13;-0,26;0,00
3.001;-0,56;0,26;0,82;-0,22;0,32;-0,62;0,48;-0,13;-0,26;0,00
3.017;-0,55;0,26;0,85;-0,22;0,32;-0,62;0,48;-0,13;-0,26;0,00
3.069;-0,55;0,26;0,85;-0,22;0,32;-0,62;0,53;-0,25;-0,25;0,00
3.07;-0,54;0,24;0,92;-0,22;0,32;-0,62;0,53;-0,25;-0,25;0,00
3.07;-0,54;0,20;0,97;-0,22;0,32;-0,62;0,53;-0,25;-0,25;0,00
3.071;-0,57;0,15;0,97;-0,22;0,32;-0,62;0,53;-0,25;-0,25;0,00
3.071;-0,57;0,15;0,97;-0,76;0,16;-0,16;0,53;-0,25;-0,25;0,00
3.139;-0,57;0,15;0,97;-0,70;-0,29;0,99;0,53;-0,25;-0,25;0,00
3.14;-0,56;0,12;0,96;-0,70;-0,29;0,99;0,53;-0,25;-0,25;0,00
3.141;-0,53;0,10;0,97;-0,70;-0,29;0,99;0,53;-0,25;-0,25;0,00
3.141;-0,48;0,09;0,99;-0,70;-0,29;0,99;0,53;-0,25;-0,25;0,00
3.142;-0,48;0,09;0,99;-0,70;-0,32;0,98;0,53;-0,25;-0,25;0,00
3.149;-0,48;0,09;0,99;-0,70;-0,32;0,98;0,30;-0,14;-0,38;0,00
3.15;-0,49;0,06;1,01;-0,70;-0,32;0,98;0,30;-0,14;-0,38;0,00
3.189;-0,48;0,05;1,00;-0,70;-0,32;0,98;0,30;-0,14;-0,38;0,00
3.19;-0,48;0,05;1,00;-0,70;-0,32;0,98;0,06;-0,19;-0,26;0,00
3.209;-0,45;0,08;0,96;-0,70;-0,32;0,98;0,06;-0,19;-0,26;0,00
3.21;-0,43;0,08;0,92;-0,70;-0,32;0,98;0,06;-0,19;-0,26;0,00
3.211;-0,43;0,08;0,92;-0,37;-1,35;1,32;0,06;-0,19;-0,26;0,00
3.212;-0,43;0,08;0,92;-0,41;-1,29;1,26;0,06;-0,19;-0,26;0,00
3.269;-0,43;0,08;0,92;-0,41;-1,29;1,26;-0,04;-0,34;-0,34;0,00
3.27;-0,42;0,10;0,88;-0,41;-1,29;1,26;-0,04;-0,34;-0,34;0,00
3.27;-0,43;0,12;0,81;-0,41;-1,29;1,26;-0,04;-0,34;-0,34;0,00
3.279;-0,43;0,12;0,81;0,06;-1,46;1,06;-0,04;-0,34;-0,34;0,00
3.279;-0,39;0,14;0,76;0,06;-1,46;1,06;-0,04;-0,34;-0,34;0,00
3.28;-0,39;0,14;0,76;-0,02;-1,36;0,98;-0,04;-0,34;-0,34;0,00
3.349;-0,39;0,14;0,76;-0,02;-1,36;0,98;0,04;-0,15;-0,40;0,00
3.35;-0,37;0,15;0,73;-0,02;-1,36;0,98;0,04;-0,15;-0,40;0,00
3.351;-0,37;0,17;0,72;-0,02;-1,36;0,98;0,04;-0,15;-0,40;0,00
3.352;-0,37;0,17;0,76;-0,02;-1,36;0,98;0,04;-0,15;-0,40;0,00
3.354;-0,38;0,16;0,81;-0,02;-1,36;0,98;0,04;-0,15;-0,40;0,00
3.354;-0,38;0,16;0,81;0,44;-0,76;-0,59;0,04;-0,15;-0,40;0,00
3.389;-0,38;0,16;0,81;0,44;-0,76;-0,59;-0,04;-0,20;-0,29;0,00
3.39;-0,40;0,14;0,83;0,44;-0,76;-0,59;-0,04;-0,20;-0,29;0,00
3.417;-0,41;0,15;0,83;0,44;-0,76;-0,59;-0,04;-0,20;-0,29;0,00
3.419;-0,39;0,17;0,82;0,44;-0,76;-0,59;-0,04;-0,20;-0,29;0,00
3.42;-0,39;0,17;0,82;0,78;-0,33;-1,05;-0,04;-0,20;-0,29;0,00
3.42;-0,39;0,17;0,82;0,71;-0,25;-1,08;-0,04;-0,20;-0,29;0,00
3.469;-0,39;0,17;0,82;0,71;-0,25;-1,08;-0,20;-0,16;-0,19;0,00
3.47;-0,38;0,16;0,81;0,71;-0,25;-1,08;-0,20;-0,16;-0,19;0,00
3.47;-0,39;0,19;0,82;0,71;-0,25;-1,08;-0,20;-0,16;-0,19;0,00
3.484;-0,40;0,21;0,88;0,71;-0,25;-1,08;-0,20;-0,16;-0,19;0,00
3.489;-0,40;0,22;0,92;0,71;-0,25;-1,08;-0,20;-0,16;-0,19;0,00
3.49;-0,40;0,22;0,92;0,42;-0,23;-0,47;-0,20;-0,16;-0,19;0,00
3.49;-0,40;0,22;0,92;0,40;-0,11;-0,49;-0,20;-0,16;-0,19;0,00
3.549;-0,40;0,25;0,89;0,40;-0,11;-0,49;-0,20;-0,16;-0,19;0,00
3.55;-0,40;0,27;0,88;0,40;-0,11;-0,49;-0,20;-0,16;-0,19;0,00
3.55;-0,40;0,27;0,88;0,40;-0,11;-0,49;-0,31;0,04;-0,25;0,00
3.551;-0,38;0,30;0,85;0,40;-0,11;-0,49;-0,31;0,04;-0,25;0,00
3.562;-0,38;0,30;0,85;0,44;0,47;-0,13;-0,31;0,04;-0,25;0,00
3.564;-0,38;0,30;0,85;0,44;0,62;-0,15;-0,31;0,04;-0,25;0,00
3.589;-0,38;0,30;0,85;0,44;0,62;-0,15;-0,26;-0,01;-0,40;0,00
3.59;-0,40;0,33;0,77;0,44;0,62;-0,15;-0,26;-0,01;-0,40;0,00
3.621;-0,41;0,30;0,80;0,44;0,62;-0,15;-0,26;-0,01;-0,40;0,00
3.622;-0,38;0,28;0,85;0,44;0,62;-0,15;-0,26;-0,01;-0,40;0,00
3.638;-0,38;0,28;0,85;0,47;1,55;-0,23;-0,26;-0,01;-0,40;0,00
3.639;-0,40;0,28;0,91;0,47;1,55;-0,23;-0,26;-0,01;-0,40;0,00
3.669;-0,40;0,28;0,91;0,47;1,55;-0,23;-0,24;0,27;-0,41;0,00
3.67;-0,45;0,28;0,96;0,47;1,55;-0,23;-0,24;0,27;-0,41;0,00
3.684;-0,48;0,28;0,93;0,47;1,55;-0,23;-0,24;0,27;-0,41;0,00
3.701;-0,49;0,30;0,88;0,47;1,55;-0,23;-0,24;0,27;-0,41;0,00
3.704;-0,49;0,30;0,88;0,50;1,78;-0,35;-0,24;0,27;-0,41;0,00
3.705;-0,49;0,30;0,88;0,61;1,90;-0,30;-0,24;0,27;-0,41;0,00
3.749;-0,49;0,30;0,88;0,61;1,90;-0,30;-0,16;0,07;-0,46;0,00
3.75;-0,49;0,27;0,85;0,61;1,90;-0,30;-0,16;0,07;-0,46;0,00
3.751;-0,48;0,26;0,81;0,61;1,90;-0,30;-0,16;0,07;-0,46;0,00
3.751;-0,51;0,23;0,80;0,61;1,90;-0,30;-0,16;0,07;-0,46;0,00
3.769;-0,53;0,17;0,82;0,61;1,90;-0,30;-0,16;0,07;-0,46;0,00
3.77;-0,53;0,17;0,82;-0,08;1,95;0,43;-0,16;0,07;-0,46;0,00
3.771;-0,53;0,17;0,82;-0,07;2,08;0,41;-0,16;0,07;-0,46;0,00
3.789;-0,53;0,17;0,82;-0,07;2,08;0,41;-0,33;0,11;-0,39;0,00
3.818;-0,55;0,09;0,89;-0,07;2,08;0,41;-0,33;0,11;-0,39;0,00
3.821;-0,63;0,07;0,99;-0,07;2,08;0,41;-0,33;0,11;-0,39;0,00
3.84;-0,58;0,04;0,98;-0,07;2,08;0,41;-0,33;0,11;-0,39;0,00
3.842;-0,58;0,04;0,98;-0,27;1,66;-0,57;-0,33;0,11;-0,39;0,00
3.842;-0,58;0,04;0,98;-0,22;1,76;-0,54;-0,33;0,11;-0,39;0,00
3.87;-0,52;0,03;0,84;-0,22;1,76;-0,54;-0,33;0,11;-0,39;0,00
3.874;-0,52;0,03;0,84;-0,22;1,76;-0,54;-0,09;0,05;-0,08;0,00
3.888;-0,56;-0,01;0,86;-0,22;1,76;-0,54;-0,09;0,05;-0,08;0,00
3.909;-0,56;-0,01;0,86;-0,98;0,09;0,70;-0,09;0,05;-0,08;0,00
3.91;-0,57;-0,03;1,05;-0,98;0,09;0,70;-0,09;0,05;-0,08;0,00
3.91;-0,57;-0,04;1,14;-0,98;0,09;0,70;-0,09;0,05;-0,08;0,00
3.949;-0,59;-0,02;1,04;-0,98;0,09;0,70;-0,09;0,05;-0,08;0,00
3.951;-0,59;-0,02;1,04;-0,98;0,09;0,70;0,40;0,10;0,47;0,00
3.952;-0,73;0,00;0,92;-0,98;0,09;0,70;0,40;0,10;0,47;0,00
3.979;-0,73;0,03;1,05;-0,98;0,09;0,70;0,40;0,10;0,47;0,00
3.98;-0,73;0,03;1,05;-0,76;-0,90;1,15;0,40;0,10;0,47;0,00
3.98;-0,73;0,03;1,05;-0,69;-1,17;1,20;0,40;0,10;0,47;0,00
3.988;-0,73;0,03;1,05;-0,69;-1,17;1,20;0,48;0,13;0,43;0,00
4.017;-0,67;0,09;1,14;-0,69;-1,17;1,20;0,48;0,13;0,43;0,00
4.018;-0,70;0,12;1,19;-0,69;-1,17;1,20;0,48;0,13;0,43;0,00
4.049;-0,70;0,17;1,07;-0,69;-1,17;1,20;0,48;0,13;0,43;0,00
4.05;-0,65;0,26;0,91;-0,69;-1,17;1,20;0,48;0,13;0,43;0,00
4.051;-0,65;0,26;0,91;-1,82;-1,09;1,55;0,48;0,13;0,43;0,00
4.051;-0,65;0,26;0,91;-1,78;-1,24;1,56;0,48;0,13;0,43;0,00
4.069;-0,65;0,26;0,91;-1,78;-1,24;1,56;0,35;0,05;0,12;0,00
4.085;-0,61;0,31;0,84;-1,78;-1,24;1,56;0,35;0,05;0,12;0,00
4.119;-0,61;0,31;0,84;-1,74;0,21;2,03;0,35;0,05;0,12;0,00
4.12;-0,59;0,27;0,79;-1,74;0,21;2,03;0,35;0,05;0,12;0,00
4.12;-0,50;0,25;0,71;-1,74;0,21;2,03;0,35;0,05;0,12;0,00
4.121;-0,50;0,25;0,71;-1,67;0,23;2,01;0,35;0,05;0,12;0,00
4.149;-0,50;0,25;0,71;-1,67;0,23;2,01;-0,03;0,12;-0,15;0,00
4.15;-0,40;0,25;0,65;-1,67;0,23;2,01;-0,03;0,12;-0,15;0,00
4.15;-0,39;0,18;0,63;-1,67;0,23;2,01;-0,03;0,12;-0,15;0,00
4.189;-0,39;0,18;0,63;-1,67;0,23;2,01;-0,38;0,15;-0,47;0,00
4.19;-0,37;0,27;0,58;-1,67;0,23;2,01;-0,38;0,15;-0,47;0,00
4.191;-0,31;0,26;0,43;-1,67;0,23;2,01;-0,38;0,15;-0,47;0,00
4.192;-0,31;0,26;0,43;-0,29;1,43;-0,97;-0,38;0,15;-0,47;0,00
4.219;-0,27;0,33;0,34;-0,29;1,43;-0,97;-0,38;0,15;-0,47;0,00
4.259;-0,27;0,33;0,34;1,58;1,20;-2,93;-0,38;0,15;-0,47;0,00
4.26;-0,20;0,32;0,35;1,58;1,20;-2,93;-0,38;0,15;-0,47;0,00
4.26;-0,21;0,32;0,41;1,58;1,20;-2,93;-0,38;0,15;-0,47;0,00
4.261;-0,21;0,32;0,41;1,60;1,29;-2,87;-0,38;0,15;-0,47;0,00
4.269;-0,21;0,32;0,41;1,60;1,29;-2,87;0,23;0,12;-0,38;0,00
4.284;-0,23;0,34;0,50;1,60;1,29;-2,87;0,23;0,12;-0,38;0,00
4.329;-0,23;0,34;0,50;2,92;2,05;-4,42;0,23;0,12;-0,38;0,00
4.33;-0,25;0,46;0,60;2,92;2,05;-4,42;0,23;0,12;-0,38;0,00
4.33;-0,31;0,49;0,87;2,92;2,05;-4,42;0,23;0,12;-0,38;0,00
4.331;-0,45;0,37;1,30;2,92;2,05;-4,42;0,23;0,12;-0,38;0,00
4.331;-0,45;0,37;1,30;2,86;1,68;-4,30;0,23;0,12;-0,38;0,00
4.349;-0,45;0,37;1,30;2,86;1,68;-4,30;0,99;-0,04;0,11;0,00
4.351;-0,53;0,28;1,59;2,86;1,68;-4,30;0,99;-0,04;0,11;0,00
4.389;-0,54;0,28;1,66;2,86;1,68;-4,30;0,99;-0,04;0,11;0,00
4.39;-0,54;0,28;1,66;2,86;1,68;-4,30;0,98;0,11;0,15;0,00
4.399;-0,60;0,34;1,61;2,86;1,68;-4,30;0,98;0,11;0,15;0,00
4.4;-0,60;0,34;1,61;1,84;2,26;0,44;0,98;0,11;0,15;0,00
4.401;-0,60;0,34;1,61;1,86;1,89;0,55;0,98;0,11;0,15;0,00
4.418;-0,65;0,35;1,62;1,86;1,89;0,55;0,98;0,11;0,15;0,00
4.469;-0,64;0,32;1,67;1,86;1,89;0,55;0,98;0,11;0,15;0,00
4.47;-0,57;0,28;1,45;1,86;1,89;0,55;0,98;0,11;0,15;0,00
4.471;-0,57;0,28;1,45;-0,63;0,59;7,74;0,98;0,11;0,15;0,00
4.472;-0,57;0,28;1,45;-0,63;0,59;7,74;0,29;-0,22;-0,54;0,00
4.472;-0,57;0,26;1,14;-0,63;0,59;7,74;0,29;-0,22;-0,54;0,00
4.539;-0,52;0,21;0,92;-0,63;0,59;7,74;0,29;-0,22;-0,54;0,00
4.54;-0,44;0,13;0,66;-0,63;0,59;7,74;0,29;-0,22;-0,54;0,00
4.541;-0,38;0,08;0,41;-0,63;0,59;7,74;0,29;-0,22;-0,54;0,00
4.541;-0,38;0,08;0,41;-0,90;0,63;6,07;0,29;-0,22;-0,54;0,00
4.541;-0,38;0,08;0,41;-0,58;0,93;6,09;0,29;-0,22;-0,54;0,00
4.548;-0,38;0,08;0,41;-0,58;0,93;6,09;-0,16;0,64;-1,26;0,00
4.55;-0,26;-0,02;0,34;-0,58;0,93;6,09;-0,16;0,64;-1,26;0,00
4.589;-0,12;-0,10;0,27;-0,58;0,93;6,09;-0,16;0,64;-1,26;0,00
4.591;-0,12;-0,10;0,27;-0,58;0,93;6,09;0,08;0,65;-0,81;0,00
4.609;-0,08;-0,06;0,20;-0,58;0,93;6,09;0,08;0,65;-0,81;0,00
4.61;-0,15;-0,03;0,22;-0,58;0,93;6,09;0,08;0,65;-0,81;0,00
4.61;-0,15;-0,03;0,22;1,49;-0,46;-1,95;0,08;0,65;-0,81;0,00
4.611;-0,15;-0,03;0,22;1,70;-0,33;-1,77;0,08;0,65;-0,81;0,00
4.669;-0,15;-0,03;0,22;1,70;-0,33;-1,77;0,81;0,17;-0,02;0,00
4.67;-0,21;-0,05;0,22;1,70;-0,33;-1,77;0,81;0,17;-0,02;0,00
4.67;-0,22;-0,05;0,26;1,70;-0,33;-1,77;0,81;0,17;-0,02;0,00
4.679;-0,32;0,00;0,48;1,70;-0,33;-1,77;0,81;0,17;-0,02;0,00
4.679;-0,32;0,00;0,48;4,56;-2,23;-5,23;0,81;0,17;-0,02;0,00
4.68;-0,32;0,00;0,48;4,52;-2,53;-5,04;0,81;0,17;-0,02;0,00
4.75;-0,32;0,00;0,48;4,52;-2,53;-5,04;0,50;0,52;0,63;0,00
4.754;-0,66;0,01;0,94;4,52;-2,53;-5,04;0,50;0,52;0,63;0,00
4.755;-1,06;-0,00;1,40;4,52;-2,53;-5,04;0,50;0,52;0,63;0,00
4.757;-1,32;0,12;1,58;4,52;-2,53;-5,04;0,50;0,52;0,63;0,00
4.758;-1,47;0,18;1,49;4,52;-2,53;-5,04;0,50;0,52;0,63;0,00
4.76;-1,47;0,18;1,49;2,99;-2,45;-3,40;0,50;0,52;0,63;0,00
4.789;-1,38;0,29;1,14;2,99;-2,45;-3,40;0,50;0,52;0,63;0,00
4.791;-1,38;0,29;1,14;2,99;-2,45;-3,40;0,19;0,29;0,12;0,00
4.818;-0,97;0,37;0,98;2,99;-2,45;-3,40;0,19;0,29;0,12;0,00
4.818;-0,76;0,34;0,92;2,99;-2,45;-3,40;0,19;0,29;0,12;0,00
4.819;-0,76;0,34;0,92;-5,79;-1,48;6,84;0,19;0,29;0,12;0,00
4.819;-0,76;0,34;0,92;-5,64;-1,53;6,80;0,19;0,29;0,12;0,00
4.87;-0,76;0,34;0,92;-5,64;-1,53;6,80;-0,37;-0,03;-0,68;0,00
4.871;-0,76;0,31;0,96;-5,64;-1,53;6,80;-0,37;-0,03;-0,68;0,00
4.871;-0,66;0,27;0,83;-5,64;-1,53;6,80;-0,37;-0,03;-0,68;0,00
4.886;-0,48;0,29;0,61;-5,64;-1,53;6,80;-0,37;-0,03;-0,68;0,00
4.889;-0,48;0,29;0,61;-3,42;1,08;2,59;-0,37;-0,03;-0,68;0,00
4.89;-0,48;0,29;0,61;-3,32;1,45;2,47;-0,37;-0,03;-0,68;0,00
4.891;-0,32;0,31;0,50;-3,32;1,45;2,47;-0,37;-0,03;-0,68;0,00
4.949;-0,32;0,31;0,50;-3,32;1,45;2,47;-0,95;-0,08;-0,21;0,00
4.95;-0,36;0,33;0,43;-3,32;1,45;2,47;-0,95;-0,08;-0,21;0,00
4.95;-0,45;0,35;0,34;-3,32;1,45;2,47;-0,95;-0,08;-0,21;0,00
4.951;-0,40;0,33;0,23;-3,32;1,45;2,47;-0,95;-0,08;-0,21;0,00
4.959;-0,40;0,33;0,23;1,29;1,37;-0,66;-0,95;-0,08;-0,21;0,00
4.96;-0,40;0,33;0,23;1,12;1,56;-0,81;-0,95;-0,08;-0,21;0,00
4.989;-0,40;0,33;0,23;1,12;1,56;-0,81;-0,07;-0,47;0,37;0,00
4.989;-0,31;0,33;0,21;1,12;1,56;-0,81;-0,07;-0,47;0,37;0,00
5.017;-0,23;0,33;0,23;1,12;1,56;-0,81;-0,07;-0,47;0,37;0,00
5.018;-0,26;0,36;0,31;1,12;1,56;-0,81;-0,07;-0,47;0,37;0,00
5.029;-0,23;0,36;0,47;1,12;1,56;-0,81;-0,07;-0,47;0,37;0,00
5.03;-0,23;0,36;0,47;2,18;1,81;-4,53;-0,07;-0,47;0,37;0,00
5.069;-0,24;0,37;0,66;2,18;1,81;-4,53;-0,07;-0,47;0,37;0,00
5.069;-0,24;0,37;0,66;2,18;1,81;-4,53;0,97;-0,24;0,98;0,00
5.084;-0,32;0,49;0,98;2,18;1,81;-4,53;0,97;-0,24;0,98;0,00
5.099;-0,32;0,49;0,98;3,53;1,45;-4,41;0,97;-0,24;0,98;0,00
5.1;-0,57;0,33;1,45;3,53;1,45;-4,41;0,97;-0,24;0,98;0,00
5.1;-0,57;0,33;1,45;3,25;0,80;-4,32;0,97;-0,24;0,98;0,00
5.149;-0,57;0,33;1,45;3,25;0,80;-4,32;1,08;-0,64;1,21;0,00
5.15;-0,71;0,08;1,64;3,25;0,80;-4,32;1,08;-0,64;1,21;0,00
5.15;-0,73;0,34;1,60;3,25;0,80;-4,32;1,08;-0,64;1,21;0,00
5.15;-0,81;0,32;1,60;3,25;0,80;-4,32;1,08;-0,64;1,21;0,00
5.169;-0,78;0,20;1,55;3,25;0,80;-4,32;1,08;-0,64;1,21;0,00
5.169;-0,78;0,20;1,55;1,13;0,18;3,48;1,08;-0,64;1,21;0,00
5.17;-0,78;0,20;1,55;0,86;-0,11;3,37;1,08;-0,64;1,21;0,00
5.189;-0,78;0,20;1,55;0,86;-0,11;3,37;0,11;-0,66;0,02;0,00
5.217;-0,70;0,14;1,35;0,86;-0,11;3,37;0,11;-0,66;0,02;0,00
5.219;-0,67;0,12;1,05;0,86;-0,11;3,37;0,11;-0,66;0,02;0,00
5.239;-0,67;0,12;1,05;-2,66;-0,91;7,73;0,11;-0,66;0,02;0,00
5.24;-0,67;0,12;1,05;-2,56;-0,52;7,48;0,11;-0,66;0,02;0,00
5.241;-0,54;0,16;0,78;-2,56;-0,52;7,48;0,11;-0,66;0,02;0,00
5.269;-0,42;0,12;0,67;-2,56;-0,52;7,48;0,11;-0,66;0,02;0,00
5.27;-0,42;0,12;0,67;-2,56;-0,52;7,48;-0,67;-0,05;-1,15;0,00
5.284;-0,31;0,06;0,58;-2,56;-0,52;7,48;-0,67;-0,05;-1,15;0,00
5.309;-0,20;-0,01;0,49;-2,56;-0,52;7,48;-0,67;-0,05;-1,15;0,00
5.309;-0,12;-0,13;0,37;-2,56;-0,52;7,48;-0,67;-0,05;-1,15;0,00
5.31;-0,12;-0,13;0,37;-0,83;-1,18;1,64;-0,67;-0,05;-1,15;0,00
5.349;-0,12;-0,13;0,37;-0,83;-1,18;1,64;-0,36;0,45;-1,14;0,00
5.35;-0,13;-0,15;0,23;-0,83;-1,18;1,64;-0,36;0,45;-1,14;0,00
5.35;-0,21;-0,17;0,17;-0,83;-1,18;1,64;-0,36;0,45;-1,14;0,00
5.38;-0,21;-0,17;0,17;3,08;-2,19;-3,18;-0,36;0,45;-1,14;0,00
5.381;-0,22;-0,15;0,27;3,08;-2,19;-3,18;-0,36;0,45;-1,14;0,00
5.381;-0,22;-0,15;0,27;3,21;-2,01;-3,04;-0,36;0,45;-1,14;0,00
5.389;-0,22;-0,15;0,27;3,21;-2,01;-3,04;0,44;-0,08;-0,71;0,00
5.417;-0,17;-0,18;0,33;3,21;-2,01;-3,04;0,44;-0,08;-0,71;0,00
5.418;-0,22;-0,16;0,40;3,21;-2,01;-3,04;0,44;-0,08;-0,71;0,00
5.449;-0,34;-0,14;0,64;3,21;-2,01;-3,04;0,44;-0,08;-0,71;0,00
5.45;-0,70;0,05;1,15;3,21;-2,01;-3,04;0,44;-0,08;-0,71;0,00
5.451;-0,70;0,05;1,15;3,62;-3,46;-5,53;0,44;-0,08;-0,71;0,00
5.451;-0,70;0,05;1,15;3,45;-3,60;-5,46;0,44;-0,08;-0,71;0,00
5.469;-0,70;0,05;1,15;3,45;-3,60;-5,46;0,77;-0,37;-0,09;0,00
5.484;-1,20;-0,04;1,60;3,45;-3,60;-5,46;0,77;-0,37;-0,09;0,00
5.52;-1,20;-0,04;1,60;1,38;-3,19;-1,19;0,77;-0,37;-0,09;0,00
5.521;-1,41;0,04;1,44;1,38;-3,19;-1,19;0,77;-0,37;-0,09;0,00
5.521;-1,39;0,25;1,12;1,38;-3,19;-1,19;0,77;-0,37;-0,09;0,00
5.521;-1,39;0,25;1,12;1,36;-3,21;-1,16;0,77;-0,37;-0,09;0,00
5.551;-1,17;0,43;1,14;1,36;-3,21;-1,16;0,77;-0,37;-0,09;0,00
5.552;-1,17;0,43;1,14;1,36;-3,21;-1,16;0,44;-0,10;-0,40;0,00
5.552;-1,12;0,27;1,38;1,36;-3,21;-1,16;0,44;-0,10;-0,40;0,00
5.589;-1,12;0,27;1,38;1,36;-3,21;-1,16;-0,21;-0,07;-0,99;0,00
5.59;-1,12;0,27;1,38;-7,57;-0,88;5,34;-0,21;-0,07;-0,99;0,00
5.59;-0,87;0,26;1,34;-7,57;-0,88;5,34;-0,21;-0,07;-0,99;0,00
5.591;-0,70;0,30;1,05;-7,57;-0,88;5,34;-0,21;-0,07;-0,99;0,00
5.618;-0,61;0,32;0,80;-7,57;-0,88;5,34;-0,21;-0,07;-0,99;0,00
5.66;-0,53;0,42;0,46;-7,57;-0,88;5,34;-0,21;-0,07;-0,99;0,00
5.661;-0,29;0,54;0,27;-7,57;-0,88;5,34;-0,21;-0,07;-0,99;0,00
5.661;-0,29;0,54;0,27;-3,69;1,04;4,31;-0,21;-0,07;-0,99;0,00
5.661;-0,29;0,54;0,27;-3,80;1,59;4,01;-0,21;-0,07;-0,99;0,00
5.671;-0,29;0,54;0,27;-3,80;1,59;4,01;-1,05;-0,69;-1,28;0,00
5.684;-0,11;0,61;0,22;-3,80;1,59;4,01;-1,05;-0,69;-1,28;0,00
5.73;-0,13;0,57;0,30;-3,80;1,59;4,01;-1,05;-0,69;-1,28;0,00
5.731;-0,06;0,60;0,31;-3,80;1,59;4,01;-1,05;-0,69;-1,28;0,00
5.731;0,12;0,68;0,32;-3,80;1,59;4,01;-1,05;-0,69;-1,28;0,00
5.731;0,12;0,68;0,32;0,98;3,70;-3,76;-1,05;-0,69;-1,28;0,00
5.731;0,12;0,68;0,32;0,95;4,32;-3,74;-1,05;-0,69;-1,28;0,00
5.749;0,12;0,68;0,32;0,95;4,32;-3,74;-0,84;-0,14;-1,80;0,00
5.75;0,13;0,53;0,28;0,95;4,32;-3,74;-0,84;-0,14;-1,80;0,00
5.789;0,13;0,53;0,28;0,95;4,32;-3,74;1,23;0,53;-1,95;0,00
5.79;0,10;0,38;0,41;0,95;4,32;-3,74;1,23;0,53;-1,95;0,00
5.799;0,02;0,35;0,66;0,95;4,32;-3,74;1,23;0,53;-1,95;0,00
5.799;0,02;0,35;0,66;4,61;6,18;-5,34;1,23;0,53;-1,95;0,00
5.799;0,02;0,35;0,66;4,76;5,97;-5,11;1,23;0,53;-1,95;0,00
5.817;-0,20;0,22;1,15;4,76;5,97;-5,11;1,23;0,53;-1,95;0,00
5.869;-0,48;0,20;1,63;4,76;5,97;-5,11;1,23;0,53;-1,95;0,00
5.871;-0,75;0,16;1,99;4,76;5,97;-5,11;1,23;0,53;-1,95;0,00
5.872;-0,97;0,06;1,93;4,76;5,97;-5,11;1,23;0,53;-1,95;0,00
5.873;-0,97;0,06;1,93;5,64;3,36;-2,69;1,23;0,53;-1,95;0,00
5.873;-0,97;0,06;1,93;5,64;3,36;-2,69;2,90;0,05;-2,17;0,00
5.939;-0,97;0,06;1,93;-1,34;0,36;9,36;2,90;0,05;-2,17;0,00
5.94;-1,42;0,11;1,98;-1,34;0,36;9,36;2,90;0,05;-2,17;0,00
5.94;-2,19;-0,05;2,30;-1,34;0,36;9,36;2,90;0,05;-2,17;0,00
5.94;-1,55;0,04;2,28;-1,34;0,36;9,36;2,90;0,05;-2,17;0,00
5.941;-1,55;0,04;2,28;-0,93;0,10;9,51;2,90;0,05;-2,17;0,00
5.949;-1,55;0,04;2,28;-0,93;0,10;9,51;2,72;0,81;-2,90;0,00
5.951;-0,89;-0,15;1,39;-0,93;0,10;9,51;2,72;0,81;-2,90;0,00
5.989;-0,71;-0,18;0,55;-0,93;0,10;9,51;2,72;0,81;-2,90;0,00
5.99;-0,71;-0,18;0,55;-0,93;0,10;9,51;1,69;0,60;-2,50;0,00
6.009;-0,77;-0,21;0,24;-0,93;0,10;9,51;1,69;0,60;-2,50;0,00
6.01;-0,47;-0,25;-0,02;-0,93;0,10;9,51;1,69;0,60;-2,50;0,00
6.011;-0,47;-0,25;-0,02;-9,71;-1,28;12,87;1,69;0,60;-2,50;0,00
6.011;-0,47;-0,25;-0,02;-9,26;-1,12;12,87;1,69;0,60;-2,50;0,00
6.069;-0,47;-0,25;-0,02;-9,26;-1,12;12,87;0,83;1,10;-1,47;0,00
6.07;-0,05;-0,32;-0,10;-9,26;-1,12;12,87;0,83;1,10;-1,47;0,00
6.07;0,14;-0,47;-0,17;-9,26;-1,12;12,87;0,83;1,10;-1,47;0,00
6.079;0,18;-0,50;-0,24;-9,26;-1,12;12,87;0,83;1,10;-1,47;0,00
6.079;0,18;-0,50;-0,24;0,26;-2,95;-3,73;0,83;1,10;-1,47;0,00
6.08;0,18;-0,50;-0,24;0,78;-2,90;-3,16;0,83;1,10;-1,47;0,00
6.151;0,18;-0,50;-0,24;0,78;-2,90;-3,16;-0,56;0,24;0,42;0,00
6.153;0,31;-0,50;-0,35;0,78;-2,90;-3,16;-0,56;0,24;0,42;0,00
6.154;0,22;-0,51;-0,18;0,78;-2,90;-3,16;-0,56;0,24;0,42;0,00
6.156;0,05;-0,58;0,01;0,78;-2,90;-3,16;-0,56;0,24;0,42;0,00
6.157;-0,35;-0,71;0,48;0,78;-2,90;-3,16;-0,56;0,24;0,42;0,00
6.157;-0,35;-0,71;0,48;8,48;-5,06;-8,54;-0,56;0,24;0,42;0,00
6.189;-0,35;-0,71;0,48;8,48;-5,06;-8,54;-2,32;-1,19;1,27;0,00
6.19;-0,75;-0,73;0,95;8,48;-5,06;-8,54;-2,32;-1,19;1,27;0,00
6.217;-1,05;-0,65;1,21;8,48;-5,06;-8,54;-2,32;-1,19;1,27;0,00
6.218;-1,43;-1,00;1,95;8,48;-5,06;-8,54;-2,32;-1,19;1,27;0,00
6.218;-1,43;-1,00;1,95;6,98;-6,18;-6,67;-2,32;-1,19;1,27;0,00
6.219;-1,43;-1,00;1,95;6,55;-5,73;-6,86;-2,32;-1,19;1,27;0,00
6.269;-1,61;-1,20;2,07;6,55;-5,73;-6,86;-2,32;-1,19;1,27;0,00
6.27;-1,23;-0,86;1,68;6,55;-5,73;-6,86;-2,32;-1,19;1,27;0,00
6.27;-1,23;-0,86;1,68;6,55;-5,73;-6,86;-3,42;0,33;1,46;0,00
6.284;-0,80;-0,69;1,48;6,55;-5,73;-6,86;-3,42;0,33;1,46;0,00
6.289;-0,80;-0,69;1,48;-4,71;-7,85;7,38;-3,42;0,33;1,46;0,00
6.289;-0,61;-0,60;1,58;-4,71;-7,85;7,38;-3,42;0,33;1,46;0,00
6.29;-0,61;-0,60;1,58;-4,62;-6,93;7,38;-3,42;0,33;1,46;0,00
6.349;-0,56;-0,50;1,58;-4,62;-6,93;7,38;-3,42;0,33;1,46;0,00
6.35;-0,37;-0,37;1,49;-4,62;-6,93;7,38;-3,42;0,33;1,46;0,00
6.351;-0,37;-0,37;1,49;-4,62;-6,93;7,38;-3,58;-0,24;0,49;0,00
6.351;-0,30;-0,22;1,30;-4,62;-6,93;7,38;-3,58;-0,24;0,49;0,00
6.361;-0,30;-0,22;1,30;-2,97;-5,13;8,90;-3,58;-0,24;0,49;0,00
6.362;-0,30;-0,22;1,30;-2,73;-4,09;9,35;-3,58;-0,24;0,49;0,00
6.39;-0,24;0,18;1,10;-2,73;-4,09;9,35;-3,58;-0,24;0,49;0,00
6.392;-0,24;0,18;1,10;-2,73;-4,09;9,35;-3,82;-0,55;-0,02;0,00
6.418;-0,24;0,62;1,06;-2,73;-4,09;9,35;-3,82;-0,55;-0,02;0,00
6.419;-0,33;0,99;0,92;-2,73;-4,09;9,35;-3,82;-0,55;-0,02;0,00
6.43;-0,43;1,29;0,68;-2,73;-4,09;9,35;-3,82;-0,55;-0,02;0,00
6.431;-0,43;1,29;0,68;2,87;1,52;7,40;-3,82;-0,55;-0,02;0,00
6.469;-0,38;1,47;0,32;2,87;1,52;7,40;-3,82;-0,55;-0,02;0,00
6.47;-0,38;1,47;0,32;2,87;1,52;7,40;-2,39;-1,66;0,24;0,00
6.484;-0,40;1,32;0,15;2,87;1,52;7,40;-2,39;-1,66;0,24;0,00
6.499;-0,33;1,11;0,27;2,87;1,52;7,40;-2,39;-1,66;0,24;0,00
6.5;-0,33;1,11;0,27;2,94;13,65;2,62;-2,39;-1,66;0,24;0,00
6.5;-0,33;1,11;0,27;2,70;13,61;2,55;-2,39;-1,66;0,24;0,00
6.549;-0,12;0,77;0,45;2,70;13,61;2,55;-2,39;-1,66;0,24;0,00
6.55;-0,15;0,45;0,65;2,70;13,61;2,55;-2,39;-1,66;0,24;0,00
6.55;-0,15;0,45;0,65;2,70;13,61;2,55;1,50;0,40;0,67;0,00
6.551;-0,52;0,29;1,21;2,70;13,61;2,55;1,50;0,40;0,67;0,00
6.569;-1,17;-0,10;2,22;2,70;13,61;2,55;1,50;0,40;0,67;0,00
6.57;-1,17;-0,10;2,22;2,65;16,42;-3,81;1,50;0,40;0,67;0,00
6.57;-1,17;-0,10;2,22;2,88;15,12;-4,07;1,50;0,40;0,67;0,00
6.589;-1,17;-0,10;2,22;2,88;15,12;-4,07;4,53;1,39;-0,85;0,00
6.617;-1,33;-0,65;2,77;2,88;15,12;-4,07;4,53;1,39;-0,85;0,00
6.618;-1,27;-0,94;2,47;2,88;15,12;-4,07;4,53;1,39;-0,85;0,00
6.64;-1,27;-0,94;2,47;1,28;4,68;5,15;4,53;1,39;-0,85;0,00
6.641;-1,27;-0,94;2,47;1,59;4,06;5,26;4,53;1,39;-0,85;0,00
6.641;-1,12;-0,88;1,99;1,59;4,06;5,26;4,53;1,39;-0,85;0,00
6.669;-0,98;-0,72;1,56;1,59;4,06;5,26;4,53;1,39;-0,85;0,00
6.67;-0,98;-0,72;1,56;1,59;4,06;5,26;3,86;2,00;-2,40;0,00
6.684;-0,76;-0,63;1,14;1,59;4,06;5,26;3,86;2,00;-2,40;0,00
6.71;-0,76;-0,63;1,14;-4,45;-6,74;15,97;3,86;2,00;-2,40;0,00
6.712;-0,48;-0,47;0,72;-4,45;-6,74;15,97;3,86;2,00;-2,40;0,00
6.712;-0,19;-0,38;0,42;-4,45;-6,74;15,97;3,86;2,00;-2,40;0,00
6.749;-0,19;-0,38;0,42;-4,45;-6,74;15,97;1,95;3,08;-2,71;0,00
6.75;0,07;-0,34;0,32;-4,45;-6,74;15,97;1,95;3,08;-2,71;0,00
6.751;0,18;-0,25;0,31;-4,45;-6,74;15,97;1,95;3,08;-2,71;0,00
6.779;0,18;-0,25;0,31;2,67;-3,49;2,62;1,95;3,08;-2,71;0,00
6.78;0,26;-0,19;0,23;2,67;-3,49;2,62;1,95;3,08;-2,71;0,00
6.781;0,26;-0,19;0,23;3,06;-2,88;3,44;1,95;3,08;-2,71;0,00
6.788;0,26;-0,19;0,23;3,06;-2,88;3,44;1,14;2,15;-2,17;0,00
6.818;0,29;-0,17;0,18;3,06;-2,88;3,44;1,14;2,15;-2,17;0,00
6.82;0,25;-0,20;0,20;3,06;-2,88;3,44;1,14;2,15;-2,17;0,00
6.849;0,25;-0,20;0,20;10,15;0,29;-1,74;1,14;2,15;-2,17;0,00
6.852;0,19;-0,31;0,30;10,15;0,29;-1,74;1,14;2,15;-2,17;0,00
6.852;0,04;-0,35;0,33;10,15;0,29;-1,74;1,14;2,15;-2,17;0,00
6.853;0,04;-0,35;0,33;9,97;0,66;-1,48;1,14;2,15;-2,17;0,00
6.87;0,04;-0,35;0,33;9,97;0,66;-1,48;1,43;1,36;-1,57;0,00
6.884;-0,41;-0,62;0,52;9,97;0,66;-1,48;1,43;1,36;-1,57;0,00
6.919;-1,14;-1,30;0,92;9,97;0,66;-1,48;1,43;1,36;-1,57;0,00
6.92;-1,99;-1,69;0,99;9,97;0,66;-1,48;1,43;1,36;-1,57;0,00
6.92;-1,99;-1,69;0,99;9,83;0,63;-1,24;1,43;1,36;-1,57;0,00
6.921;-1,99;-1,69;0,99;9,92;0,65;-0,61;1,43;1,36;-1,57;0,00
6.949;-1,99;-1,69;0,99;9,92;0,65;-0,61;1,10;2,30;-0,62;0,00
6.951;-2,10;-1,68;0,81;9,92;0,65;-0,61;1,10;2,30;-0,62;0,00
6.951;-1,73;-1,52;0,45;9,92;0,65;-0,61;1,10;2,30;-0,62;0,00
6.989;-1,79;-1,26;0,28;9,92;0,65;-0,61;1,10;2,30;-0,62;0,00
6.989;-1,79;-1,26;0,28;9,92;0,65;-0,61;0,01;-0,48;0,05;0,00
6.99;-1,73;-0,74;-0,00;9,92;0,65;-0,61;0,01;-0,48;0,05;0,00
6.99;-1,73;-0,74;-0,00;-4,60;-8,96;5,35;0,01;-0,48;0,05;0,00
7.017;-1,44;-0,20;-0,04;-4,60;-8,96;5,35;0,01;-0,48;0,05;0,00
7.059;-1,10;0,04;-0,08;-4,60;-8,96;5,35;0,01;-0,48;0,05;0,00
7.06;-0,88;0,18;0,18;-4,60;-8,96;5,35;0,01;-0,48;0,05;0,00
7.06;-0,88;0,18;0,18;-9,06;-8,45;-0,08;0,01;-0,48;0,05;0,00
7.061;-0,88;0,18;0,18;-9,39;-8,14;-1,01;0,01;-0,48;0,05;0,00
7.07;-0,88;0,18;0,18;-9,39;-8,14;-1,01;-1,20;-3,48;-0,36;0,00
7.084;-0,77;0,13;0,42;-9,39;-8,14;-1,01;-1,20;-3,48;-0,36;0,00
7.129;-0,77;0,13;0,42;-3,38;4,63;-4,19;-1,20;-3,48;-0,36;0,00
7.131;-0,50;-0,01;0,51;-3,38;4,63;-4,19;-1,20;-3,48;-0,36;0,00
7.132;-0,28;-0,16;0,41;-3,38;4,63;-4,19;-1,20;-3,48;-0,36;0,00
7.133;-0,04;-0,07;0,37;-3,38;4,63;-4,19;-1,20;-3,48;-0,36;0,00
7.133;-0,04;-0,07;0,37;-4,17;4,90;-4,95;-1,20;-3,48;-0,36;0,00
7.149;-0,04;-0,07;0,37;-4,17;4,90;-4,95;-0,26;-2,95;-0,93;0,00
7.151;0,01;0,02;0,32;-4,17;4,90;-4,95;-0,26;-2,95;-0,93;0,00
7.189;0,06;-0,05;0,34;-4,17;4,90;-4,95;-0,26;-2,95;-0,93;0,00
7.191;0,06;-0,05;0,34;-4,17;4,90;-4,95;2,38;2,53;-0,86;0,00
7.199;0,20;-0,11;0,23;-4,17;4,90;-4,95;2,38;2,53;-0,86;0,00
7.199;0,20;-0,11;0,23;3,04;3,96;-1,59;2,38;2,53;-0,86;0,00
7.2;0,20;-0,11;0,23;3,58;3,51;-1,16;2,38;2,53;-0,86;0,00
7.217;-0,23;-0,28;0,09;3,58;3,51;-1,16;2,38;2,53;-0,86;0,00
7.269;-0,23;-0,28;0,09;3,58;3,51;-1,16;2,32;2,98;-1,15;0,00
7.27;-0,70;-0,41;0,35;3,58;3,51;-1,16;2,32;2,98;-1,15;0,00
7.271;-0,88;-0,83;1,17;3,58;3,51;-1,16;2,32;2,98;-1,15;0,00
7.271;-1,22;-0,77;1,41;3,58;3,51;-1,16;2,32;2,98;-1,15;0,00
7.272;-1,22;-0,77;1,41;7,79;3,07;-2,32;2,32;2,98;-1,15;0,00
7.339;-1,22;-0,77;1,41;-0,77;-2,29;3,86;2,32;2,98;-1,15;0,00
7.34;-1,74;-1,01;1,29;-0,77;-2,29;3,86;2,32;2,98;-1,15;0,00
7.341;-2,04;-1,15;1,13;-0,77;-2,29;3,86;2,32;2,98;-1,15;0,00
7.341;-1,94;-1,07;1,00;-0,77;-2,29;3,86;2,32;2,98;-1,15;0,00
7.342;-1,94;-1,07;1,00;-0,65;-2,13;4,10;2,32;2,98;-1,15;0,00
7.349;-1,94;-1,07;1,00;-0,65;-2,13;4,10;1,61;1,65;-1,45;0,00
7.351;-1,44;-0,82;0,35;-0,65;-2,13;4,10;1,61;1,65;-1,45;0,00
7.389;-1,15;-0,60;0,29;-0,65;-2,13;4,10;1,61;1,65;-1,45;0,00
7.39;-1,15;-0,60;0,29;-0,65;-2,13;4,10;0,13;-0,56;-1,76;0,00
7.409;-1,15;-0,60;0,29;-10,67;-5,81;5,77;0,13;-0,56;-1,76;0,00
7.414;-0,93;-0,53;0,31;-10,67;-5,81;5,77;0,13;-0,56;-1,76;0,00
7.415;-0,65;-0,31;0,36;-10,67;-5,81;5,77;0,13;-0,56;-1,76;0,00
7.416;-0,65;-0,31;0,36;-10,93;-5,22;5,49;0,13;-0,56;-1,76;0,00
7.469;-0,65;-0,31;0,36;-10,93;-5,22;5,49;-0,59;-1,70;-1,09;0,00
7.47;-0,25;-0,23;0,22;-10,93;-5,22;5,49;-0,59;-1,70;-1,09;0,00
7.471;0,07;-0,04;0,04;-10,93;-5,22;5,49;-0,59;-1,70;-1,09;0,00
7.479;0,08;0,00;0,01;-10,93;-5,22;5,49;-0,59;-1,70;-1,09;0,00
7.481;0,08;0,00;0,01;-2,85;0,47;-2,14;-0,59;-1,70;-1,09;0,00
7.481;0,08;0,00;0,01;-3,33;0,84;-2,34;-0,59;-1,70;-1,09;0,00
7.549;0,08;0,00;0,01;5,93;5,30;-4,15;-0,59;-1,70;-1,09;0,00
7.551;0,08;0,00;0,01;5,93;5,30;-4,15;-0,51;0,97;-0,49;0,00
7.552;0,08;-0,05;0,01;5,93;5,30;-4,15;-0,51;0,97;-0,49;0,00
7.553;0,22;-0,15;0,21;5,93;5,30;-4,15;-0,51;0,97;-0,49;0,00
7.553;0,13;-0,12;0,17;5,93;5,30;-4,15;-0,51;0,97;-0,49;0,00
7.554;-0,30;-0,19;0,12;5,93;5,30;-4,15;-0,51;0,97;-0,49;0,00
7.589;-0,38;-0,31;0,49;5,93;5,30;-4,15;-0,51;0,97;-0,49;0,00
7.59;-0,38;-0,31;0,49;5,93;5,30;-4,15;-0,88;1,85;0,91;0,00
7.617;-0,42;-0,74;1,15;5,93;5,30;-4,15;-0,88;1,85;0,91;0,00
7.619;-1,17;-1,22;1,48;5,93;5,30;-4,15;-0,88;1,85;0,91;0,00
7.62;-1,17;-1,22;1,48;6,60;4,61;-2,97;-0,88;1,85;0,91;0,00
7.62;-1,17;-1,22;1,48;7,07;4,41;-2,16;-0,88;1,85;0,91;0,00
7.668;-1,17;-1,22;1,48;7,07;4,41;-2,16;-0,96;1,17;0,50;0,00
7.67;-1,84;-1,35;0,60;7,07;4,41;-2,16;-0,96;1,17;0,50;0,00
7.671;-1,90;-1,40;0,96;7,07;4,41;-2,16;-0,96;1,17;0,50;0,00
7.684;-2,03;-0,98;0,65;7,07;4,41;-2,16;-0,96;1,17;0,50;0,00
7.689;-2,08;-0,55;0,32;7,07;4,41;-2,16;-0,96;1,17;0,50;0,00
7.69;-2,08;-0,55;0,32;-0,86;-2,30;6,64;-0,96;1,17;0,50;0,00
7.69;-2,08;-0,55;0,32;-0,79;-2,19;6,83;-0,96;1,17;0,50;0,00
7.749;-2,08;-0,55;0,32;-0,79;-2,19;6,83;-0,99;-1,45;0,24;0,00
7.75;-1,68;-0,32;0,47;-0,79;-2,19;6,83;-0,99;-1,45;0,24;0,00
7.75;-1,18;-0,16;0,42;-0,79;-2,19;6,83;-0,99;-1,45;0,24;0,00
7.75;-0,73;-0,27;0,30;-0,79;-2,19;6,83;-0,99;-1,45;0,24;0,00
7.761;-0,73;-0,27;0,30;-11,99;-4,25;3,16;-0,99;-1,45;0,24;0,00
7.762;-0,73;-0,27;0,30;-11,81;-4,29;2,86;-0,99;-1,45;0,24;0,00
7.789;-0,26;-0,38;0,03;-11,81;-4,29;2,86;-0,99;-1,45;0,24;0,00
7.791;-0,26;-0,38;0,03;-11,81;-4,29;2,86;-0,21;-0,65;0,62;0,00
7.818;0,22;-0,18;-0,04;-11,81;-4,29;2,86;-0,21;-0,65;0,62;0,00
7.819;0,38;-0,09;0,11;-11,81;-4,29;2,86;-0,21;-0,65;0,62;0,00
7.832;0,22;-0,02;0,20;-11,81;-4,29;2,86;-0,21;-0,65;0,62;0,00
7.833;0,22;-0,02;0,20;-2,93;3,13;0,03;-0,21;-0,65;0,62;0,00
7.869;-0,09;0,09;0,18;-2,93;3,13;0,03;-0,21;-0,65;0,62;0,00
7.87;-0,09;0,09;0,18;-2,93;3,13;0,03;0,93;-0,29;0,09;0,00
7.884;-0,22;0,02;0,25;-2,93;3,13;0,03;0,93;-0,29;0,09;0,00
7.899;-0,30;-0,17;0,20;-2,93;3,13;0,03;0,93;-0,29;0,09;0,00
7.9;-0,30;-0,17;0,20;9,63;4,21;-2,96;0,93;-0,29;0,09;0,00
7.901;-0,30;-0,17;0,20;9,46;3,95;-3,20;0,93;-0,29;0,09;0,00
7.949;-0,30;-0,17;0,20;9,46;3,95;-3,20;1,62;1,48;0,15;0,00
7.95;-0,06;-0,24;0,33;9,46;3,95;-3,20;1,62;1,48;0,15;0,00
7.95;0,02;-0,30;0,62;9,46;3,95;-3,20;1,62;1,48;0,15;0,00
7.95;-0,45;-0,71;1,52;9,46;3,95;-3,20;1,62;1,48;0,15;0,00
7.969;-1,23;-1,01;1,05;9,46;3,95;-3,20;1,62;1,48;0,15;0,00
7.97;-1,23;-1,01;1,05;5,58;4,37;-1,61;1,62;1,48;0,15;0,00
7.97;-1,23;-1,01;1,05;5,80;4,03;-1,26;1,62;1,48;0,15;0,00
7.989;-1,23;-1,01;1,05;5,80;4,03;-1,26;2,52;2,34;-1,17;0,00
8.017;-2,13;-1,01;0,79;5,80;4,03;-1,26;2,52;2,34;-1,17;0,00
8.018;-3,04;-1,15;0,46;5,80;4,03;-1,26;2,52;2,34;-1,17;0,00
8.039;-3,15;-1,51;0,75;5,80;4,03;-1,26;2,52;2,34;-1,17;0,00
8.04;-3,15;-1,51;0,75;3,09;-1,33;6,10;2,52;2,34;-1,17;0,00
8.04;-3,15;-1,51;0,75;2,99;-1,14;6,12;2,52;2,34;-1,17;0,00
8.069;-2,02;-1,22;0,30;2,99;-1,14;6,12;2,52;2,34;-1,17;0,00
8.07;-2,02;-1,22;0,30;2,99;-1,14;6,12;2,17;1,40;-1,53;0,00
8.085;-1,36;-0,82;0,22;2,99;-1,14;6,12;2,17;1,40;-1,53;0,00
8.109;-1,36;-0,82;0,22;-18,75;-6,94;2,65;2,17;1,40;-1,53;0,00
8.11;-0,93;-0,46;0,12;-18,75;-6,94;2,65;2,17;1,40;-1,53;0,00
8.11;-0,39;-0,02;0,12;-18,75;-6,94;2,65;2,17;1,40;-1,53;0,00
8.149;-0,39;-0,02;0,12;-18,75;-6,94;2,65;0,78;-0,54;-1,18;0,00
8.15;-0,07;0,17;0,17;-18,75;-6,94;2,65;0,78;-0,54;-1,18;0,00
8.151;0,19;0,29;0,28;-18,75;-6,94;2,65;0,78;-0,54;-1,18;0,00
8.179;0,32;0,22;0,25;-18,75;-6,94;2,65;0,78;-0,54;-1,18;0,00
8.18;0,32;0,22;0,25;-2,50;0,17;-2,18;0,78;-0,54;-1,18;0,00
8.18;0,32;0,22;0,25;-2,77;0,44;-2,33;0,78;-0,54;-1,18;0,00
8.188;0,32;0,22;0,25;-2,77;0,44;-2,33;0,30;0,29;-0,95;0,00
8.217;0,24;-0,04;0,32;-2,77;0,44;-2,33;0,30;0,29;-0,95;0,00
8.219;0,15;-0,24;0,34;-2,77;0,44;-2,33;0,30;0,29;-0,95;0,00
8.249;-0,05;-0,32;0,24;-2,77;0,44;-2,33;0,30;0,29;-0,95;0,00
8.249;-0,19;-0,26;0,23;-2,77;0,44;-2,33;0,30;0,29;-0,95;0,00
8.25;-0,19;-0,26;0,23;8,52;7,73;-1,47;0,30;0,29;-0,95;0,00
8.25;-0,19;-0,26;0,23;8,38;7,69;-1,30;0,30;0,29;-0,95;0,00
8.269;-0,19;-0,26;0,23;8,38;7,69;-1,30;0,02;0,91;-0,05;0,00
8.284;-0,15;-0,40;0,71;8,38;7,69;-1,30;0,02;0,91;-0,05;0,00
8.321;-0,91;-1,11;0,89;8,38;7,69;-1,30;0,02;0,91;-0,05;0,00
8.323;-0,89;-1,41;0,84;8,38;7,69;-1,30;0,02;0,91;-0,05;0,00
8.324;-0,89;-1,41;0,84;6,91;3,10;-0,58;0,02;0,91;-0,05;0,00
8.324;-0,89;-1,41;0,84;6,94;2,98;-0,36;0,02;0,91;-0,05;0,00
8.349;-0,89;-1,41;0,84;6,94;2,98;-0,36;-0,36;0,43;0,31;0,00
8.35;-1,82;-1,56;0,80;6,94;2,98;-0,36;-0,36;0,43;0,31;0,00
8.35;-1,97;-1,93;0,81;6,94;2,98;-0,36;-0,36;0,43;0,31;0,00
8.389;-1,97;-1,93;0,81;6,94;2,98;-0,36;-0,97;-1,67;-0,29;0,00
8.39;-1,64;-1,36;0,62;6,94;2,98;-0,36;-0,97;-1,67;-0,29;0,00
8.39;-1,27;-0,79;0,38;6,94;2,98;-0,36;-0,97;-1,67;-0,29;0,00
8.391;-1,27;-0,79;0,38;-0,70;-4,34;4,70;-0,97;-1,67;-0,29;0,00
8.418;-1,51;-0,69;0,56;-0,70;-4,34;4,70;-0,97;-1,67;-0,29;0,00
8.464;-1,32;-0,29;0,44;-0,70;-4,34;4,70;-0,97;-1,67;-0,29;0,00
8.465;-0,92;-0,13;0,43;-0,70;-4,34;4,70;-0,97;-1,67;-0,29;0,00
8.465;-0,92;-0,13;0,43;-9,92;-7,93;2,94;-0,97;-1,67;-0,29;0,00
8.466;-0,92;-0,13;0,43;-10,17;-7,59;2,50;-0,97;-1,67;-0,29;0,00
8.48;-0,92;-0,13;0,43;-10,17;-7,59;2,50;-0,88;-2,04;0,05;0,00
8.484;-0,54;0,05;0,39;-10,17;-7,59;2,50;-0,88;-2,04;0,05;0,00
8.53;-0,54;0,05;0,39;-5,02;3,29;0,51;-0,88;-2,04;0,05;0,00
8.532;-0,14;0,06;0,16;-5,02;3,29;0,51;-0,88;-2,04;0,05;0,00
8.532;0,11;-0,25;-0,01;-5,02;3,29;0,51;-0,88;-2,04;0,05;0,00
8.533;0,42;-0,30;-0,09;-5,02;3,29;0,51;-0,88;-2,04;0,05;0,00
8.533;0,42;-0,30;-0,09;-4,85;3,11;0,44;-0,88;-2,04;0,05;0,00
8.55;0,42;-0,30;-0,09;-4,85;3,11;0,44;0,19;-0,05;0,42;0,00
8.552;0,14;-0,24;-0,37;-4,85;3,11;0,44;0,19;-0,05;0,42;0,00
8.589;-0,12;-0,26;-0,23;-4,85;3,11;0,44;0,19;-0,05;0,42;0,00
8.59;-0,12;-0,26;-0,23;-4,85;3,11;0,44;0,10;-0,93;0,81;0,00
8.599;-0,32;-0,19;-0,13;-4,85;3,11;0,44;0,10;-0,93;0,81;0,00
8.6;-0,32;-0,19;-0,13;7,03;4,56;-3,43;0,10;-0,93;0,81;0,00
8.6;-0,32;-0,19;-0,13;6,92;4,24;-3,69;0,10;-0,93;0,81;0,00
8.617;-0,57;-0,26;0,14;6,92;4,24;-3,69;0,10;-0,93;0,81;0,00
8.671;-0,57;-0,26;0,14;6,92;4,24;-3,69;0,12;-0,54;1,29;0,00
8.672;-0,81;-0,18;0,34;6,92;4,24;-3,69;0,12;-0,54;1,29;0,00
8.673;-1,21;-0,13;0,34;6,92;4,24;-3,69;0,12;-0,54;1,29;0,00
8.673;-2,03;-0,22;0,62;6,92;4,24;-3,69;0,12;-0,54;1,29;0,00
8.674;-2,03;-0,22;0,62;4,86;2,96;-6,57;0,12;-0,54;1,29;0,00
8.739;-2,03;-0,22;0,62;-5,39;2,86;-0,67;0,12;-0,54;1,29;0,00
8.741;-2,88;-0,62;1,20;-5,39;2,86;-0,67;0,12;-0,54;1,29;0,00
8.742;-3,15;-0,84;1,44;-5,39;2,86;-0,67;0,12;-0,54;1,29;0,00
8.742;-2,67;-0,90;1,51;-5,39;2,86;-0,67;0,12;-0,54;1,29;0,00
8.743;-2,67;-0,90;1,51;-4,47;2,04;-0,04;0,12;-0,54;1,29;0,00
8.75;-2,67;-0,90;1,51;-4,47;2,04;-0,04;-0,71;1,45;3,00;0,00
8.751;-1,88;-0,89;1,27;-4,47;2,04;-0,04;-0,71;1,45;3,00;0,00
8.79;-1,03;-1,00;1,24;-4,47;2,04;-0,04;-0,71;1,45;3,00;0,00
8.792;-1,03;-1,00;1,24;-4,47;2,04;-0,04;-1,24;-4,43;2,38;0,00
8.809;-1,03;-1,00;1,24;-19,02;-4,47;9,22;-1,24;-4,43;2,38;0,00
8.811;-1,03;-1,00;1,24;-19,48;-4,88;7,54;-1,24;-4,43;2,38;0,00
8.812;-0,42;-0,99;1,18;-19,48;-4,88;7,54;-1,24;-4,43;2,38;0,00
8.813;-0,14;-0,63;0,38;-19,48;-4,88;7,54;-1,24;-4,43;2,38;0,00
8.87;-0,14;-0,63;0,38;-19,48;-4,88;7,54;0,48;-4,08;2,16;0,00
8.87;0,28;-0,51;0,01;-19,48;-4,88;7,54;0,48;-4,08;2,16;0,00
8.87;0,47;-0,25;-0,03;-19,48;-4,88;7,54;0,48;-4,08;2,16;0,00
8.879;0,36;-0,05;0,08;-19,48;-4,88;7,54;0,48;-4,08;2,16;0,00
8.879;0,36;-0,05;0,08;-0,32;-6,17;1,84;0,48;-4,08;2,16;0,00
8.879;0,36;-0,05;0,08;-0,67;-6,96;1,31;0,48;-4,08;2,16;0,00
8.95;0,36;-0,05;0,08;-0,67;-6,96;1,31;2,14;1,78;1,89;0,00
8.951;0,17;-0,07;0,22;-0,67;-6,96;1,31;2,14;1,78;1,89;0,00
8.952;0,15;-0,14;0,18;-0,67;-6,96;1,31;2,14;1,78;1,89;0,00
8.952;0,09;-0,25;0,22;-0,67;-6,96;1,31;2,14;1,78;1,89;0,00
8.952;-0,02;-0,35;0,22;-0,67;-6,96;1,31;2,14;1,78;1,89;0,00
8.953;-0,02;-0,35;0,22;10,03;-1,83;-7,25;2,14;1,78;1,89;0,00
8.99;-0,06;-0,35;0,31;10,03;-1,83;-7,25;2,14;1,78;1,89;0,00
8.992;-0,06;-0,35;0,31;10,03;-1,83;-7,25;1,63;-0,39;1,87;0,00
9.019;-0,45;-0,16;0,60;10,03;-1,83;-7,25;1,63;-0,39;1,87;0,00
9.021;-1,06;-0,21;1,23;10,03;-1,83;-7,25;1,63;-0,39;1,87;0,00
9.022;-1,06;-0,21;1,23;7,39;-2,78;-5,41;1,63;-0,39;1,87;0,00
9.023;-1,06;-0,21;1,23;7,02;-3,66;-5,41;1,63;-0,39;1,87;0,00
9.069;-1,38;-0,37;1,59;7,02;-3,66;-5,41;1,63;-0,39;1,87;0,00
9.071;-1,41;-0,17;1,32;7,02;-3,66;-5,41;1,63;-0,39;1,87;0,00
9.072;-1,41;-0,17;1,32;7,02;-3,66;-5,41;0,28;1,10;1,99;0,00
9.085;-1,41;0,11;0,75;7,02;-3,66;-5,41;0,28;1,10;1,99;0,00
9.089;-1,41;0,11;0,75;0,20;-4,72;1,10;0,28;1,10;1,99;0,00
9.09;-1,08;0,25;0,46;0,20;-4,72;1,10;0,28;1,10;1,99;0,00
9.091;-1,08;0,25;0,46;0,24;-4,97;1,24;0,28;1,10;1,99;0,00
9.15;-1,08;0,25;0,46;0,24;-4,97;1,24;-1,34;-0,26;-0,02;0,00
9.152;-0,70;0,41;0,44;0,24;-4,97;1,24;-1,34;-0,26;-0,02;0,00
9.152;-0,48;0,34;0,75;0,24;-4,97;1,24;-1,34;-0,26;-0,02;0,00
9.153;-0,53;0,02;0,93;0,24;-4,97;1,24;-1,34;-0,26;-0,02;0,00
9.161;-0,53;0,02;0,93;-6,46;-2,08;2,11;-1,34;-0,26;-0,02;0,00
9.162;-0,53;0,02;0,93;-5,97;-1,22;2,24;-1,34;-0,26;-0,02;0,00
9.19;-0,53;0,02;0,93;-5,97;-1,22;2,24;-2,49;1,11;-1,08;0,00
9.192;-0,43;-0,00;0,74;-5,97;-1,22;2,24;-2,49;1,11;-1,08;0,00
9.221;-0,38;0,28;0,19;-5,97;-1,22;2,24;-2,49;1,11;-1,08;0,00
9.222;-0,22;0,34;-0,01;-5,97;-1,22;2,24;-2,49;1,11;-1,08;0,00
9.244;-0,22;0,34;-0,01;1,83;1,85;0,25;-2,49;1,11;-1,08;0,00
9.245;-0,09;0,42;0,21;1,83;1,85;0,25;-2,49;1,11;-1,08;0,00
9.271;-0,08;0,47;0,44;1,83;1,85;0,25;-2,49;1,11;-1,08;0,00
9.271;-0,08;0,47;0,44;1,83;1,85;0,25;-1,63;1,91;-1,45;0,00
9.285;-0,07;0,43;0,48;1,83;1,85;0,25;-1,63;1,91;-1,45;0,00
9.3;-0,07;0,43;0,48;4,94;3,69;-4,45;-1,63;1,91;-1,45;0,00
9.301;0,06;0,32;0,56;4,94;3,69;-4,45;-1,63;1,91;-1,45;0,00
9.301;0,06;0,32;0,56;5,48;4,38;-3,43;-1,63;1,91;-1,45;0,00
9.354;0,06;0,32;0,56;5,48;4,38;-3,43;-0,32;3,16;-1,43;0,00
9.355;-0,52;-0,04;0,42;5,48;4,38;-3,43;-0,32;3,16;-1,43;0,00
9.356;-0,46;-0,20;0,43;5,48;4,38;-3,43;-0,32;3,16;-1,43;0,00
9.356;-0,51;-0,12;0,76;5,48;4,38;-3,43;-0,32;3,16;-1,43;0,00
9.37;-0,85;-0,75;0,90;5,48;4,38;-3,43;-0,32;3,16;-1,43;0,00
9.371;-0,85;-0,75;0,90;7,89;5,28;0,54;-0,32;3,16;-1,43;0,00
9.371;-0,85;-0,75;0,90;7,93;5,76;1,20;-0,32;3,16;-1,43;0,00
9.389;-0,85;-0,75;0,90;7,93;5,76;1,20;0,41;2,07;-1,85;0,00
9.418;-1,42;-1,24;0,95;7,93;5,76;1,20;0,41;2,07;-1,85;0,00
9.418;-1,65;-1,01;1,12;7,93;5,76;1,20;0,41;2,07;-1,85;0,00
9.439;-1,67;-1,19;0,99;7,93;5,76;1,20;0,41;2,07;-1,85;0,00
9.44;-1,67;-1,19;0,99;2,23;-0,29;3,24;0,41;2,07;-1,85;0,00
9.442;-1,67;-1,19;0,99;2,33;0,08;4,08;0,41;2,07;-1,85;0,00
9.469;-1,67;-1,19;0,99;2,33;0,08;4,08;1,67;2,55;-1,52;0,00
9.472;-1,82;-1,25;0,86;2,33;0,08;4,08;1,67;2,55;-1,52;0,00
9.485;-1,62;-1,19;0,75;2,33;0,08;4,08;1,67;2,55;-1,52;0,00
9.51;-1,18;-1,12;0,36;2,33;0,08;4,08;1,67;2,55;-1,52;0,00
9.512;-0,79;-0,84;0,08;2,33;0,08;4,08;1,67;2,55;-1,52;0,00
9.513;-0,79;-0,84;0,08;-7,16;-7,68;7,82;1,67;2,55;-1,52;0,00
9.549;-0,62;-0,57;-0,41;-7,16;-7,68;7,82;1,67;2,55;-1,52;0,00
9.55;-0,62;-0,57;-0,41;-7,16;-7,68;7,82;1,55;-1,94;-2,80;0,00
9.551;-0,51;-0,31;-0,66;-7,16;-7,68;7,82;1,55;-1,94;-2,80;0,00
9.579;-0,40;-0,12;-0,54;-7,16;-7,68;7,82;1,55;-1,94;-2,80;0,00
9.58;-0,40;-0,12;-0,54;-4,53;-5,92;1,55;1,55;-1,94;-2,80;0,00
9.581;-0,40;-0,12;-0,54;-5,22;-5,17;0,71;1,55;-1,94;-2,80;0,00
9.589;-0,40;-0,12;-0,54;-5,22;-5,17;0,71;1,12;0,31;-1,68;0,00
9.624;-0,36;-0,10;-0,33;-5,22;-5,17;0,71;1,12;0,31;-1,68;0,00
9.625;-0,38;-0,25;-0,18;-5,22;-5,17;0,71;1,12;0,31;-1,68;0,00
9.649;-0,43;-0,39;-0,18;-5,22;-5,17;0,71;1,12;0,31;-1,68;0,00
9.65;-0,52;-0,61;-0,08;-5,22;-5,17;0,71;1,12;0,31;-1,68;0,00
9.651;-0,52;-0,61;-0,08;2,35;2,65;-8,64;1,12;0,31;-1,68;0,00
9.651;-0,52;-0,61;-0,08;2,39;2,61;-8,33;1,12;0,31;-1,68;0,00
9.669;-0,52;-0,61;-0,08;2,39;2,61;-8,33;0,68;1,01;0,35;0,00
9.684;-0,66;-0,88;0,00;2,39;2,61;-8,33;0,68;1,01;0,35;0,00
9.72;-0,66;-0,88;0,00;3,30;1,41;-4,72;0,68;1,01;0,35;0,00
9.722;-0,93;-1,03;0,01;3,30;1,41;-4,72;0,68;1,01;0,35;0,00
9.722;-1,05;-1,43;0,28;3,30;1,41;-4,72;0,68;1,01;0,35;0,00
9.723;-1,05;-1,43;0,28;3,79;0,58;-4,48;0,68;1,01;0,35;0,00
9.756;-1,37;-1,54;0,60;3,79;0,58;-4,48;0,68;1,01;0,35;0,00
9.758;-1,37;-1,54;0,60;3,79;0,58;-4,48;-0,41;0,13;2,71;0,00
9.758;-1,53;-1,61;0,64;3,79;0,58;-4,48;-0,41;0,13;2,71;0,00
9.789;-1,82;-1,54;0,67;3,79;0,58;-4,48;-0,41;0,13;2,71;0,00
9.79;-1,82;-1,54;0,67;3,79;0,58;-4,48;-1,25;-2,06;2,17;0,00
9.79;-1,70;-1,38;0,85;3,79;0,58;-4,48;-1,25;-2,06;2,17;0,00
9.79;-1,70;-1,38;0,85;-0,95;-7,91;-1,51;-1,25;-2,06;2,17;0,00
9.818;-1,29;-1,13;0,85;-0,95;-7,91;-1,51;-1,25;-2,06;2,17;0,00
9.86;-0,92;-0,87;0,63;-0,95;-7,91;-1,51;-1,25;-2,06;2,17;0,00
9.861;-0,55;-0,57;0,46;-0,95;-7,91;-1,51;-1,25;-2,06;2,17;0,00
9.861;-0,55;-0,57;0,46;-7,80;-11,46;3,16;-1,25;-2,06;2,17;0,00
9.862;-0,55;-0,57;0,46;-7,57;-11,65;3,03;-1,25;-2,06;2,17;0,00
9.87;-0,55;-0,57;0,46;-7,57;-11,65;3,03;-1,51;-0,86;1,65;0,00
9.885;-0,27;-0,21;0,42;-7,57;-11,65;3,03;-1,51;-0,86;1,65;0,00
9.929;-0,27;-0,21;0,42;0,41;-4,63;1,92;-1,51;-0,86;1,65;0,00
9.931;-0,05;0,00;0,56;0,41;-4,63;1,92;-1,51;-0,86;1,65;0,00
9.931;0,06;0,08;0,65;0,41;-4,63;1,92;-1,51;-0,86;1,65;0,00
9.932;0,22;0,28;0,51;0,41;-4,63;1,92;-1,51;-0,86;1,65;0,00
9.932;0,22;0,28;0,51;0,10;-4,55;1,30;-1,51;-0,86;1,65;0,00
9.949;0,22;0,28;0,51;0,10;-4,55;1,30;-2,05;-2,68;1,01;0,00
9.951;0,30;0,53;0,45;0,10;-4,55;1,30;-2,05;-2,68;1,01;0,00
9.99;0,17;0,78;0,52;0,10;-4,55;1,30;-2,05;-2,68;1,01;0,00
9.991;0,17;0,78;0,52;0,10;-4,55;1,30;-1,65;-3,47;0,45;0,00
10.0;-0,04;0,92;0,64;0,10;-4,55;1,30;-1,65;-3,47;0,45;0,00
10.001;-0,04;0,92;0,64;7,76;4,01;-0,32;-1,65;-3,47;0,45;0,00
10.002;-0,04;0,92;0,64;6,89;4,20;-1,03;-1,65;-3,47;0,45;0,00
10.018;-0,11;0,78;0,76;6,89;4,20;-1,03;-1,65;-3,47;0,45;0,00
10.069;-0,19;0,66;0,87;6,89;4,20;-1,03;-1,65;-3,47;0,45;0,00
10.07;-0,37;0,61;1,01;6,89;4,20;-1,03;-1,65;-3,47;0,45;0,00
10.07;-0,37;0,61;1,01;6,89;4,20;-1,03;0,32;-0,77;0,71;0,00
10.07;-0,67;0,56;1,15;6,89;4,20;-1,03;0,32;-0,77;0,71;0,00
10.07;-0,67;0,56;1,15;7,23;10,56;-1,13;0,32;-0,77;0,71;0,00
10.139;-1,01;0,54;1,62;7,23;10,56;-1,13;0,32;-0,77;0,71;0,00
10.139;-1,45;0,27;2,13;7,23;10,56;-1,13;0,32;-0,77;0,71;0,00
10.139;-1,68;-0,12;2,04;7,23;10,56;-1,13;0,32;-0,77;0,71;0,00
10.139;-1,68;-0,12;2,04;2,53;8,65;2,63;0,32;-0,77;0,71;0,00
10.14;-1,68;-0,12;2,04;2,23;7,85;2,16;0,32;-0,77;0,71;0,00
10.149;-1,68;-0,12;2,04;2,23;7,85;2,16;2,28;-0,88;0,06;0,00
10.151;-1,72;-0,38;2,12;2,23;7,85;2,16;2,28;-0,88;0,06;0,00
10.189;-1,72;-0,38;2,12;2,23;7,85;2,16;2,70;0,06;-0,97;0,00
10.189;-1,35;-0,58;2,00;2,23;7,85;2,16;2,70;0,06;-0,97;0,00
10.209;-1,35;-0,58;2,00;-8,13;2,45;11,38;2,70;0,06;-0,97;0,00
10.209;-0,92;-0,72;1,44;-8,13;2,45;11,38;2,70;0,06;-0,97;0,00
10.21;-0,68;-0,60;0,89;-8,13;2,45;11,38;2,70;0,06;-0,97;0,00
10.21;-0,68;-0,60;0,89;-7,99;1,84;11,15;2,70;0,06;-0,97;0,00
10.269;-0,61;-0,50;0,49;-7,99;1,84;11,15;2,70;0,06;-0,97;0,00
10.271;-0,29;-0,42;0,16;-7,99;1,84;11,15;2,70;0,06;-0,97;0,00
10.271;-0,29;-0,42;0,16;-7,99;1,84;11,15;2,22;0,84;-1,72;0,00
10.279;-0,29;-0,42;0,16;-4,35;-5,89;7,08;2,22;0,84;-1,72;0,00
10.28;-0,29;-0,42;0,16;-3,84;-5,97;7,32;2,22;0,84;-1,72;0,00
10.281;0,03;-0,44;0,01;-3,84;-5,97;7,32;2,22;0,84;-1,72;0,00
10.35;0,23;-0,47;-0,13;-3,84;-5,97;7,32;2,22;0,84;-1,72;0,00
10.353;0,32;-0,42;-0,20;-3,84;-5,97;7,32;2,22;0,84;-1,72;0,00
10.354;0,35;-0,35;-0,16;-3,84;-5,97;7,32;2,22;0,84;-1,72;0,00
10.355;0,35;-0,35;-0,16;4,89;-4,46;-5,61;2,22;0,84;-1,72;0,00
10.356;0,40;-0,41;-0,16;4,89;-4,46;-5,61;2,22;0,84;-1,72;0,00
10.358;0,40;-0,41;-0,16;4,89;-4,46;-5,61;1,62;1,09;-1,69;0,00
10.393;0,33;-0,45;-0,05;4,89;-4,46;-5,61;1,62;1,09;-1,69;0,00
10.398;0,33;-0,45;-0,05;4,89;-4,46;-5,61;-0,18;-0,57;-1,19;0,00
10.418;0,03;-0,44;0,15;4,89;-4,46;-5,61;-0,18;-0,57;-1,19;0,00
10.419;-0,30;-0,55;0,30;4,89;-4,46;-5,61;-0,18;-0,57;-1,19;0,00
10.42;-0,30;-0,55;0,30;10,17;-3,71;-8,94;-0,18;-0,57;-1,19;0,00
10.42;-0,30;-0,55;0,30;9,79;-3,22;-8,96;-0,18;-0,57;-1,19;0,00
10.47;-0,30;-0,55;0,30;9,79;-3,22;-8,96;-2,46;0,72;0,22;0,00
10.472;-0,72;-0,79;0,41;9,79;-3,22;-8,96;-2,46;0,72;0,22;0,00
10.472;-1,18;-1,05;0,86;9,79;-3,22;-8,96;-2,46;0,72;0,22;0,00
10.485;-1,85;-1,37;1,92;9,79;-3,22;-8,96;-2,46;0,72;0,22;0,00
10.49;-1,85;-1,37;1,92;5,75;-3,66;-5,34;-2,46;0,72;0,22;0,00
10.491;-1,85;-1,37;1,92;6,02;-2,96;-4,73;-2,46;0,72;0,22;0,00
10.491;-2,12;-1,31;2,17;6,02;-2,96;-4,73;-2,46;0,72;0,22;0,00
10.549;-2,12;-1,31;2,17;6,02;-2,96;-4,73;-3,96;0,31;0,91;0,00
10.55;-1,88;-1,25;1,69;6,02;-2,96;-4,73;-3,96;0,31;0,91;0,00
10.551;-1,32;-0,81;0,94;6,02;-2,96;-4,73;-3,96;0,31;0,91;0,00
10.551;-1,02;-0,38;0,96;6,02;-2,96;-4,73;-3,96;0,31;0,91;0,00
10.559;-1,02;-0,38;0,96;-8,56;-8,60;8,44;-3,96;0,31;0,91;0,00
10.56;-1,02;-0,38;0,96;-8,42;-8,04;8,53;-3,96;0,31;0,91;0,00
10.588;-1,02;-0,38;0,96;-8,42;-8,04;8,53;-2,75;0,07;1,19;0,00
10.589;-0,90;0,12;1,36;-8,42;-8,04;8,53;-2,75;0,07;1,19;0,00
10.619;-0,61;0,47;1,28;-8,42;-8,04;8,53;-2,75;0,07;1,19;0,00
10.62;-0,38;0,64;0,90;-8,42;-8,04;8,53;-2,75;0,07;1,19;0,00
10.64;-0,36;0,72;0,47;-8,42;-8,04;8,53;-2,75;0,07;1,19;0,00
10.641;-0,36;0,72;0,47;-5,64;-2,96;6,31;-2,75;0,07;1,19;0,00
10.669;-0,36;0,72;0,47;-5,64;-2,96;6,31;-1,86;-1,19;1,21;0,00
10.669;-0,28;0,83;0,14;-5,64;-2,96;6,31;-1,86;-1,19;1,21;0,00
10.684;-0,14;0,90;0,00;-5,64;-2,96;6,31;-1,86;-1,19;1,21;0,00
10.699;-0,14;0,90;0,00;2,57;9,36;3,96;-1,86;-1,19;1,21;0,00
10.701;-0,09;0,89;-0,11;2,57;9,36;3,96;-1,86;-1,19;1,21;0,00
10.702;-0,09;0,89;-0,11;2,33;9,08;3,56;-1,86;-1,19;1,21;0,00
10.748;-0,09;0,89;-0,11;2,33;9,08;3,56;0,83;-1,51;1,35;0,00
10.749;-0,16;0,83;0,02;2,33;9,08;3,56;0,83;-1,51;1,35;0,00
10.749;-0,32;0,63;0,07;2,33;9,08;3,56;0,83;-1,51;1,35;0,00
10.75;-0,51;0,60;0,13;2,33;9,08;3,56;0,83;-1,51;1,35;0,00
10.769;-0,72;0,65;0,47;2,33;9,08;3,56;0,83;-1,51;1,35;0,00
10.769;-0,72;0,65;0,47;5,32;11,41;-6,26;0,83;-1,51;1,35;0,00
10.769;-0,72;0,65;0,47;5,23;10,34;-6,48;0,83;-1,51;1,35;0,00
10.788;-0,72;0,65;0,47;5,23;10,34;-6,48;3,30;0,33;1,13;0,00
10.817;-1,11;0,54;1,18;5,23;10,34;-6,48;3,30;0,33;1,13;0,00
10.818;-1,55;0,65;2,09;5,23;10,34;-6,48;3,30;0,33;1,13;0,00
10.839;-1,55;0,65;2,09;2,40;6,80;-4,51;3,30;0,33;1,13;0,00
10.839;-2,07;0,65;2,13;2,40;6,80;-4,51;3,30;0,33;1,13;0,00
10.839;-2,07;0,65;2,13;2,37;5,14;-4,34;3,30;0,33;1,13;0,00
10.869;-2,85;0,24;2,58;2,37;5,14;-4,34;3,30;0,33;1,13;0,00
10.87;-2,85;0,24;2,58;2,37;5,14;-4,34;4,59;1,13;1,17;0,00
10.884;-2,75;-0,35;2,51;2,37;5,14;-4,34;4,59;1,13;1,17;0,00
10.909;-2,75;-0,35;2,51;-9,41;3,12;13,12;4,59;1,13;1,17;0,00
10.91;-1,63;-0,63;1,88;-9,41;3,12;13,12;4,59;1,13;1,17;0,00
10.91;-0,79;-0,75;0,99;-9,41;3,12;13,12;4,59;1,13;1,17;0,00
10.949;-0,79;-0,75;0,99;-9,41;3,12;13,12;2,81;1,69;0,21;0,00
10.949;-0,48;-0,71;0,61;-9,41;3,12;13,12;2,81;1,69;0,21;0,00
10.95;-0,36;-0,75;0,39;-9,41;3,12;13,12;2,81;1,69;0,21;0,00
10.979;-0,36;-0,75;0,39;-10,48;-7,91;14,02;2,81;1,69;0,21;0,00
10.979;-0,36;-0,75;0,39;-10,28;-8,05;14,03;2,81;1,69;0,21;0,00
10.979;-0,15;-0,67;0,14;-10,28;-8,05;14,03;2,81;1,69;0,21;0,00
10.989;-0,15;-0,67;0,14;-10,28;-8,05;14,03;1,66;-0,12;-0,86;0,00
11.017;0,16;-0,67;-0,09;-10,28;-8,05;14,03;1,66;-0,12;-0,86;0,00
11.018;0,38;-0,61;-0,17;-10,28;-8,05;14,03;1,66;-0,12;-0,86;0,00
11.049;0,38;-0,61;-0,17;5,72;-9,98;-1,45;1,66;-0,12;-0,86;0,00
11.049;0,36;-0,54;-0,12;5,72;-9,98;-1,45;1,66;-0,12;-0,86;0,00
11.05;0,27;-0,43;-0,10;5,72;-9,98;-1,45;1,66;-0,12;-0,86;0,00
11.05;0,27;-0,43;-0,10;5,62;-9,50;-1,65;1,66;-0,12;-0,86;0,00
11.069;0,27;-0,43;-0,10;5,62;-9,50;-1,65;0,25;-1,08;-1,51;0,00
11.084;0,10;-0,36;-0,00;5,62;-9,50;-1,65;0,25;-1,08;-1,51;0,00
11.119;0,10;-0,36;-0,00;11,17;-7,22;-6,37;0,25;-1,08;-1,51;0,00
11.12;-0,07;-0,36;0,12;11,17;-7,22;-6,37;0,25;-1,08;-1,51;0,00
11.12;-0,20;-0,43;0,19;11,17;-7,22;-6,37;0,25;-1,08;-1,51;0,00
11.121;-0,20;-0,43;0,19;10,95;-6,26;-6,55;0,25;-1,08;-1,51;0,00
11.15;-0,51;-0,52;0,35;10,95;-6,26;-6,55;0,25;-1,08;-1,51;0,00
11.151;-0,51;-0,52;0,35;10,95;-6,26;-6,55;-1,96;-0,57;-1,37;0,00
11.151;-1,14;-0,46;0,53;10,95;-6,26;-6,55;-1,96;-0,57;-1,37;0,00
11.189;-1,81;-0,24;0,76;10,95;-6,26;-6,55;-1,96;-0,57;-1,37;0,00
11.19;-1,81;-0,24;0,76;10,95;-6,26;-6,55;-3,56;-0,17;0,25;0,00
11.19;-1,81;-0,24;0,76;6,53;-3,93;-4,14;-3,56;-0,17;0,25;0,00
11.191;-2,44;-0,47;2,02;6,53;-3,93;-4,14;-3,56;-0,17;0,25;0,00
11.218;-2,28;-0,29;2,05;6,53;-3,93;-4,14;-3,56;-0,17;0,25;0,00
11.262;-2,28;-0,29;2,05;-8,26;-3,28;4,35;-3,56;-0,17;0,25;0,00
11.263;-1,76;-0,21;1,48;-8,26;-3,28;4,35;-3,56;-0,17;0,25;0,00
11.263;-1,30;-0,06;1,10;-8,26;-3,28;4,35;-3,56;-0,17;0,25;0,00
11.264;-1,30;-0,06;1,10;-8,16;-2,48;4,37;-3,56;-0,17;0,25;0,00
11.279;-1,30;-0,06;1,10;-8,16;-2,48;4,37;-3,76;-0,61;0,63;0,00
11.284;-1,08;0,22;1,03;-8,16;-2,48;4,37;-3,76;-0,61;0,63;0,00
11.33;-0,83;0,36;0,99;-8,16;-2,48;4,37;-3,76;-0,61;0,63;0,00
11.331;-0,54;0,38;1,06;-8,16;-2,48;4,37;-3,76;-0,61;0,63;0,00
11.331;-0,36;0,44;0,83;-8,16;-2,48;4,37;-3,76;-0,61;0,63;0,00
11.331;-0,36;0,44;0,83;-8,78;0,69;8,74;-3,76;-0,61;0,63;0,00
11.332;-0,36;0,44;0,83;-8,52;0,78;8,79;-3,76;-0,61;0,63;0,00
11.349;-0,36;0,44;0,83;-8,52;0,78;8,79;-1,58;0,12;0,83;0,00
11.352;-0,33;0,58;0,48;-8,52;0,78;8,79;-1,58;0,12;0,83;0,00
11.39;-0,33;0,58;0,48;-8,52;0,78;8,79;-0,90;-1,57;1,11;0,00
11.391;-0,29;0,79;0,00;-8,52;0,78;8,79;-0,90;-1,57;1,11;0,00
11.4;-0,32;0,70;-0,32;-8,52;0,78;8,79;-0,90;-1,57;1,11;0,00
11.401;-0,32;0,70;-0,32;1,61;5,71;3,70;-0,90;-1,57;1,11;0,00
11.402;-0,32;0,70;-0,32;1,25;5,44;3,14;-0,90;-1,57;1,11;0,00
11.418;-0,01;0,57;-0,34;1,25;5,44;3,14;-0,90;-1,57;1,11;0,00
11.471;-0,01;0,57;-0,34;4,33;7,80;-6,80;-0,90;-1,57;1,11;0,00
11.472;-0,01;0,57;-0,34;4,33;7,80;-6,80;0,54;-1,16;0,86;0,00
11.473;0,18;0,44;-0,24;4,33;7,80;-6,80;0,54;-1,16;0,86;0,00
11.473;0,09;0,34;-0,01;4,33;7,80;-6,80;0,54;-1,16;0,86;0,00
11.474;-0,04;0,18;0,21;4,33;7,80;-6,80;0,54;-1,16;0,86;0,00
11.539;-0,04;0,18;0,21;7,64;4,20;-7,33;0,54;-1,16;0,86;0,00
11.54;-0,31;0,26;0,31;7,64;4,20;-7,33;0,54;-1,16;0,86;0,00
11.54;-0,74;0,47;0,98;7,64;4,20;-7,33;0,54;-1,16;0,86;0,00
11.541;-1,40;0,76;1,98;7,64;4,20;-7,33;0,54;-1,16;0,86;0,00
11.541;-1,40;0,76;1,98;7,41;3,66;-7,34;0,54;-1,16;0,86;0,00
11.549;-1,40;0,76;1,98;7,41;3,66;-7,34;2,55;-0,33;-0,78;0,00
11.55;-2,05;0,55;2,87;7,41;3,66;-7,34;2,55;-0,33;-0,78;0,00
11.589;-2,05;0,55;2,87;7,41;3,66;-7,34;3,32;0,49;-1,14;0,00
11.59;-2,34;0,07;3,04;7,41;3,66;-7,34;3,32;0,49;-1,14;0,00
11.609;-2,34;0,07;3,04;-2,93;4,62;5,95;3,32;0,49;-1,14;0,00
11.61;-1,85;-0,31;2,41;-2,93;4,62;5,95;3,32;0,49;-1,14;0,00
11.611;-1,35;-0,49;1,44;-2,93;4,62;5,95;3,32;0,49;-1,14;0,00
11.611;-1,35;-0,49;1,44;-2,66;3,94;6,14;3,32;0,49;-1,14;0,00
11.669;-0,92;-0,52;0,78;-2,66;3,94;6,14;3,32;0,49;-1,14;0,00
11.669;-0,65;-0,53;0,47;-2,66;3,94;6,14;3,32;0,49;-1,14;0,00
11.669;-0,65;-0,53;0,47;-2,66;3,94;6,14;2,42;0,63;-1,08;0,00
11.679;-0,25;-0,64;0,11;-2,66;3,94;6,14;2,42;0,63;-1,08;0,00
11.68;-0,25;-0,64;0,11;-11,39;-2,98;16,72;2,42;0,63;-1,08;0,00
11.68;-0,25;-0,64;0,11;-10,83;-3,14;16,90;2,42;0,63;-1,08;0,00
11.749;0,18;-0,72;-0,12;-10,83;-3,14;16,90;2,42;0,63;-1,08;0,00
11.75;0,31;-0,70;-0,20;-10,83;-3,14;16,90;2,42;0,63;-1,08;0,00
11.751;0,30;-0,66;-0,12;-10,83;-3,14;16,90;2,42;0,63;-1,08;0,00
11.752;0,30;-0,66;-0,12;-10,83;-3,14;16,90;0,94;1,35;-2,03;0,00
11.753;0,20;-0,56;-0,05;-10,83;-3,14;16,90;0,94;1,35;-2,03;0,00
11.753;0,20;-0,56;-0,05;3,22;-6,93;-2,42;0,94;1,35;-2,03;0,00
11.789;0,20;-0,44;0,18;3,22;-6,93;-2,42;0,94;1,35;-2,03;0,00
11.789;0,20;-0,44;0,18;3,22;-6,93;-2,42;-0,97;0,09;-2,86;0,00
11.817;0,05;-0,46;0,42;3,22;-6,93;-2,42;-0,97;0,09;-2,86;0,00
11.817;-0,46;-0,52;0,54;3,22;-6,93;-2,42;-0,97;0,09;-2,86;0,00
11.818;-0,46;-0,52;0,54;10,87;-6,62;-7,00;-0,97;0,09;-2,86;0,00
11.819;-0,46;-0,52;0,54;10,62;-5,29;-6,90;-0,97;0,09;-2,86;0,00
11.869;-0,46;-0,52;0,54;10,62;-5,29;-6,90;-2,55;-0,09;-0,73;0,00
11.87;-1,02;-0,36;0,71;10,62;-5,29;-6,90;-2,55;-0,09;-0,73;0,00
11.871;-1,51;-0,31;1,12;10,62;-5,29;-6,90;-2,55;-0,09;-0,73;0,00
11.884;-1,89;-0,56;1,67;10,62;-5,29;-6,90;-2,55;-0,09;-0,73;0,00
11.889;-1,93;-0,80;1,10;10,62;-5,29;-6,90;-2,55;-0,09;-0,73;0,00
11.89;-1,93;-0,80;1,10;5,97;-2,33;-1,33;-2,55;-0,09;-0,73;0,00
11.891;-1,93;-0,80;1,10;5,90;-1,82;-1,05;-2,55;-0,09;-0,73;0,00
11.949;-1,93;-0,80;1,10;5,90;-1,82;-1,05;-3,23;-1,27;1,77;0,00
11.95;-1,84;-1,01;0,63;5,90;-1,82;-1,05;-3,23;-1,27;1,77;0,00
11.95;-1,48;-0,79;0,86;5,90;-1,82;-1,05;-3,23;-1,27;1,77;0,00
11.951;-1,11;-0,51;0,85;5,90;-1,82;-1,05;-3,23;-1,27;1,77;0,00
11.96;-1,11;-0,51;0,85;-8,75;-2,19;6,60;-3,23;-1,27;1,77;0,00
11.961;-1,11;-0,51;0,85;-8,67;-2,15;6,39;-3,23;-1,27;1,77;0,00
11.989;-0,61;-0,21;0,77;-8,67;-2,15;6,39;-3,23;-1,27;1,77;0,00
11.99;-0,61;-0,21;0,77;-8,67;-2,15;6,39;-2,89;-0,45;1,27;0,00
12.023;-0,10;0,06;0,64;-8,67;-2,15;6,39;-2,89;-0,45;1,27;0,00
12.025;-0,03;0,33;0,89;-8,67;-2,15;6,39;-2,89;-0,45;1,27;0,00
12.029;-0,31;0,48;0,69;-8,67;-2,15;6,39;-2,89;-0,45;1,27;0,00
12.03;-0,31;0,48;0,69;-5,39;-3,59;2,44;-2,89;-0,45;1,27;0,00
12.069;-0,23;0,49;0,33;-5,39;-3,59;2,44;-2,89;-0,45;1,27;0,00
12.071;-0,23;0,49;0,33;-5,39;-3,59;2,44;-2,67;-0,44;-0,91;0,00
12.085;-0,16;0,40;0,04;-5,39;-3,59;2,44;-2,67;-0,44;-0,91;0,00
12.102;-0,40;0,24;-0,01;-5,39;-3,59;2,44;-2,67;-0,44;-0,91;0,00
12.105;-0,40;0,24;-0,01;6,01;6,18;2,36;-2,67;-0,44;-0,91;0,00
12.105;-0,40;0,24;-0,01;5,46;6,92;2,37;-2,67;-0,44;-0,91;0,00
12.157;-0,40;0,24;-0,01;5,46;6,92;2,37;-1,11;-1,04;-1,24;0,00
12.159;-0,34;0,19;0,02;5,46;6,92;2,37;-1,11;-1,04;-1,24;0,00
12.159;-0,52;0,00;-0,09;5,46;6,92;2,37;-1,11;-1,04;-1,24;0,00
12.16;-0,69;-0,23;-0,06;5,46;6,92;2,37;-1,11;-1,04;-1,24;0,00
12.169;-0,83;-0,22;-0,01;5,46;6,92;2,37;-1,11;-1,04;-1,24;0,00
12.169;-0,83;-0,22;-0,01;4,14;8,63;-3,80;-1,11;-1,04;-1,24;0,00
12.17;-0,83;-0,22;-0,01;3,68;8,84;-3,87;-1,11;-1,04;-1,24;0,00
12.189;-0,83;-0,22;-0,01;3,68;8,84;-3,87;0,33;0,83;-0,86;0,00
12.218;-0,89;-0,31;0,26;3,68;8,84;-3,87;0,33;0,83;-0,86;0,00
12.219;-1,15;-0,77;0,74;3,68;8,84;-3,87;0,33;0,83;-0,86;0,00
12.24;-1,72;-1,37;1,16;3,68;8,84;-3,87;0,33;0,83;-0,86;0,00
12.241;-1,72;-1,37;1,16;0,26;4,35;-5,05;0,33;0,83;-0,86;0,00
12.241;-1,72;-1,37;1,16;0,49;4,32;-4,58;0,33;0,83;-0,86;0,00
12.269;-1,80;-1,87;1,66;0,49;4,32;-4,58;0,33;0,83;-0,86;0,00
12.27;-1,80;-1,87;1,66;0,49;4,32;-4,58;0,95;2,15;-0,98;0,00
12.284;-2,04;-1,96;1,31;0,49;4,32;-4,58;0,95;2,15;-0,98;0,00
12.309;-1,73;-1,54;0,82;0,49;4,32;-4,58;0,95;2,15;-0,98;0,00
12.31;-1,56;-1,03;0,48;0,49;4,32;-4,58;0,95;2,15;-0,98;0,00
12.31;-1,56;-1,03;0,48;-6,09;-3,61;4,44;0,95;2,15;-0,98;0,00
12.349;-1,56;-1,03;0,48;-6,09;-3,61;4,44;1,65;2,13;-1,95;0,00
12.35;-1,42;-1,00;0,48;-6,09;-3,61;4,44;1,65;2,13;-1,95;0,00
12.351;-0,79;-0,70;0,26;-6,09;-3,61;4,44;1,65;2,13;-1,95;0,00
12.382;-0,36;-0,41;0,24;-6,09;-3,61;4,44;1,65;2,13;-1,95;0,00
12.384;-0,36;-0,41;0,24;-10,70;-9,51;5,93;1,65;2,13;-1,95;0,00
12.384;-0,36;-0,41;0,24;-10,76;-9,05;5,93;1,65;2,13;-1,95;0,00
12.391;-0,36;-0,41;0,24;-10,76;-9,05;5,93;0,08;1,40;-0,49;0,00
12.418;0,13;-0,17;0,13;-10,76;-9,05;5,93;0,08;1,40;-0,49;0,00
12.418;0,43;0,01;0,00;-10,76;-9,05;5,93;0,08;1,40;-0,49;0,00
12.449;0,43;0,01;0,00;-0,12;0,31;-0,42;0,08;1,40;-0,49;0,00
12.449;0,74;-0,01;-0,01;-0,12;0,31;-0,42;0,08;1,40;-0,49;0,00
12.449;0,78;-0,10;0,04;-0,12;0,31;-0,42;0,08;1,40;-0,49;0,00
12.449;0,78;-0,10;0,04;0,15;0,13;-0,17;0,08;1,40;-0,49;0,00
12.471;0,78;-0,10;0,04;0,15;0,13;-0,17;0,21;0,59;0,28;0,00
12.484;0,30;-0,28;0,23;0,15;0,13;-0,17;0,21;0,59;0,28;0,00
12.519;0,30;-0,28;0,23;12,79;5,84;-2,80;0,21;0,59;0,28;0,00
12.519;-0,15;-0,65;0,27;12,79;5,84;-2,80;0,21;0,59;0,28;0,00
12.519;-0,17;-0,60;0,11;12,79;5,84;-2,80;0,21;0,59;0,28;0,00
12.52;-0,17;-0,60;0,11;12,45;5,75;-3,03;0,21;0,59;0,28;0,00
12.549;-0,54;-0,62;0,15;12,45;5,75;-3,03;0,21;0,59;0,28;0,00
12.549;-0,54;-0,62;0,15;12,45;5,75;-3,03;-0,18;-1,14;0,19;0,00
12.551;-1,04;-1,16;0,72;12,45;5,75;-3,03;-0,18;-1,14;0,19;0,00
12.589;-1,04;-1,16;0,72;12,45;5,75;-3,03;-0,80;-0,74;1,60;0,00
12.59;-1,56;-1,70;1,10;12,45;5,75;-3,03;-0,80;-0,74;1,60;0,00
12.59;-1,56;-1,70;1,10;6,10;0,79;-1,67;-0,80;-0,74;1,60;0,00
12.591;-1,56;-1,80;0,71;6,10;0,79;-1,67;-0,80;-0,74;1,60;0,00
12.618;-1,55;-1,56;0,33;6,10;0,79;-1,67;-0,80;-0,74;1,60;0,00
12.659;-1,79;-1,27;0,25;6,10;0,79;-1,67;-0,80;-0,74;1,60;0,00
12.66;-1,71;-1,06;0,33;6,10;0,79;-1,67;-0,80;-0,74;1,60;0,00
12.66;-1,71;-1,06;0,33;-5,48;-8,27;3,92;-0,80;-0,74;1,60;0,00
12.66;-1,71;-1,06;0,33;-5,07;-8,50;3,93;-0,80;-0,74;1,60;0,00
12.67;-1,71;-1,06;0,33;-5,07;-8,50;3,93;-1,32;-0,44;1,82;0,00
12.684;-1,21;-0,65;0,38;-5,07;-8,50;3,93;-1,32;-0,44;1,82;0,00
12.729;-1,21;-0,65;0,38;-7,97;-6,75;-0,16;-1,32;-0,44;1,82;0,00
12.732;-0,90;-0,23;0,39;-7,97;-6,75;-0,16;-1,32;-0,44;1,82;0,00
12.732;-0,69;-0,01;0,50;-7,97;-6,75;-0,16;-1,32;-0,44;1,82;0,00
12.733;-0,23;0,16;0,52;-7,97;-6,75;-0,16;-1,32;-0,44;1,82;0,00
12.733;-0,23;0,16;0,52;-7,78;-6,78;-0,26;-1,32;-0,44;1,82;0,00
12.749;-0,23;0,16;0,52;-7,78;-6,78;-0,26;-3,25;-2,36;1,69;0,00
12.751;-0,15;0,31;0,30;-7,78;-6,78;-0,26;-3,25;-2,36;1,69;0,00
12.789;-0,15;0,31;0,30;-7,78;-6,78;-0,26;-1,67;-1,96;0,05;0,00
12.79;-0,06;0,38;-0,06;-7,78;-6,78;-0,26;-1,67;-1,96;0,05;0,00
12.799;0,43;0,33;-0,46;-7,78;-6,78;-0,26;-1,67;-1,96;0,05;0,00
12.799;0,43;0,33;-0,46;1,41;4,28;1,07;-1,67;-1,96;0,05;0,00
12.8;0,43;0,33;-0,46;1,08;4,44;0,73;-1,67;-1,96;0,05;0,00
12.817;-0,07;0,35;-0,59;1,08;4,44;0,73;-1,67;-1,96;0,05;0,00
12.869;-0,11;0,26;-0,28;1,08;4,44;0,73;-1,67;-1,96;0,05;0,00
12.869;-0,05;0,39;-0,05;1,08;4,44;0,73;-1,67;-1,96;0,05;0,00
12.869;-0,05;0,39;-0,05;1,08;4,44;0,73;0,20;-0,17;-1,39;0,00
12.87;-0,50;0,12;0,12;1,08;4,44;0,73;0,20;-0,17;-1,39;0,00
12.87;-0,50;0,12;0,12;7,84;9,00;-5,42;0,20;-0,17;-1,39;0,00
12.939;-0,50;0,12;0,12;4,82;8,42;-5,13;0,20;-0,17;-1,39;0,00
12.94;-0,89;-0,56;0,36;4,82;8,42;-5,13;0,20;-0,17;-1,39;0,00
12.94;-1,29;-1,65;1,28;4,82;8,42;-5,13;0,20;-0,17;-1,39;0,00
12.94;-1,60;-1,77;0,51;4,82;8,42;-5,13;0,20;-0,17;-1,39;0,00
12.94;-1,60;-1,77;0,51;4,85;8,48;-4,49;0,20;-0,17;-1,39;0,00
12.951;-1,60;-1,77;0,51;4,85;8,48;-4,49;0,72;2,65;-1,12;0,00
12.951;-1,95;-1,41;0,29;4,85;8,48;-4,49;0,72;2,65;-1,12;0,00
12.989;-1,95;-1,41;0,29;4,85;8,48;-4,49;1,16;2,64;-1,69;0,00
12.989;-1,53;-2,57;0,66;4,85;8,48;-4,49;1,16;2,64;-1,69;0,00
13.009;-1,07;-1,42;0,67;4,85;8,48;-4,49;1,16;2,64;-1,69;0,00
13.01;-1,19;-1,48;0,33;4,85;8,48;-4,49;1,16;2,64;-1,69;0,00
13.01;-1,19;-1,48;0,33;-6,88;-6,11;3,45;1,16;2,64;-1,69;0,00
13.01;-1,19;-1,48;0,33;-6,96;-5,65;3,81;1,16;2,64;-1,69;0,00
13.069;-1,19;-1,48;0,33;-6,96;-5,65;3,81;0,33;0,37;-1,77;0,00
13.069;-1,61;-0,88;0,23;-6,96;-5,65;3,81;0,33;0,37;-1,77;0,00
13.069;-1,33;-0,61;0,24;-6,96;-5,65;3,81;0,33;0,37;-1,77;0,00
13.079;-1,33;-0,61;0,24;-6,28;-10,65;2,95;0,33;0,37;-1,77;0,00
13.079;-0,66;-0,44;0,27;-6,28;-10,65;2,95;0,33;0,37;-1,77;0,00
13.079;-0,66;-0,44;0,27;-6,62;-10,11;2,88;0,33;0,37;-1,77;0,00
13.149;-0,27;-0,21;0,14;-6,62;-10,11;2,88;0,33;0,37;-1,77;0,00
13.15;0,24;-0,31;0,06;-6,62;-10,11;2,88;0,33;0,37;-1,77;0,00
13.15;0,57;-0,25;0,12;-6,62;-10,11;2,88;0,33;0,37;-1,77;0,00
13.15;0,64;-0,10;0,03;-6,62;-10,11;2,88;0,33;0,37;-1,77;0,00
13.15;0,64;-0,10;0,03;-6,62;-10,11;2,88;-0,87;-0,57;-0,77;0,00
13.151;0,64;-0,10;0,03;-4,70;2,47;0,03;-0,87;-0,57;-0,77;0,00
13.189;0,10;-0,37;-0,02;-4,70;2,47;0,03;-0,87;-0,57;-0,77;0,00
13.19;0,10;-0,37;-0,02;-4,70;2,47;0,03;-0,60;-0,05;-0,29;0,00
13.218;0,04;-0,33;0,21;-4,70;2,47;0,03;-0,60;-0,05;-0,29;0,00
13.219;-0,14;-0,13;0,11;-4,70;2,47;0,03;-0,60;-0,05;-0,29;0,00
13.219;-0,14;-0,13;0,11;9,47;6,10;-1,32;-0,60;-0,05;-0,29;0,00
13.22;-0,14;-0,13;0,11;9,22;6,10;-1,11;-0,60;-0,05;-0,29;0,00
13.272;-0,14;-0,13;0,11;9,22;6,10;-1,11;-0,60;-0,09;1,11;0,00
13.273;-0,78;-0,82;0,15;9,22;6,10;-1,11;-0,60;-0,09;1,11;0,00
13.273;0,11;-1,25;0,65;9,22;6,10;-1,11;-0,60;-0,09;1,11;0,00
13.285;-0,63;-2,00;0,28;9,22;6,10;-1,11;-0,60;-0,09;1,11;0,00
13.289;-1,32;-2,01;-0,14;9,22;6,10;-1,11;-0,60;-0,09;1,11;0,00
13.289;-1,32;-2,01;-0,14;4,02;5,29;-0,93;-0,60;-0,09;1,11;0,00
13.289;-1,32;-2,01;-0,14;4,33;4,93;-0,86;-0,60;-0,09;1,11;0,00
13.376;-1,32;-2,01;-0,14;4,33;4,93;-0,86;-0,22;1,43;0,68;0,00
13.377;-1,95;-1,70;-0,80;4,33;4,93;-0,86;-0,22;1,43;0,68;0,00
13.377;-1,96;-1,43;-0,46;4,33;4,93;-0,86;-0,22;1,43;0,68;0,00
13.377;-1,75;-1,44;-0,14;4,33;4,93;-0,86;-0,22;1,43;0,68;0,00
13.378;-1,75;-1,44;-0,14;0,46;-9,01;1,65;-0,22;1,43;0,68;0,00
13.378;-1,75;-1,44;-0,14;0,95;-9,26;1,90;-0,22;1,43;0,68;0,00
13.389;-1,75;-1,44;-0,14;0,95;-9,26;1,90;-1,58;-2,89;2,24;0,00
13.389;-1,48;-1,07;0,13;0,95;-9,26;1,90;-1,58;-2,89;2,24;0,00
13.417;-1,10;-0,65;0,26;0,95;-9,26;1,90;-1,58;-2,89;2,24;0,00
13.418;-0,73;-0,23;0,25;0,95;-9,26;1,90;-1,58;-2,89;2,24;0,00
13.43;-0,58;0,13;0,30;0,95;-9,26;1,90;-1,58;-2,89;2,24;0,00
13.43;-0,58;0,13;0,30;-10,66;-7,48;-5,11;-1,58;-2,89;2,24;0,00
13.469;-0,58;0,13;0,30;-10,66;-7,48;-5,11;-1,73;-4,31;2,12;0,00
13.47;-0,29;0,30;0,38;-10,66;-7,48;-5,11;-1,73;-4,31;2,12;0,00
13.484;-0,12;0,50;0,22;-10,66;-7,48;-5,11;-1,73;-4,31;2,12;0,00
13.499;-0,14;0,70;0,10;-10,66;-7,48;-5,11;-1,73;-4,31;2,12;0,00
13.5;-0,14;0,70;0,10;-1,12;2,92;0,24;-1,73;-4,31;2,12;0,00
13.501;-0,14;0,70;0,10;-0,96;2,40;-0,46;-1,73;-4,31;2,12;0,00
13.549;-0,14;0,70;0,10;-0,96;2,40;-0,46;0,51;-1,09;2,08;0,00
13.549;-0,15;0,69;0,22;-0,96;2,40;-0,46;0,51;-1,09;2,08;0,00
13.55;-0,23;0,46;0,40;-0,96;2,40;-0,46;0,51;-1,09;2,08;0,00
13.55;-0,31;0,23;0,59;-0,96;2,40;-0,46;0,51;-1,09;2,08;0,00
13.569;-0,56;0,22;0,79;-0,96;2,40;-0,46;0,51;-1,09;2,08;0,00
13.57;-0,56;0,22;0,79;6,24;10,23;-1,24;0,51;-1,09;2,08;0,00
13.57;-0,56;0,22;0,79;6,59;8,96;-1,56;0,51;-1,09;2,08;0,00
13.588;-0,56;0,22;0,79;6,59;8,96;-1,56;2,58;-0,51;2,72;0,00
13.617;-1,12;0,13;0,99;6,59;8,96;-1,56;2,58;-0,51;2,72;0,00
13.618;-1,67;-0,02;1,42;6,59;8,96;-1,56;2,58;-0,51;2,72;0,00
13.639;-1,90;-0,18;2,02;6,59;8,96;-1,56;2,58;-0,51;2,72;0,00
13.64;-1,90;-0,18;2,02;5,09;5,75;1,03;2,58;-0,51;2,72;0,00
13.64;-1,90;-0,18;2,02;4,87;4,17;0,31;2,58;-0,51;2,72;0,00
13.669;-1,88;-0,42;1,91;4,87;4,17;0,31;2,58;-0,51;2,72;0,00
13.669;-1,88;-0,42;1,91;4,87;4,17;0,31;3,45;-1,54;2,11;0,00
13.684;-1,86;-0,53;1,64;4,87;4,17;0,31;3,45;-1,54;2,11;0,00
13.709;-1,66;-0,53;1,47;4,87;4,17;0,31;3,45;-1,54;2,11;0,00
13.71;-1,20;-0,49;1,15;4,87;4,17;0,31;3,45;-1,54;2,11;0,00
13.71;-1,20;-0,49;1,15;-7,70;-1,29;9,49;3,45;-1,54;2,11;0,00
13.748;-0,78;-0,50;0,83;-7,70;-1,29;9,49;3,45;-1,54;2,11;0,00
13.749;-0,78;-0,50;0,83;-7,70;-1,29;9,49;3,88;-1,05;-0,44;0,00
13.75;-0,53;-0,56;0,40;-7,70;-1,29;9,49;3,88;-1,05;-0,44;0,00
13.779;-0,22;-0,59;0,02;-7,70;-1,29;9,49;3,88;-1,05;-0,44;0,00
13.779;-0,22;-0,59;0,02;-7,94;-6,23;8,46;3,88;-1,05;-0,44;0,00
13.779;-0,22;-0,59;0,02;-8,07;-6,48;8,06;3,88;-1,05;-0,44;0,00
13.793;-0,22;-0,59;0,02;-8,07;-6,48;8,06;3,00;-1,98;-2,45;0,00
13.817;0,05;-0,62;-0,28;-8,07;-6,48;8,06;3,00;-1,98;-2,45;0,00
13.819;0,13;-0,65;-0,28;-8,07;-6,48;8,06;3,00;-1,98;-2,45;0,00
13.849;0,12;-0,60;-0,21;-8,07;-6,48;8,06;3,00;-1,98;-2,45;0,00
13.849;0,14;-0,57;-0,15;-8,07;-6,48;8,06;3,00;-1,98;-2,45;0,00
13.85;0,14;-0,57;-0,15;3,06;-6,78;-3,69;3,00;-1,98;-2,45;0,00
13.85;0,14;-0,57;-0,15;3,03;-6,54;-3,63;3,00;-1,98;-2,45;0,00
13.868;0,14;-0,57;-0,15;3,03;-6,54;-3,63;1,48;-0,19;-2,02;0,00
13.884;0,08;-0,56;0,00;3,03;-6,54;-3,63;1,48;-0,19;-2,02;0,00
13.918;0,08;-0,56;0,00;8,51;-6,71;-8,82;1,48;-0,19;-2,02;0,00
13.919;-0,12;-0,52;-0,01;8,51;-6,71;-8,82;1,48;-0,19;-2,02;0,00
13.919;-0,28;-0,54;-0,05;8,51;-6,71;-8,82;1,48;-0,19;-2,02;0,00
13.919;-0,28;-0,54;-0,05;8,22;-6,04;-8,87;1,48;-0,19;-2,02;0,00
13.949;-0,28;-0,54;-0,05;8,22;-6,04;-8,87;-0,49;-0,56;-1,49;0,00
13.949;-0,57;-0,48;0,12;8,22;-6,04;-8,87;-0,49;-0,56;-1,49;0,00
13.95;-1,04;-0,35;0,39;8,22;-6,04;-8,87;-0,49;-0,56;-1,49;0,00
13.989;-1,04;-0,35;0,39;8,22;-6,04;-8,87;-2,47;1,23;0,35;0,00
13.989;-1,63;-0,50;1,30;8,22;-6,04;-8,87;-2,47;1,23;0,35;0,00
13.989;-2,40;-0,52;1,57;8,22;-6,04;-8,87;-2,47;1,23;0,35;0,00
13.989;-2,40;-0,52;1,57;5,39;-4,66;-6,46;-2,47;1,23;0,35;0,00
14.017;-2,67;-0,54;1,64;5,39;-4,66;-6,46;-2,47;1,23;0,35;0,00
14.059;-2,11;-0,58;1,41;5,39;-4,66;-6,46;-2,47;1,23;0,35;0,00
14.06;-1,59;-0,22;1,03;5,39;-4,66;-6,46;-2,47;1,23;0,35;0,00
14.06;-1,59;-0,22;1,03;-7,66;-3,36;3,39;-2,47;1,23;0,35;0,00
14.06;-1,59;-0,22;1,03;-7,28;-2,89;3,76;-2,47;1,23;0,35;0,00
14.068;-1,59;-0,22;1,03;-7,28;-2,89;3,76;-2,48;0,49;1,03;0,00
14.084;-1,12;0,05;1,01;-7,28;-2,89;3,76;-2,48;0,49;1,03;0,00
14.129;-1,12;0,05;1,01;-11,46;-2,07;7,21;-2,48;0,49;1,03;0,00
14.129;-0,59;0,23;1,16;-11,46;-2,07;7,21;-2,48;0,49;1,03;0,00
14.13;-0,14;0,46;1,19;-11,46;-2,07;7,21;-2,48;0,49;1,03;0,00
14.13;-0,04;0,68;1,01;-11,46;-2,07;7,21;-2,48;0,49;1,03;0,00
14.131;-0,04;0,68;1,01;-11,15;-2,00;7,28;-2,48;0,49;1,03;0,00
14.15;-0,04;0,68;1,01;-11,15;-2,00;7,28;-1,76;0,17;1,01;0,00
14.15;-0,26;0,78;0,48;-11,15;-2,00;7,28;-1,76;0,17;1,01;0,00
14.189;-0,30;0,84;-0,14;-11,15;-2,00;7,28;-1,76;0,17;1,01;0,00
14.189;-0,30;0,84;-0,14;-11,15;-2,00;7,28;0,06;-1,80;-0,06;0,00
14.199;-0,43;0,66;-0,68;-11,15;-2,00;7,28;0,06;-1,80;-0,06;0,00
14.199;-0,43;0,66;-0,68;4,81;5,77;5,25;0,06;-1,80;-0,06;0,00
14.199;-0,43;0,66;-0,68;4,20;5,62;4,43;0,06;-1,80;-0,06;0,00
14.218;-0,08;0,48;-0,65;4,20;5,62;4,43;0,06;-1,80;-0,06;0,00
14.269;-0,03;0,54;-0,27;4,20;5,62;4,43;0,06;-1,80;-0,06;0,00
14.269;-0,32;0,34;0,10;4,20;5,62;4,43;0,06;-1,80;-0,06;0,00
14.27;-0,32;0,34;0,10;4,20;5,62;4,43;1,05;-1,15;0,65;0,00
14.27;-0,37;0,27;0,34;4,20;5,62;4,43;1,05;-1,15;0,65;0,00
14.27;-0,37;0,27;0,34;4,17;8,07;-8,83;1,05;-1,15;0,65;0,00
14.339;-0,37;0,27;0,34;5,09;4,41;-7,18;1,05;-1,15;0,65;0,00
14.339;-0,82;0,60;0,51;5,09;4,41;-7,18;1,05;-1,15;0,65;0,00
14.34;-1,30;0,61;0,95;5,09;4,41;-7,18;1,05;-1,15;0,65;0,00
14.34;-1,67;0,68;1,72;5,09;4,41;-7,18;1,05;-1,15;0,65;0,00
14.34;-1,67;0,68;1,72;5,11;3,61;-6,96;1,05;-1,15;0,65;0,00
14.348;-1,67;0,68;1,72;5,11;3,61;-6,96;2,50;0,42;0,30;0,00
14.351;-2,14;0,44;2,44;5,11;3,61;-6,96;2,50;0,42;0,30;0,00
14.389;-2,14;0,44;2,44;5,11;3,61;-6,96;3,21;1,26;-0,03;0,00
14.389;-2,22;0,07;2,17;5,11;3,61;-6,96;3,21;1,26;-0,03;0,00
14.409;-2,22;0,07;2,17;-6,18;4,81;5,79;3,21;1,26;-0,03;0,00
14.409;-1,83;0,04;1,79;-6,18;4,81;5,79;3,21;1,26;-0,03;0,00
14.409;-1,35;-0,04;1,52;-6,18;4,81;5,79;3,21;1,26;-0,03;0,00
14.41;-1,35;-0,04;1,52;-5,72;4,00;6,33;3,21;1,26;-0,03;0,00
14.469;-1,35;-0,04;1,52;-5,72;4,00;6,33;2,29;0,44;-0,91;0,00
14.47;-0,87;-0,18;1,11;-5,72;4,00;6,33;2,29;0,44;-0,91;0,00
14.471;-0,55;-0,29;0,78;-5,72;4,00;6,33;2,29;0,44;-0,91;0,00
14.479;-0,32;-0,48;0,42;-5,72;4,00;6,33;2,29;0,44;-0,91;0,00
14.48;-0,32;-0,48;0,42;-10,07;-1,96;13,13;2,29;0,44;-0,91;0,00
14.481;-0,32;-0,48;0,42;-9,76;-1,95;13,14;2,29;0,44;-0,91;0,00
14.549;-0,32;-0,48;0,42;3,42;-5,59;1,18;2,29;0,44;-0,91;0,00
14.55;-0,12;-0,57;0,19;3,42;-5,59;1,18;2,29;0,44;-0,91;0,00
14.551;0,08;-0,60;-0,07;3,42;-5,59;1,18;2,29;0,44;-0,91;0,00
14.551;0,22;-0,59;-0,18;3,42;-5,59;1,18;2,29;0,44;-0,91;0,00
14.552;0,29;-0,56;-0,13;3,42;-5,59;1,18;2,29;0,44;-0,91;0,00
14.553;0,29;-0,56;-0,13;3,42;-5,59;1,18;1,50;-0,32;-1,73;0,00
14.589;0,21;-0,48;-0,06;3,42;-5,59;1,18;1,50;-0,32;-1,73;0,00
14.589;0,21;-0,48;-0,06;3,42;-5,59;1,18;-0,17;-0,51;-1,22;0,00
14.618;0,16;-0,37;0,06;3,42;-5,59;1,18;-0,17;-0,51;-1,22;0,00
14.619;-0,02;-0,35;0,15;3,42;-5,59;1,18;-0,17;-0,51;-1,22;0,00
14.62;-0,02;-0,35;0,15;9,94;-7,45;-6,53;-0,17;-0,51;-1,22;0,00
14.62;-0,02;-0,35;0,15;9,72;-6,85;-6,62;-0,17;-0,51;-1,22;0,00
14.673;-0,02;-0,35;0,15;9,72;-6,85;-6,62;-2,19;-0,29;-0,53;0,00
14.673;-0,28;-0,37;0,22;9,72;-6,85;-6,62;-2,19;-0,29;-0,53;0,00
14.674;-0,63;-0,40;0,13;9,72;-6,85;-6,62;-2,19;-0,29;-0,53;0,00
14.705;-1,32;-0,33;0,21;9,72;-6,85;-6,62;-2,19;-0,29;-0,53;0,00
14.705;-2,10;-0,56;1,51;9,72;-6,85;-6,62;-2,19;-0,29;-0,53;0,00
14.705;-2,10;-0,56;1,51;8,60;-4,22;-5,14;-2,19;-0,29;-0,53;0,00
14.706;-2,10;-0,56;1,51;8,46;-3,50;-5,04;-2,19;-0,29;-0,53;0,00
14.749;-2,10;-0,56;1,51;8,46;-3,50;-5,04;-4,21;0,32;1,15;0,00
14.749;-2,50;-0,56;1,75;8,46;-3,50;-5,04;-4,21;0,32;1,15;0,00
14.749;-2,53;-0,56;1,52;8,46;-3,50;-5,04;-4,21;0,32;1,15;0,00
14.75;-2,12;-0,57;1,19;8,46;-3,50;-5,04;-4,21;0,32;1,15;0,00
14.758;-2,12;-0,57;1,19;-3,88;-3,09;0,01;-4,21;0,32;1,15;0,00
14.759;-2,12;-0,57;1,19;-3,84;-2,67;0,07;-4,21;0,32;1,15;0,00
14.789;-2,12;-0,57;1,19;-3,84;-2,67;0,07;-2,72;-0,52;1,57;0,00
14.789;-1,58;-0,22;0,84;-3,84;-2,67;0,07;-2,72;-0,52;1,57;0,00
14.818;-1,15;-0,01;0,89;-3,84;-2,67;0,07;-2,72;-0,52;1,57;0,00
14.818;-0,75;0,12;0,96;-3,84;-2,67;0,07;-2,72;-0,52;1,57;0,00
14.829;-0,37;0,23;0,95;-3,84;-2,67;0,07;-2,72;-0,52;1,57;0,00
14.83;-0,37;0,23;0,95;-14,20;-3,59;8,10;-2,72;-0,52;1,57;0,00
14.869;-0,15;0,36;0,82;-14,20;-3,59;8,10;-2,72;-0,52;1,57;0,00
14.869;-0,15;0,36;0,82;-14,20;-3,59;8,10;-2,81;0,18;1,64;0,00
14.884;-0,13;0,43;0,51;-14,20;-3,59;8,10;-2,81;0,18;1,64;0,00
14.9;-0,13;0,43;0,51;0,01;2,27;3,59;-2,81;0,18;1,64;0,00
14.9;-0,11;0,48;0,08;0,01;2,27;3,59;-2,81;0,18;1,64;0,00
14.9;-0,11;0,48;0,08;0,09;2,36;3,71;-2,81;0,18;1,64;0,00
14.949;-0,11;0,48;0,08;0,09;2,36;3,71;-2,15;-1,28;1,15;0,00
14.95;0,03;0,46;-0,19;0,09;2,36;3,71;-2,15;-1,28;1,15;0,00
14.95;0,17;0,48;-0,22;0,09;2,36;3,71;-2,15;-1,28;1,15;0,00
14.951;0,10;0,48;-0,17;0,09;2,36;3,71;-2,15;-1,28;1,15;0,00
14.969;0,09;0,52;-0,06;0,09;2,36;3,71;-2,15;-1,28;1,15;0,00
14.97;0,09;0,52;-0,06;7,07;5,82;-1,84;-2,15;-1,28;1,15;0,00
14.97;0,09;0,52;-0,06;6,73;5,61;-2,15;-2,15;-1,28;1,15;0,00
14.989;0,09;0,52;-0,06;6,73;5,61;-2,15;-0,31;-0,99;1,01;0,00
15.017;0,04;0,58;0,04;6,73;5,61;-2,15;-0,31;-0,99;1,01;0,00
15.018;-0,05;0,60;0,32;6,73;5,61;-2,15;-0,31;-0,99;1,01;0,00
15.039;-0,28;0,54;0,64;6,73;5,61;-2,15;-0,31;-0,99;1,01;0,00
15.039;-0,28;0,54;0,64;8,64;5,79;-7,58;-0,31;-0,99;1,01;0,00
15.04;-0,28;0,54;0,64;8,21;5,32;-7,85;-0,31;-0,99;1,01;0,00
15.069;-0,75;0,54;0,81;8,21;5,32;-7,85;-0,31;-0,99;1,01;0,00
15.07;-0,75;0,54;0,81;8,21;5,32;-7,85;1,75;-1,08;0,20;0,00
15.084;-1,55;0,95;1,43;8,21;5,32;-7,85;1,75;-1,08;0,20;0,00
15.109;-2,32;0,83;2,43;8,21;5,32;-7,85;1,75;-1,08;0,20;0,00
15.11;-2,42;0,35;2,39;8,21;5,32;-7,85;1,75;-1,08;0,20;0,00
15.11;-2,42;0,35;2,39;5,13;5,32;-2,63;1,75;-1,08;0,20;0,00
15.148;-2,05;-0,01;2,23;5,13;5,32;-2,63;1,75;-1,08;0,20;0,00
15.149;-2,05;-0,01;2,23;5,13;5,32;-2,63;3,03;0,16;-0,12;0,00
15.15;-1,56;-0,24;1,73;5,13;5,32;-2,63;3,03;0,16;-0,12;0,00
15.179;-1,56;-0,24;1,73;-11,83;5,71;12,13;3,03;0,16;-0,12;0,00
15.179;-1,09;-0,30;1,23;-11,83;5,71;12,13;3,03;0,16;-0,12;0,00
15.18;-1,09;-0,30;1,23;-11,61;5,07;12,07;3,03;0,16;-0,12;0,00
15.189;-1,09;-0,30;1,23;-11,61;5,07;12,07;2,58;-0,11;-1,19;0,00
15.217;-0,89;-0,34;0,92;-11,61;5,07;12,07;2,58;-0,11;-1,19;0,00
15.218;-0,68;-0,34;0,56;-11,61;5,07;12,07;2,58;-0,11;-1,19;0,00
15.249;-0,68;-0,34;0,56;-7,04;-3,94;9,32;2,58;-0,11;-1,19;0,00
15.25;-0,39;-0,43;0,29;-7,04;-3,94;9,32;2,58;-0,11;-1,19;0,00
15.25;-0,01;-0,50;0,04;-7,04;-3,94;9,32;2,58;-0,11;-1,19;0,00
15.25;-0,01;-0,50;0,04;-6,71;-3,82;9,40;2,58;-0,11;-1,19;0,00
15.269;-0,01;-0,50;0,04;-6,71;-3,82;9,40;2,00;0,22;-2,05;0,00
15.284;0,26;-0,48;-0,15;-6,71;-3,82;9,40;2,00;0,22;-2,05;0,00
15.319;0,37;-0,38;-0,16;-6,71;-3,82;9,40;2,00;0,22;-2,05;0,00
15.319;0,39;-0,31;-0,09;-6,71;-3,82;9,40;2,00;0,22;-2,05;0,00
15.319;0,39;-0,31;-0,09;3,69;-5,56;-2,68;2,00;0,22;-2,05;0,00
15.32;0,39;-0,31;-0,09;3,69;-5,26;-2,61;2,00;0,22;-2,05;0,00
15.35;0,39;-0,31;-0,09;3,69;-5,26;-2,61;0,68;-0,11;-1,24;0,00
15.351;0,30;-0,22;0,05;3,69;-5,26;-2,61;0,68;-0,11;-1,24;0,00
15.352;0,10;-0,21;0,22;3,69;-5,26;-2,61;0,68;-0,11;-1,24;0,00
15.39;-0,25;-0,30;0,22;3,69;-5,26;-2,61;0,68;-0,11;-1,24;0,00
15.39;-0,25;-0,30;0,22;11,00;-4,47;-7,38;0,68;-0,11;-1,24;0,00
15.391;-0,25;-0,30;0,22;11,00;-4,47;-7,38;-0,92;0,16;-0,37;0,00
15.391;-0,87;-0,29;-0,03;11,00;-4,47;-7,38;-0,92;0,16;-0,37;0,00
15.417;-1,81;-0,43;0,58;11,00;-4,47;-7,38;-0,92;0,16;-0,37;0,00
15.461;-1,81;-0,43;0,58;5,16;-2,95;-4,83;-0,92;0,16;-0,37;0,00
15.462;-1,81;-0,43;0,58;5,52;-2,55;-4,16;-0,92;0,16;-0,37;0,00
15.463;-2,65;-0,71;1,53;5,52;-2,55;-4,16;-0,92;0,16;-0,37;0,00
15.463;-2,71;-0,66;1,41;5,52;-2,55;-4,16;-0,92;0,16;-0,37;0,00
15.472;-2,71;-0,66;1,41;5,52;-2,55;-4,16;-2,96;1,60;1,03;0,00
15.484;-2,51;-0,56;1,29;5,52;-2,55;-4,16;-2,96;1,60;1,03;0,00
15.529;-2,51;-0,56;1,29;-15,16;-5,43;6,57;-2,96;1,60;1,03;0,00
15.53;-1,96;-0,43;0,88;-15,16;-5,43;6,57;-2,96;1,60;1,03;0,00
15.53;-1,10;-0,22;0,68;-15,16;-5,43;6,57;-2,96;1,60;1,03;0,00
15.53;-0,66;-0,02;1,01;-15,16;-5,43;6,57;-2,96;1,60;1,03;0,00
15.53;-0,66;-0,02;1,01;-15,08;-5,23;6,20;-2,96;1,60;1,03;0,00
15.549;-0,66;-0,02;1,01;-15,08;-5,23;6,20;-2,32;-0,81;1,13;0,00
15.551;-0,43;0,12;1,07;-15,08;-5,23;6,20;-2,32;-0,81;1,13;0,00
15.589;-0,20;0,23;0,95;-15,08;-5,23;6,20;-2,32;-0,81;1,13;0,00
15.59;-0,20;0,23;0,95;-15,08;-5,23;6,20;-3,17;0,16;1,12;0,00
15.599;-0,20;0,23;0,95;-5,19;-2,00;3,32;-3,17;0,16;1,12;0,00
15.6;-0,12;0,31;0,73;-5,19;-2,00;3,32;-3,17;0,16;1,12;0,00
15.6;-0,12;0,31;0,73;-5,01;-1,60;3,47;-3,17;0,16;1,12;0,00
15.626;-0,08;0,39;0,45;-5,01;-1,60;3,47;-3,17;0,16;1,12;0,00
15.669;-0,08;0,39;0,45;-5,01;-1,60;3,47;-2,80;-1,16;0,48;0,00
15.67;0,02;0,51;0,28;-5,01;-1,60;3,47;-2,80;-1,16;0,48;0,00
15.67;0,10;0,62;0,17;-5,01;-1,60;3,47;-2,80;-1,16;0,48;0,00
15.671;0,08;0,79;0,09;-5,01;-1,60;3,47;-2,80;-1,16;0,48;0,00
15.671;0,08;0,79;0,09;6,32;3,88;2,74;-2,80;-1,16;0,48;0,00
15.739;0,08;0,79;0,09;8,59;7,76;-3,86;-2,80;-1,16;0,48;0,00
15.74;0,08;0,79;0,06;8,59;7,76;-3,86;-2,80;-1,16;0,48;0,00
15.74;0,06;0,70;0,07;8,59;7,76;-3,86;-2,80;-1,16;0,48;0,00
15.741;-0,00;0,65;0,11;8,59;7,76;-3,86;-2,80;-1,16;0,48;0,00
15.741;-0,00;0,65;0,11;8,20;7,76;-4,08;-2,80;-1,16;0,48;0,00
15.749;-0,00;0,65;0,11;8,20;7,76;-4,08;-1,00;-1,19;0,50;0,00
15.751;-0,14;0,56;0,21;8,20;7,76;-4,08;-1,00;-1,19;0,50;0,00
15.789;-0,45;0,55;0,42;8,20;7,76;-4,08;-1,00;-1,19;0,50;0,00
15.789;-0,45;0,55;0,42;8,20;7,76;-4,08;1,71;-0,69;0,11;0,00
15.809;-1,19;0,73;0,88;8,20;7,76;-4,08;1,71;-0,69;0,11;0,00
15.81;-2,35;0,71;2,00;8,20;7,76;-4,08;1,71;-0,69;0,11;0,00
15.81;-2,35;0,71;2,00;7,58;8,23;-5,52;1,71;-0,69;0,11;0,00
15.811;-2,35;0,71;2,00;7,30;7,56;-5,69;1,71;-0,69;0,11;0,00
15.869;-2,78;0,13;2,46;7,30;7,56;-5,69;1,71;-0,69;0,11;0,00
15.87;-2,37;-0,36;2,15;7,30;7,56;-5,69;1,71;-0,69;0,11;0,00
15.87;-2,37;-0,36;2,15;7,30;7,56;-5,69;3,38;1,23;-0,72;0,00
15.879;-2,37;-0,36;2,15;-3,96;6,34;3,29;3,38;1,23;-0,72;0,00
15.88;-2,37;-0,36;2,15;-3,62;5,63;3,62;3,38;1,23;-0,72;0,00
15.881;-1,91;-0,48;1,69;-3,62;5,63;3,62;3,38;1,23;-0,72;0,00
15.949;-1,91;-0,48;1,69;-3,62;5,63;3,62;3,49;-0,16;-1,30;0,00
15.949;-1,44;-0,39;1,30;-3,62;5,63;3,62;3,49;-0,16;-1,30;0,00
15.949;-1,04;-0,31;1,01;-3,62;5,63;3,62;3,49;-0,16;-1,30;0,00
15.95;-0,64;-0,35;0,67;-3,62;5,63;3,62;3,49;-0,16;-1,30;0,00
15.95;-0,31;-0,41;0,34;-3,62;5,63;3,62;3,49;-0,16;-1,30;0,00
15.95;-0,31;-0,41;0,34;-13,88;-3,63;13,46;3,49;-0,16;-1,30;0,00
15.989;-0,31;-0,41;0,34;-13,88;-3,63;13,46;2,52;0,06;-1,13;0,00
15.989;-0,13;-0,47;0,12;-13,88;-3,63;13,46;2,52;0,06;-1,13;0,00
16.017;0,07;-0,54;-0,02;-13,88;-3,63;13,46;2,52;0,06;-1,13;0,00
16.018;0,19;-0,54;-0,07;-13,88;-3,63;13,46;2,52;0,06;-1,13;0,00
16.018;0,19;-0,54;-0,07;0,65;-4,85;1,32;2,52;0,06;-1,13;0,00
16.019;0,19;-0,54;-0,07;0,73;-4,98;1,47;2,52;0,06;-1,13;0,00
16.069;0,19;-0,54;-0,07;0,73;-4,98;1,47;0,46;-0,69;-0,49;0,00
16.069;0,21;-0,49;-0,11;0,73;-4,98;1,47;0,46;-0,69;-0,49;0,00
16.07;0,18;-0,45;-0,13;0,73;-4,98;1,47;0,46;-0,69;-0,49;0,00
16.085;0,10;-0,39;-0,03;0,73;-4,98;1,47;0,46;-0,69;-0,49;0,00
16.089;-0,11;-0,37;0,04;0,73;-4,98;1,47;0,46;-0,69;-0,49;0,00
16.089;-0,11;-0,37;0,04;8,62;-6,46;-5,87;0,46;-0,69;-0,49;0,00
16.089;-0,11;-0,37;0,04;8,25;-6,18;-6,09;0,46;-0,69;-0,49;0,00
16.15;-0,11;-0,37;0,04;8,25;-6,18;-6,09;-1,65;0,19;0,38;0,00
16.151;-0,37;-0,34;-0,01;8,25;-6,18;-6,09;-1,65;0,19;0,38;0,00
16.152;-0,67;-0,36;0,02;8,25;-6,18;-6,09;-1,65;0,19;0,38;0,00
16.152;-1,19;-0,22;0,09;8,25;-6,18;-6,09;-1,65;0,19;0,38;0,00
16.16;-1,19;-0,22;0,09;8,22;-4,78;-6,54;-1,65;0,19;0,38;0,00
16.161;-1,19;-0,22;0,09;8,38;-4,51;-6,06;-1,65;0,19;0,38;0,00
16.189;-1,19;-0,22;0,09;8,38;-4,51;-6,06;-3,32;1,76;1,84;0,00
16.192;-1,97;-0,09;0,97;8,38;-4,51;-6,06;-3,32;1,76;1,84;0,00
16.218;-2,48;-0,29;1,68;8,38;-4,51;-6,06;-3,32;1,76;1,84;0,00
16.218;-2,29;-0,26;1,54;8,38;-4,51;-6,06;-3,32;1,76;1,84;0,00
16.229;-1,98;-0,09;0,85;8,38;-4,51;-6,06;-3,32;1,76;1,84;0,00
16.23;-1,98;-0,09;0,85;-0,70;-2,92;-3,84;-3,32;1,76;1,84;0,00
16.269;-1,98;-0,09;0,85;-0,70;-2,92;-3,84;-2,90;-0,18;1,16;0,00
16.269;-1,41;-0,08;0,35;-0,70;-2,92;-3,84;-2,90;-0,18;1,16;0,00
16.284;-0,98;0,06;0,56;-0,70;-2,92;-3,84;-2,90;-0,18;1,16;0,00
16.299;-0,83;0,29;0,96;-0,70;-2,92;-3,84;-2,90;-0,18;1,16;0,00
16.299;-0,83;0,29;0,96;-13,72;-2,00;8,25;-2,90;-0,18;1,16;0,00
16.3;-0,83;0,29;0,96;-13,65;-1,82;7,86;-2,90;-0,18;1,16;0,00
16.349;-0,83;0,29;0,96;-13,65;-1,82;7,86;-2,86;0,60;0,93;0,00
16.349;-0,60;0,45;1,10;-13,65;-1,82;7,86;-2,86;0,60;0,93;0,00
16.349;-0,38;0,66;1,03;-13,65;-1,82;7,86;-2,86;0,60;0,93;0,00
16.35;-0,28;0,68;0,74;-13,65;-1,82;7,86;-2,86;0,60;0,93;0,00
16.369;-0,09;0,67;0,29;-13,65;-1,82;7,86;-2,86;0,60;0,93;0,00
16.369;-0,09;0,67;0,29;-1,44;1,73;1,59;-2,86;0,60;0,93;0,00
16.369;-0,09;0,67;0,29;-1,28;2,00;1,83;-2,86;0,60;0,93;0,00
16.389;-0,09;0,67;0,29;-1,28;2,00;1,83;-1,79;-1,10;0,68;0,00
16.418;0,10;0,66;-0,17;-1,28;2,00;1,83;-1,79;-1,10;0,68;0,00
16.419;0,16;0,59;-0,34;-1,28;2,00;1,83;-1,79;-1,10;0,68;0,00
16.439;0,11;0,57;-0,25;-1,28;2,00;1,83;-1,79;-1,10;0,68;0,00
16.439;0,11;0,57;-0,25;5,44;7,03;1,83;-1,79;-1,10;0,68;0,00
16.439;0,11;0,57;-0,25;4,94;6,72;1,20;-1,79;-1,10;0,68;0,00
16.469;0,11;0,57;-0,25;4,94;6,72;1,20;0,25;-1,32;0,56;0,00
16.469;-0,01;0,68;-0,08;4,94;6,72;1,20;0,25;-1,32;0,56;0,00
16.485;-0,21;0,56;0,06;4,94;6,72;1,20;0,25;-1,32;0,56;0,00
16.509;-0,45;0,55;0,34;4,94;6,72;1,20;0,25;-1,32;0,56;0,00
16.51;-0,66;0,66;0,96;4,94;6,72;1,20;0,25;-1,32;0,56;0,00
16.51;-0,66;0,66;0,96;8,55;5,99;-8,44;0,25;-1,32;0,56;0,00
16.549;-1,68;1,06;1,55;8,55;5,99;-8,44;0,25;-1,32;0,56;0,00
16.552;-1,68;1,06;1,55;8,55;5,99;-8,44;1,86;0,19;0,22;0,00
16.552;-3,05;0,98;2,55;8,55;5,99;-8,44;1,86;0,19;0,22;0,00
16.579;-2,94;-0,08;2,09;8,55;5,99;-8,44;1,86;0,19;0,22;0,00
16.58;-2,94;-0,08;2,09;3,67;5,33;-2,30;1,86;0,19;0,22;0,00
16.581;-2,94;-0,08;2,09;3,69;4,50;-2,03;1,86;0,19;0,22;0,00
16.588;-2,94;-0,08;2,09;3,69;4,50;-2,03;3,55;0,47;-0,41;0,00
16.617;-2,10;0,04;1,37;3,69;4,50;-2,03;3,55;0,47;-0,41;0,00
16.618;-1,52;-0,18;1,02;3,69;4,50;-2,03;3,55;0,47;-0,41;0,00
16.649;-1,52;-0,18;1,02;-16,78;3,36;13,82;3,55;0,47;-0,41;0,00
16.649;-1,17;-0,18;0,92;-16,78;3,36;13,82;3,55;0,47;-0,41;0,00
16.65;-0,88;-0,27;0,76;-16,78;3,36;13,82;3,55;0,47;-0,41;0,00
16.65;-0,88;-0,27;0,76;-16,48;2,98;13,76;3,55;0,47;-0,41;0,00
16.669;-0,88;-0,27;0,76;-16,48;2,98;13,76;2,66;0,04;-1,37;0,00
16.684;-0,60;-0,45;0,54;-16,48;2,98;13,76;2,66;0,04;-1,37;0,00
16.719;-0,25;-0,62;0,24;-16,48;2,98;13,76;2,66;0,04;-1,37;0,00
16.72;0,03;-0,65;-0,12;-16,48;2,98;13,76;2,66;0,04;-1,37;0,00
16.72;0,03;-0,65;-0,12;-4,13;-4,07;3,98;2,66;0,04;-1,37;0,00
16.721;0,03;-0,65;-0,12;-3,84;-3,64;4,13;2,66;0,04;-1,37;0,00
16.749;0,21;-0,70;-0,23;-3,84;-3,64;4,13;2,66;0,04;-1,37;0,00
16.751;0,21;-0,70;-0,23;-3,84;-3,64;4,13;1,44;0,15;-1,95;0,00
16.752;0,26;-0,67;-0,05;-3,84;-3,64;4,13;1,44;0,15;-1,95;0,00
16.789;0,26;-0,67;-0,05;-3,84;-3,64;4,13;-0,67;-0,63;-1,32;0,00
16.791;0,29;-0,57;0,07;-3,84;-3,64;4,13;-0,67;-0,63;-1,32;0,00
16.791;0,18;-0,41;0,08;-3,84;-3,64;4,13;-0,67;-0,63;-1,32;0,00
16.792;0,18;-0,41;0,08;6,68;-7,15;-3,77;-0,67;-0,63;-1,32;0,00
16.817;-0,02;-0,42;0,11;6,68;-7,15;-3,77;-0,67;-0,63;-1,32;0,00
16.859;-0,02;-0,42;0,11;10,84;-6,20;-5,45;-0,67;-0,63;-1,32;0,00
16.86;-0,20;-0,48;0,22;10,84;-6,20;-5,45;-0,67;-0,63;-1,32;0,00
16.86;-0,60;-0,50;0,28;10,84;-6,20;-5,45;-0,67;-0,63;-1,32;0,00
16.86;-0,60;-0,50;0,28;10,65;-5,34;-5,41;-0,67;-0,63;-1,32;0,00
16.869;-0,60;-0,50;0,28;10,65;-5,34;-5,41;-2,88;0,29;-0,40;0,00
16.885;-1,39;-0,47;0,53;10,65;-5,34;-5,41;-2,88;0,29;-0,40;0,00
16.929;-1,39;-0,47;0,53;4,47;-3,57;-2,87;-2,88;0,29;-0,40;0,00
16.93;-1,39;-0,47;0,53;4,60;-2,89;-2,28;-2,88;0,29;-0,40;0,00
16.93;-2,63;-0,50;1,93;4,60;-2,89;-2,28;-2,88;0,29;-0,40;0,00
16.93;-3,00;-0,65;1,89;4,60;-2,89;-2,28;-2,88;0,29;-0,40;0,00
16.931;-2,62;-0,67;1,01;4,60;-2,89;-2,28;-2,88;0,29;-0,40;0,00
16.949;-2,62;-0,67;1,01;4,60;-2,89;-2,28;-4,77;0,59;0,90;0,00
16.951;-2,04;-0,58;0,40;4,60;-2,89;-2,28;-4,77;0,59;0,90;0,00
16.988;-1,44;-0,15;0,37;4,60;-2,89;-2,28;-4,77;0,59;0,90;0,00
16.989;-1,44;-0,15;0,37;4,60;-2,89;-2,28;-2,71;-0,75;1,50;0,00
17.001;-1,17;0,12;0,84;4,60;-2,89;-2,28;-2,71;-0,75;1,50;0,00
17.002;-1,17;0,12;0,84;-16,77;-3,60;9,88;-2,71;-0,75;1,50;0,00
17.003;-1,17;0,12;0,84;-16,47;-3,65;9,70;-2,71;-0,75;1,50;0,00
17.018;-0,82;0,32;1,06;-16,47;-3,65;9,70;-2,71;-0,75;1,50;0,00
17.069;-0,44;0,43;0,88;-16,47;-3,65;9,70;-2,71;-0,75;1,50;0,00
17.071;-0,19;0,58;0,49;-16,47;-3,65;9,70;-2,71;-0,75;1,50;0,00
17.071;-0,19;0,58;0,49;-16,47;-3,65;9,70;-2,93;0,36;1,99;0,00
17.071;-0,06;0,70;0,10;-16,47;-3,65;9,70;-2,93;0,36;1,99;0,00
17.072;-0,06;0,70;0,10;-4,94;0,55;1,68;-2,93;0,36;1,99;0,00
17.139;-0,06;0,70;0,10;6,36;6,83;1,33;-2,93;0,36;1,99;0,00
17.14;0,04;0,76;0,04;6,36;6,83;1,33;-2,93;0,36;1,99;0,00
17.14;0,19;0,77;0,10;6,36;6,83;1,33;-2,93;0,36;1,99;0,00
17.141;0,17;0,80;0,16;6,36;6,83;1,33;-2,93;0,36;1,99;0,00
17.141;0,17;0,80;0,16;6,15;6,43;1,00;-2,93;0,36;1,99;0,00
17.149;0,17;0,80;0,16;6,15;6,43;1,00;-1,70;-1,08;1,64;0,00
17.15;0,02;0,78;0,15;6,15;6,43;1,00;-1,70;-1,08;1,64;0,00
17.19;-0,03;0,68;0,08;6,15;6,43;1,00;-1,70;-1,08;1,64;0,00
17.191;-0,03;0,68;0,08;6,15;6,43;1,00;0,72;-0,88;1,32;0,00
17.209;-0,14;0,65;0,25;6,15;6,43;1,00;0,72;-0,88;1,32;0,00
17.21;-0,50;0,64;0,71;6,15;6,43;1,00;0,72;-0,88;1,32;0,00
17.21;-0,50;0,64;0,71;10,01;8,19;-3,77;0,72;-0,88;1,32;0,00
17.21;-0,50;0,64;0,71;9,68;7,41;-4,02;0,72;-0,88;1,32;0,00
17.269;-1,00;0,84;1,06;9,68;7,41;-4,02;0,72;-0,88;1,32;0,00
17.269;-2,04;1,36;1,41;9,68;7,41;-4,02;0,72;-0,88;1,32;0,00
17.269;-2,04;1,36;1,41;9,68;7,41;-4,02;2,77;-0,71;1,58;0,00
17.279;-3,09;1,09;2,13;9,68;7,41;-4,02;2,77;-0,71;1,58;0,00
17.279;-3,09;1,09;2,13;6,24;5,31;-2,22;2,77;-0,71;1,58;0,00
17.28;-3,09;1,09;2,13;5,92;3,98;-2,05;2,77;-0,71;1,58;0,00
17.351;-3,10;0,36;1,80;5,92;3,98;-2,05;2,77;-0,71;1,58;0,00
17.353;-2,49;0,13;1,37;5,92;3,98;-2,05;2,77;-0,71;1,58;0,00
17.353;-1,79;-0,14;1,03;5,92;3,98;-2,05;2,77;-0,71;1,58;0,00
17.354;-1,79;-0,14;1,03;-13,54;5,90;11,19;2,77;-0,71;1,58;0,00
17.354;-1,12;-0,34;0,86;-13,54;5,90;11,19;2,77;-0,71;1,58;0,00
17.355;-1,12;-0,34;0,86;-13,54;5,90;11,19;3,87;1,06;1,49;0,00
17.388;-0,64;-0,58;0,59;-13,54;5,90;11,19;3,87;1,06;1,49;0,00
17.389;-0,64;-0,58;0,59;-13,54;5,90;11,19;2,69;-0,64;-0,15;0,00
17.417;-0,33;-0,70;0,12;-13,54;5,90;11,19;2,69;-0,64;-0,15;0,00
17.418;-0,01;-0,80;-0,14;-13,54;5,90;11,19;2,69;-0,64;-0,15;0,00
17.419;-0,01;-0,80;-0,14;-11,22;-5,40;7,58;2,69;-0,64;-0,15;0,00
17.419;-0,01;-0,80;-0,14;-11,08;-5,52;7,63;2,69;-0,64;-0,15;0,00
17.469;-0,01;-0,80;-0,14;-11,08;-5,52;7,63;1,11;-0,50;-1,96;0,00
17.469;0,19;-0,81;-0,08;-11,08;-5,52;7,63;1,11;-0,50;-1,96;0,00
17.47;0,26;-0,71;0,16;-11,08;-5,52;7,63;1,11;-0,50;-1,96;0,00
17.484;0,22;-0,62;0,25;-11,08;-5,52;7,63;1,11;-0,50;-1,96;0,00
17.489;0,22;-0,62;0,25;5,89;-11,34;-2,26;1,11;-0,50;-1,96;0,00
17.489;0,20;-0,54;0,24;5,89;-11,34;-2,26;1,11;-0,50;-1,96;0,00
17.49;0,20;-0,54;0,24;6,12;-10,50;-2,17;1,11;-0,50;-1,96;0,00
17.549;0,20;-0,54;0,24;6,12;-10,50;-2,17;-1,13;-0,91;-2,47;0,00
17.551;0,13;-0,43;0,18;6,12;-10,50;-2,17;-1,13;-0,91;-2,47;0,00
17.552;-0,07;-0,32;0,19;6,12;-10,50;-2,17;-1,13;-0,91;-2,47;0,00
17.552;-0,31;-0,30;0,21;6,12;-10,50;-2,17;-1,13;-0,91;-2,47;0,00
17.56;-0,31;-0,30;0,21;10,84;-8,66;-2,22;-1,13;-0,91;-2,47;0,00
17.561;-0,31;-0,30;0,21;10,63;-7,33;-2,72;-1,13;-0,91;-2,47;0,00
17.588;-0,31;-0,30;0,21;10,63;-7,33;-2,72;-2,96;-0,47;-1,61;0,00
17.589;-0,71;-0,30;0,11;10,63;-7,33;-2,72;-2,96;-0,47;-1,61;0,00
17.618;-1,37;-0,25;0,15;10,63;-7,33;-2,72;-2,96;-0,47;-1,61;0,00
17.618;-2,61;-0,44;1,57;10,63;-7,33;-2,72;-2,96;-0,47;-1,61;0,00
17.63;-2,61;-0,44;1,57;6,74;-3,29;-2,73;-2,96;-0,47;-1,61;0,00
17.631;-3,20;-0,61;1,87;6,74;-3,29;-2,73;-2,96;-0,47;-1,61;0,00
17.669;-3,20;-0,61;1,87;6,74;-3,29;-2,73;-4,21;-0,22;-0,43;0,00
17.67;-2,79;-0,60;1,11;6,74;-3,29;-2,73;-4,21;-0,22;-0,43;0,00
17.684;-2,31;-0,49;0,61;6,74;-3,29;-2,73;-4,21;-0,22;-0,43;0,00
17.699;-1,63;-0,09;0,62;6,74;-3,29;-2,73;-4,21;-0,22;-0,43;0,00
17.7;-1,63;-0,09;0,62;-12,76;-2,88;5,65;-4,21;-0,22;-0,43;0,00
17.7;-1,63;-0,09;0,62;-12,73;-2,07;5,48;-4,21;-0,22;-0,43;0,00
17.749;-1,63;-0,09;0,62;-12,73;-2,07;5,48;-2,38;0,03;0,34;0,00
17.751;-1,21;0,17;1,17;-12,73;-2,07;5,48;-2,38;0,03;0,34;0,00
17.751;-0,85;0,38;1,31;-12,73;-2,07;5,48;-2,38;0,03;0,34;0,00
17.752;-0,44;0,46;1,00;-12,73;-2,07;5,48;-2,38;0,03;0,34;0,00
17.769;-0,22;0,58;0,62;-12,73;-2,07;5,48;-2,38;0,03;0,34;0,00
17.77;-0,22;0,58;0,62;-11,88;-0,84;3,49;-2,38;0,03;0,34;0,00
17.771;-0,22;0,58;0,62;-11,40;-0,60;4,16;-2,38;0,03;0,34;0,00
17.789;-0,22;0,58;0,62;-11,40;-0,60;4,16;-2,54;-0,04;0,55;0,00
17.817;-0,16;0,69;0,33;-11,40;-0,60;4,16;-2,54;-0,04;0,55;0,00
17.818;-0,06;0,78;0,07;-11,40;-0,60;4,16;-2,54;-0,04;0,55;0,00
17.839;-0,06;0,78;0,07;3,37;6,93;6,14;-2,54;-0,04;0,55;0,00
17.841;-0,06;0,78;0,07;3,15;6,86;5,70;-2,54;-0,04;0,55;0,00
17.842;0,01;0,83;-0,15;3,15;6,86;5,70;-2,54;-0,04;0,55;0,00
17.869;0,01;0,83;-0,15;3,15;6,86;5,70;-0,78;-1,25;0,52;0,00
17.87;0,00;0,86;-0,17;3,15;6,86;5,70;-0,78;-1,25;0,52;0,00
17.884;-0,07;0,79;-0,10;3,15;6,86;5,70;-0,78;-1,25;0,52;0,00
17.909;-0,14;0,79;0,00;3,15;6,86;5,70;-0,78;-1,25;0,52;0,00
17.909;-0,28;0,81;0,18;3,15;6,86;5,70;-0,78;-1,25;0,52;0,00
17.909;-0,28;0,81;0,18;8,13;9,84;-4,20;-0,78;-1,25;0,52;0,00
17.949;-0,51;0,68;0,41;8,13;9,84;-4,20;-0,78;-1,25;0,52;0,00
17.949;-0,51;0,68;0,41;8,13;9,84;-4,20;1,25;-0,94;0,71;0,00
17.95;-0,84;0,80;0,79;8,13;9,84;-4,20;1,25;-0,94;0,71;0,00
17.979;-0,84;0,80;0,79;7,00;9,46;-4,97;1,25;-0,94;0,71;0,00
17.98;-0,84;0,80;0,79;6,83;8,47;-5,17;1,25;-0,94;0,71;0,00
17.98;-1,42;1,11;1,33;6,83;8,47;-5,17;1,25;-0,94;0,71;0,00
17.989;-1,42;1,11;1,33;6,83;8,47;-5,17;3,61;0,32;1,24;0,00
18.017;-2,58;0,97;1,71;6,83;8,47;-5,17;3,61;0,32;1,24;0,00
18.018;-2,91;0,44;1,33;6,83;8,47;-5,17;3,61;0,32;1,24;0,00
18.049;-2,73;0,23;1,16;6,83;8,47;-5,17;3,61;0,32;1,24;0,00
18.049;-1,88;-0,09;1,24;6,83;8,47;-5,17;3,61;0,32;1,24;0,00
18.05;-1,88;-0,09;1,24;-2,65;8,03;4,45;3,61;0,32;1,24;0,00
18.05;-1,88;-0,09;1,24;-2,07;6,60;5,88;3,61;0,32;1,24;0,00
18.073;-1,88;-0,09;1,24;-2,07;6,60;5,88;3,70;3,32;1,08;0,00
18.096;-1,30;-0,57;1,06;-2,07;6,60;5,88;3,70;3,32;1,08;0,00
18.119;-1,30;-0,57;1,06;-15,47;0,07;10,32;3,70;3,32;1,08;0,00
18.12;-1,30;-0,57;1,06;-14,97;0,54;10,69;3,70;3,32;1,08;0,00
18.121;-0,84;-0,75;0,67;-14,97;0,54;10,69;3,70;3,32;1,08;0,00
18.121;-0,63;-0,89;0,26;-14,97;0,54;10,69;3,70;3,32;1,08;0,00
18.149;-0,63;-0,89;0,26;-14,97;0,54;10,69;1,44;1,03;-1,69;0,00
18.149;-0,36;-1,00;0,04;-14,97;0,54;10,69;1,44;1,03;-1,69;0,00
18.15;-0,08;-0,94;0,05;-14,97;0,54;10,69;1,44;1,03;-1,69;0,00
18.189;0,13;-0,90;0,18;-14,97;0,54;10,69;1,44;1,03;-1,69;0,00
18.19;0,13;-0,90;0,18;-14,97;0,54;10,69;0,83;0,82;-2,26;0,00
18.19;0,24;-0,97;0,30;-14,97;0,54;10,69;0,83;0,82;-2,26;0,00
18.19;0,24;-0,97;0,30;1,91;-8,68;4,06;0,83;0,82;-2,26;0,00
18.217;0,32;-0,95;0,37;1,91;-8,68;4,06;0,83;0,82;-2,26;0,00
18.259;0,31;-0,97;0,23;1,91;-8,68;4,06;0,83;0,82;-2,26;0,00
18.26;0,25;-0,92;-0,02;1,91;-8,68;4,06;0,83;0,82;-2,26;0,00
18.26;0,25;-0,92;-0,02;10,60;-9,39;0,21;0,83;0,82;-2,26;0,00
18.26;0,25;-0,92;-0,02;10,37;-8,52;-0,09;0,83;0,82;-2,26;0,00
18.269;0,25;-0,92;-0,02;10,37;-8,52;-0,09;-0,64;-1,39;-1,89;0,00
18.284;0,15;-0,87;-0,10;10,37;-8,52;-0,09;-0,64;-1,39;-1,89;0,00
18.329;0,15;-0,87;-0,10;12,22;-7,39;-0,94;-0,64;-1,39;-1,89;0,00
18.33;-0,15;-1,01;0,06;12,22;-7,39;-0,94;-0,64;-1,39;-1,89;0,00
18.33;-0,56;-1,17;0,07;12,22;-7,39;-0,94;-0,64;-1,39;-1,89;0,00
18.33;-1,08;-1,51;0,30;12,22;-7,39;-0,94;-0,64;-1,39;-1,89;0,00
18.331;-1,08;-1,51;0,30;11,79;-6,35;-0,94;-0,64;-1,39;-1,89;0,00
18.349;-1,08;-1,51;0,30;11,79;-6,35;-0,94;-2,59;-0,49;-1,86;0,00
18.351;-2,00;-1,81;1,01;11,79;-6,35;-0,94;-2,59;-0,49;-1,86;0,00
18.389;-2,80;-1,76;1,11;11,79;-6,35;-0,94;-2,59;-0,49;-1,86;0,00
18.39;-2,80;-1,76;1,11;11,79;-6,35;-0,94;-4,38;-0,69;-3,32;0,00
18.399;-2,77;-1,67;0,55;11,79;-6,35;-0,94;-4,38;-0,69;-3,32;0,00
18.399;-2,77;-1,67;0,55;3,89;-7,65;-0,60;-4,38;-0,69;-3,32;0,00
18.399;-2,77;-1,67;0,55;3,09;-6,03;-0,09;-4,38;-0,69;-3,32;0,00
18.417;-2,12;-1,44;0,44;3,09;-6,03;-0,09;-4,38;-0,69;-3,32;0,00
18.469;-2,12;-1,44;0,44;3,09;-6,03;-0,09;-3,12;-2,58;-2,73;0,00
18.469;-1,92;-0,77;0,83;3,09;-6,03;-0,09;-3,12;-2,58;-2,73;0,00
18.47;-1,75;-0,59;1,11;3,09;-6,03;-0,09;-3,12;-2,58;-2,73;0,00
18.47;-1,58;-0,32;1,24;3,09;-6,03;-0,09;-3,12;-2,58;-2,73;0,00
18.47;-1,58;-0,32;1,24;-17,20;-10,00;6,53;-3,12;-2,58;-2,73;0,00
18.539;-1,58;-0,32;1,24;-10,62;1,10;8,44;-3,12;-2,58;-2,73;0,00
18.54;-1,34;-0,01;0,99;-10,62;1,10;8,44;-3,12;-2,58;-2,73;0,00
18.54;-0,99;0,35;0,64;-10,62;1,10;8,44;-3,12;-2,58;-2,73;0,00
18.54;-0,72;0,68;0,42;-10,62;1,10;8,44;-3,12;-2,58;-2,73;0,00
18.54;-0,72;0,68;0,42;-10,43;1,13;8,71;-3,12;-2,58;-2,73;0,00
18.549;-0,72;0,68;0,42;-10,43;1,13;8,71;-2,41;-1,48;0,32;0,00
18.55;-0,51;0,92;0,39;-10,43;1,13;8,71;-2,41;-1,48;0,32;0,00
18.589;-0,51;0,92;0,39;-10,43;1,13;8,71;-0,50;-2,77;1,63;0,00
18.589;-0,39;1,02;0,39;-10,43;1,13;8,71;-0,50;-2,77;1,63;0,00
18.609;-0,39;1,02;0,39;-2,00;11,21;4,91;-0,50;-2,77;1,63;0,00
18.61;-0,29;1,01;0,40;-2,00;11,21;4,91;-0,50;-2,77;1,63;0,00
18.611;-0,38;0,83;0,42;-2,00;11,21;4,91;-0,50;-2,77;1,63;0,00
18.611;-0,38;0,83;0,42;-1,68;10,52;4,09;-0,50;-2,77;1,63;0,00
18.669;-0,38;0,83;0,42;-1,68;10,52;4,09;2,54;-1,21;2,28;0,00
18.669;-0,52;0,55;0,47;-1,68;10,52;4,09;2,54;-1,21;2,28;0,00
18.67;-0,78;0,32;0,54;-1,68;10,52;4,09;2,54;-1,21;2,28;0,00
18.679;-1,03;0,16;0,78;-1,68;10,52;4,09;2,54;-1,21;2,28;0,00
18.679;-1,03;0,16;0,78;4,25;14,70;0,87;2,54;-1,21;2,28;0,00
18.679;-1,03;0,16;0,78;4,53;13,14;-0,08;2,54;-1,21;2,28;0,00
18.749;-1,03;0,16;0,78;0,08;4,99;1,63;2,54;-1,21;2,28;0,00
18.75;-1,03;0,16;0,78;0,08;4,99;1,63;5,37;-0,65;3,29;0,00
18.75;-1,42;0,40;1,31;0,08;4,99;1,63;5,37;-0,65;3,29;0,00
18.75;-2,08;0,19;1,87;0,08;4,99;1,63;5,37;-0,65;3,29;0,00
18.751;-2,66;-0,52;1,86;0,08;4,99;1,63;5,37;-0,65;3,29;0,00
18.751;-2,90;-0,66;1,90;0,08;4,99;1,63;5,37;-0,65;3,29;0,00
18.788;-2,90;-0,66;1,90;0,08;4,99;1,63;5,47;1,23;2,37;0,00
18.789;-2,44;-0,73;1,62;0,08;4,99;1,63;5,47;1,23;2,37;0,00
18.818;-1,65;-0,77;1,12;0,08;4,99;1,63;5,47;1,23;2,37;0,00
18.819;-1,03;-0,62;0,85;0,08;4,99;1,63;5,47;1,23;2,37;0,00
18.819;-1,03;-0,62;0,85;-14,70;-2,71;13,03;5,47;1,23;2,37;0,00
18.82;-1,03;-0,62;0,85;-14,36;-4,36;13,56;5,47;1,23;2,37;0,00
18.869;-0,68;-0,69;0,73;-14,36;-4,36;13,56;5,47;1,23;2,37;0,00
18.869;-0,43;-0,72;0,42;-14,36;-4,36;13,56;5,47;1,23;2,37;0,00
18.87;-0,43;-0,72;0,42;-14,36;-4,36;13,56;3,62;-0,23;0,82;0,00
18.888;0,01;-0,76;0,03;-14,36;-4,36;13,56;3,62;-0,23;0,82;0,00
18.89;0,01;-0,76;0,03;-6,21;-10,02;6,97;3,62;-0,23;0,82;0,00
18.89;0,31;-0,86;-0,18;-6,21;-10,02;6,97;3,62;-0,23;0,82;0,00
18.891;0,31;-0,86;-0,18;-6,17;-10,50;7,29;3,62;-0,23;0,82;0,00
18.95;0,31;-0,86;-0,18;-6,17;-10,50;7,29;2,20;-0,22;0,12;0,00
18.951;0,43;-0,86;-0,15;-6,17;-10,50;7,29;2,20;-0,22;0,12;0,00
18.951;0,49;-0,90;0,03;-6,17;-10,50;7,29;2,20;-0,22;0,12;0,00
18.951;0,45;-0,88;-0,01;-6,17;-10,50;7,29;2,20;-0,22;0,12;0,00
18.959;0,45;-0,88;-0,01;7,84;-11,47;-1,78;2,20;-0,22;0,12;0,00
18.96;0,45;-0,88;-0,01;7,67;-11,30;-1,84;2,20;-0,22;0,12;0,00
18.989;0,45;-0,88;-0,01;7,67;-11,30;-1,84;-0,49;-0,84;-1,15;0,00
18.989;0,27;-0,77;-0,02;7,67;-11,30;-1,84;-0,49;-0,84;-1,15;0,00
19.019;-0,05;-0,82;0,05;7,67;-11,30;-1,84;-0,49;-0,84;-1,15;0,00
19.02;-0,38;-0,85;0,14;7,67;-11,30;-1,84;-0,49;-0,84;-1,15;0,00
19.029;-0,83;-0,76;0,03;7,67;-11,30;-1,84;-0,49;-0,84;-1,15;0,00
19.03;-0,83;-0,76;0,03;12,99;-11,38;-4,35;-0,49;-0,84;-1,15;0,00
19.069;-1,82;-0,61;0,45;12,99;-11,38;-4,35;-0,49;-0,84;-1,15;0,00
19.069;-1,82;-0,61;0,45;12,99;-11,38;-4,35;-3,36;-0,07;-2,00;0,00
19.084;-2,85;-0,97;1,84;12,99;-11,38;-4,35;-3,36;-0,07;-2,00;0,00
19.099;-2,89;-0,71;1,51;12,99;-11,38;-4,35;-3,36;-0,07;-2,00;0,00
19.099;-2,89;-0,71;1,51;5,51;-9,48;-3,51;-3,36;-0,07;-2,00;0,00
19.1;-2,89;-0,71;1,51;5,51;-7,87;-3,57;-3,36;-0,07;-2,00;0,00
19.15;-2,89;-0,71;1,51;5,51;-7,87;-3,57;-5,17;-0,26;-3,01;0,00
19.151;-2,71;-0,70;1,05;5,51;-7,87;-3,57;-5,17;-0,26;-3,01;0,00
19.152;-2,13;-0,39;0,85;5,51;-7,87;-3,57;-5,17;-0,26;-3,01;0,00
19.152;-1,67;0,02;1,22;5,51;-7,87;-3,57;-5,17;-0,26;-3,01;0,00
19.169;-1,18;0,28;1,53;5,51;-7,87;-3,57;-5,17;-0,26;-3,01;0,00
19.17;-1,18;0,28;1,53;-16,27;-5,45;7,97;-5,17;-0,26;-3,01;0,00
19.17;-1,18;0,28;1,53;-16,28;-3,86;8,27;-5,17;-0,26;-3,01;0,00
19.189;-1,18;0,28;1,53;-16,28;-3,86;8,27;-3,84;0,49;-1,33;0,00
19.217;-0,78;0,42;1,36;-16,28;-3,86;8,27;-3,84;0,49;-1,33;0,00
19.218;-0,66;0,56;1,00;-16,28;-3,86;8,27;-3,84;0,49;-1,33;0,00
19.239;-0,66;0,56;1,00;-8,65;3,27;8,18;-3,84;0,49;-1,33;0,00
19.239;-0,47;0,69;0,57;-8,65;3,27;8,18;-3,84;0,49;-1,33;0,00
19.239;-0,47;0,69;0,57;-8,63;3,62;8,32;-3,84;0,49;-1,33;0,00
19.269;-0,47;0,69;0,57;-8,63;3,62;8,32;-2,19;-1,08;0,24;0,00
19.27;-0,33;0,74;0,10;-8,63;3,62;8,32;-2,19;-1,08;0,24;0,00
19.284;-0,21;0,83;-0,12;-8,63;3,62;8,32;-2,19;-1,08;0,24;0,00
19.309;-0,21;0,83;-0,12;2,97;10,23;5,02;-2,19;-1,08;0,24;0,00
19.31;-0,12;1,00;-0,14;2,97;10,23;5,02;-2,19;-1,08;0,24;0,00
19.31;-0,12;1,09;0,03;2,97;10,23;5,02;-2,19;-1,08;0,24;0,00
19.349;-0,21;0,98;0,25;2,97;10,23;5,02;-2,19;-1,08;0,24;0,00
19.35;-0,21;0,98;0,25;2,97;10,23;5,02;-0,55;-1,67;1,61;0,00
19.351;-0,26;0,78;0,44;2,97;10,23;5,02;-0,55;-1,67;1,61;0,00
19.379;-0,52;0,64;0,65;2,97;10,23;5,02;-0,55;-1,67;1,61;0,00
19.38;-0,52;0,64;0,65;7,04;13,11;-4,50;-0,55;-1,67;1,61;0,00
19.38;-0,52;0,64;0,65;6,88;12,18;-5,11;-0,55;-1,67;1,61;0,00
19.389;-0,52;0,64;0,65;6,88;12,18;-5,11;2,06;-1,73;1,93;0,00
19.417;-0,88;0,41;0,98;6,88;12,18;-5,11;2,06;-1,73;1,93;0,00
19.418;-1,32;0,67;1,53;6,88;12,18;-5,11;2,06;-1,73;1,93;0,00
19.45;-1,32;0,67;1,53;4,47;8,98;-0,21;2,06;-1,73;1,93;0,00
19.452;-2,15;0,79;2,60;4,47;8,98;-0,21;2,06;-1,73;1,93;0,00
19.452;-2,73;0,26;2,96;4,47;8,98;-0,21;2,06;-1,73;1,93;0,00
19.452;-2,73;0,26;2,96;4,25;7,10;-0,67;2,06;-1,73;1,93;0,00
19.471;-2,73;0,26;2,96;4,25;7,10;-0,67;5,07;-0,31;2,19;0,00
19.484;-2,87;-0,32;2,64;4,25;7,10;-0,67;5,07;-0,31;2,19;0,00
19.52;-2,87;-0,32;2,64;-10,40;3,08;15,75;5,07;-0,31;2,19;0,00
19.521;-2,87;-0,32;2,64;-10,31;1,52;16,25;5,07;-0,31;2,19;0,00
19.522;-2,24;-0,54;1,84;-10,31;1,52;16,25;5,07;-0,31;2,19;0,00
19.522;-1,51;-0,56;1,05;-10,31;1,52;16,25;5,07;-0,31;2,19;0,00
19.552;-1,51;-0,56;1,05;-10,31;1,52;16,25;4,91;0,28;1,39;0,00
19.553;-0,99;-0,50;0,71;-10,31;1,52;16,25;4,91;0,28;1,39;0,00
19.553;-0,66;-0,52;0,57;-10,31;1,52;16,25;4,91;0,28;1,39;0,00
19.589;-0,66;-0,52;0,57;-11,73;-9,35;11,67;4,91;0,28;1,39;0,00
19.589;-0,66;-0,52;0,57;-11,73;-9,35;11,67;3,38;-0,87;-0,07;0,00
19.59;-0,33;-0,60;0,45;-11,73;-9,35;11,67;3,38;-0,87;-0,07;0,00
19.59;-0,09;-0,68;0,11;-11,73;-9,35;11,67;3,38;-0,87;-0,07;0,00
19.617;0,15;-0,81;-0,24;-11,73;-9,35;11,67;3,38;-0,87;-0,07;0,00
19.659;0,35;-0,89;-0,37;-11,73;-9,35;11,67;3,38;-0,87;-0,07;0,00
19.66;0,49;-0,89;-0,18;-11,73;-9,35;11,67;3,38;-0,87;-0,07;0,00
19.66;0,49;-0,89;-0,18;3,87;-10,70;-0,43;3,38;-0,87;-0,07;0,00
19.66;0,49;-0,89;-0,18;3,86;-10,67;-0,15;3,38;-0,87;-0,07;0,00
19.67;0,49;-0,89;-0,18;3,86;-10,67;-0,15;1,95;-0,82;-0,98;0,00
19.685;0,53;-0,77;-0,09;3,86;-10,67;-0,15;1,95;-0,82;-0,98;0,00
19.73;0,53;-0,77;-0,09;11,53;-12,99;-6,52;1,95;-0,82;-0,98;0,00
19.731;0,31;-0,57;-0,02;11,53;-12,99;-6,52;1,95;-0,82;-0,98;0,00
19.732;-0,01;-0,50;0,05;11,53;-12,99;-6,52;1,95;-0,82;-0,98;0,00
19.732;-0,34;-0,53;0,14;11,53;-12,99;-6,52;1,95;-0,82;-0,98;0,00
19.732;-0,34;-0,53;0,14;11,37;-12,16;-6,95;1,95;-0,82;-0,98;0,00
19.749;-0,34;-0,53;0,14;11,37;-12,16;-6,95;-1,33;-1,04;-1,34;0,00
19.75;-0,79;-0,48;0,11;11,37;-12,16;-6,95;-1,33;-1,04;-1,34;0,00
19.789;-0,79;-0,48;0,11;11,37;-12,16;-6,95;-4,03;0,62;-1,38;0,00
19.79;-1,55;-0,40;0,22;11,37;-12,16;-6,95;-4,03;0,62;-1,38;0,00
19.799;-2,70;-0,82;1,70;11,37;-12,16;-6,95;-4,03;0,62;-1,38;0,00
19.799;-2,70;-0,82;1,70;8,38;-8,11;-4,68;-4,03;0,62;-1,38;0,00
19.8;-2,70;-0,82;1,70;8,53;-6,68;-4,64;-4,03;0,62;-1,38;0,00
19.818;-2,76;-0,73;2,14;8,53;-6,68;-4,64;-4,03;0,62;-1,38;0,00
19.869;-2,76;-0,73;2,14;8,53;-6,68;-4,64;-4,61;0,32;-2,30;0,00
19.87;-2,68;-0,63;1,70;8,53;-6,68;-4,64;-4,61;0,32;-2,30;0,00
19.87;-2,31;-0,46;1,15;8,53;-6,68;-4,64;-4,61;0,32;-2,30;0,00
19.87;-2,31;-0,46;1,15;-9,80;-5,11;3,86;-4,61;0,32;-2,30;0,00
19.87;-1,77;-0,09;1,10;-9,80;-5,11;3,86;-4,61;0,32;-2,30;0,00
19.939;-1,34;0,28;1,36;-9,80;-5,11;3,86;-4,61;0,32;-2,30;0,00
19.94;-0,94;0,42;1,34;-9,80;-5,11;3,86;-4,61;0,32;-2,30;0,00
19.94;-0,60;0,53;0,97;-9,80;-5,11;3,86;-4,61;0,32;-2,30;0,00
19.941;-0,60;0,53;0,97;-14,34;-1,99;9,08;-4,61;0,32;-2,30;0,00
19.941;-0,60;0,53;0,97;-14,04;-1,17;9,49;-4,61;0,32;-2,30;0,00
19.948;-0,60;0,53;0,97;-14,04;-1,17;9,49;-3,79;0,48;-0,17;0,00
19.951;-0,33;0,64;0,53;-14,04;-1,17;9,49;-3,79;0,48;-0,17;0,00
19.99;-0,33;0,64;0,53;-14,04;-1,17;9,49;-3,04;-0,45;0,90;0,00
19.991;-0,10;0,75;0,29;-14,04;-1,17;9,49;-3,04;-0,45;0,90;0,00
20.009;-0,10;0,75;0,29;0,23;7,60;7,16;-3,04;-0,45;0,90;0,00
20.01;0,07;0,84;0,25;0,23;7,60;7,16;-3,04;-0,45;0,90;0,00
20.011;0,14;0,90;0,28;0,23;7,60;7,16;-3,04;-0,45;0,90;0,00
20.012;0,14;0,90;0,28;0,25;7,58;7,19;-3,04;-0,45;0,90;0,00
20.068;0,14;0,90;0,28;0,25;7,58;7,19;-0,63;-1,16;0,74;0,00
20.069;0,15;0,89;0,32;0,25;7,58;7,19;-0,63;-1,16;0,74;0,00
20.069;0,01;0,82;0,35;0,25;7,58;7,19;-0,63;-1,16;0,74;0,00
20.079;-0,16;0,74;0,35;0,25;7,58;7,19;-0,63;-1,16;0,74;0,00
20.079;-0,16;0,74;0,35;8,52;10,88;-1,18;-0,63;-1,16;0,74;0,00
20.079;-0,16;0,74;0,35;8,22;10,43;-1,65;-0,63;-1,16;0,74;0,00
20.149;-0,28;0,60;0,54;8,22;10,43;-1,65;-0,63;-1,16;0,74;0,00
20.15;-0,46;0,49;0,88;8,22;10,43;-1,65;-0,63;-1,16;0,74;0,00
20.15;-1,04;0,66;1,42;8,22;10,43;-1,65;-0,63;-1,16;0,74;0,00
20.15;-1,04;0,66;1,42;8,22;10,43;-1,65;2,30;-1,22;0,65;0,00
20.151;-2,02;0,79;2,42;8,22;10,43;-1,65;2,30;-1,22;0,65;0,00
20.151;-2,02;0,79;2,42;7,66;9,56;-1,65;2,30;-1,22;0,65;0,00
20.189;-2,62;0,34;2,79;7,66;9,56;-1,65;2,30;-1,22;0,65;0,00
20.189;-2,62;0,34;2,79;7,66;9,56;-1,65;4,81;-0,05;1,45;0,00
20.217;-2,85;-0,16;2,37;7,66;9,56;-1,65;4,81;-0,05;1,45;0,00
20.218;-2,79;-0,47;2,18;7,66;9,56;-1,65;4,81;-0,05;1,45;0,00
20.218;-2,79;-0,47;2,18;-2,36;6,76;8,35;4,81;-0,05;1,45;0,00
20.218;-2,79;-0,47;2,18;-2,30;5,00;8,31;4,81;-0,05;1,45;0,00
20.269;-1,96;-0,60;1,29;-2,30;5,00;8,31;4,81;-0,05;1,45;0,00
20.271;-1,05;-0,57;0,65;-2,30;5,00;8,31;4,81;-0,05;1,45;0,00
20.272;-1,05;-0,57;0,65;-2,30;5,00;8,31;4,59;0,01;1,50;0,00
20.284;-0,59;-0,56;0,47;-2,30;5,00;8,31;4,59;0,01;1,50;0,00
20.289;-0,59;-0,56;0,47;-17,94;-4,45;17,30;4,59;0,01;1,50;0,00
20.29;-0,59;-0,56;0,47;-18,00;-5,56;17,23;4,59;0,01;1,50;0,00
20.291;-0,40;-0,65;0,37;-18,00;-5,56;17,23;4,59;0,01;1,50;0,00
20.349;-0,40;-0,65;0,37;-18,00;-5,56;17,23;3,19;-0,43;-0,22;0,00
20.349;-0,25;-0,67;0,12;-18,00;-5,56;17,23;3,19;-0,43;-0,22;0,00
20.349;0,01;-0,76;-0,14;-18,00;-5,56;17,23;3,19;-0,43;-0,22;0,00
20.35;0,35;-0,85;-0,23;-18,00;-5,56;17,23;3,19;-0,43;-0,22;0,00
20.359;0,35;-0,85;-0,23;0,07;-10,25;0,59;3,19;-0,43;-0,22;0,00
20.359;0,35;-0,85;-0,23;0,25;-10,27;1,06;3,19;-0,43;-0,22;0,00
20.389;0,35;-0,85;-0,23;0,25;-10,27;1,06;1,55;-0,10;-1,04;0,00
20.389;0,43;-0,83;-0,13;0,25;-10,27;1,06;1,55;-0,10;-1,04;0,00
20.421;0,37;-0,74;0,03;0,25;-10,27;1,06;1,55;-0,10;-1,04;0,00
20.421;0,25;-0,63;0,11;0,25;-10,27;1,06;1,55;-0,10;-1,04;0,00
20.438;0,02;-0,59;0,13;0,25;-10,27;1,06;1,55;-0,10;-1,04;0,00
20.438;0,02;-0,59;0,13;9,25;-11,68;-5,26;1,55;-0,10;-1,04;0,00
20.469;-0,32;-0,57;-0,01;9,25;-11,68;-5,26;1,55;-0,10;-1,04;0,00
20.469;-0,32;-0,57;-0,01;9,25;-11,68;-5,26;-1,79;-0,37;-1,65;0,00
20.485;-0,98;-0,41;-0,06;9,25;-11,68;-5,26;-1,79;-0,37;-1,65;0,00
20.499;-2,00;-0,63;1,04;9,25;-11,68;-5,26;-1,79;-0,37;-1,65;0,00
20.5;-2,00;-0,63;1,04;10,66;-9,91;-3,96;-1,79;-0,37;-1,65;0,00
20.5;-2,00;-0,63;1,04;10,66;-8,62;-4,20;-1,79;-0,37;-1,65;0,00
20.549;-3,05;-0,89;1,88;10,66;-8,62;-4,20;-1,79;-0,37;-1,65;0,00
20.55;-3,30;-0,88;1,65;10,66;-8,62;-4,20;-1,79;-0,37;-1,65;0,00
20.55;-3,30;-0,88;1,65;10,66;-8,62;-4,20;-4,87;1,31;-1,76;0,00
20.551;-2,89;-0,84;1,21;10,66;-8,62;-4,20;-4,87;1,31;-1,76;0,00
20.569;-1,80;-0,17;0,87;10,66;-8,62;-4,20;-4,87;1,31;-1,76;0,00
20.57;-1,80;-0,17;0,87;-4,65;-6,09;0,73;-4,87;1,31;-1,76;0,00
20.57;-1,80;-0,17;0,87;-4,54;-4,38;0,95;-4,87;1,31;-1,76;0,00
20.589;-1,80;-0,17;0,87;-4,54;-4,38;0,95;-3,61;-0,70;-1,45;0,00
20.618;-1,25;0,39;1,26;-4,54;-4,38;0,95;-3,61;-0,70;-1,45;0,00
20.619;-0,86;0,59;1,42;-4,54;-4,38;0,95;-3,61;-0,70;-1,45;0,00
20.639;-0,44;0,68;1,18;-4,54;-4,38;0,95;-3,61;-0,70;-1,45;0,00
20.64;-0,44;0,68;1,18;-17,93;-4,10;8,45;-3,61;-0,70;-1,45;0,00
20.641;-0,44;0,68;1,18;-17,63;-3,34;8,75;-3,61;-0,70;-1,45;0,00
20.669;-0,44;0,68;1,18;-17,63;-3,34;8,75;-3,26;0,03;0,01;0,00
20.669;-0,28;0,71;0,79;-17,63;-3,34;8,75;-3,26;0,03;0,01;0,00
20.684;-0,13;0,71;0,40;-17,63;-3,34;8,75;-3,26;0,03;0,01;0,00
20.709;-0,00;0,71;0,24;-17,63;-3,34;8,75;-3,26;0,03;0,01;0,00
20.71;0,09;0,74;0,19;-17,63;-3,34;8,75;-3,26;0,03;0,01;0,00
20.711;0,09;0,74;0,19;1,61;9,07;7,97;-3,26;0,03;0,01;0,00
20.749;0,07;0,87;0,19;1,61;9,07;7,97;-3,26;0,03;0,01;0,00
20.75;0,07;0,87;0,19;1,61;9,07;7,97;-2,30;-1,00;1,09;0,00
20.751;0,01;0,87;0,16;1,61;9,07;7,97;-2,30;-1,00;1,09;0,00
20.779;-0,01;0,80;0,13;1,61;9,07;7,97;-2,30;-1,00;1,09;0,00
20.781;-0,01;0,80;0,13;8,56;10,31;-0,85;-2,30;-1,00;1,09;0,00
20.782;-0,01;0,80;0,13;8,44;9,90;-0,98;-2,30;-1,00;1,09;0,00
20.789;-0,01;0,80;0,13;8,44;9,90;-0,98;-0,42;-1,59;1,25;0,00
20.818;-0,05;0,74;0,13;8,44;9,90;-0,98;-0,42;-1,59;1,25;0,00
20.819;-0,19;0,65;0,24;8,44;9,90;-0,98;-0,42;-1,59;1,25;0,00
20.849;-0,19;0,65;0,24;8,73;10,43;-3,23;-0,42;-1,59;1,25;0,00
20.851;-0,19;0,65;0,24;8,22;9,57;-4,01;-0,42;-1,59;1,25;0,00
20.852;-0,41;0,61;0,68;8,22;9,57;-4,01;-0,42;-1,59;1,25;0,00
20.852;-0,84;1,02;1,15;8,22;9,57;-4,01;-0,42;-1,59;1,25;0,00
20.871;-0,84;1,02;1,15;8,22;9,57;-4,01;2,90;-1,57;0,73;0,00
20.884;-2,23;1,25;2,66;8,22;9,57;-4,01;2,90;-1,57;0,73;0,00
20.92;-2,23;1,25;2,66;3,67;7,56;-0,07;2,90;-1,57;0,73;0,00
20.921;-2,23;1,25;2,66;3,88;6,02;0,44;2,90;-1,57;0,73;0,00
20.921;-2,95;0,59;3,03;3,88;6,02;0,44;2,90;-1,57;0,73;0,00
20.922;-3,27;-0,20;2,79;3,88;6,02;0,44;2,90;-1,57;0,73;0,00
20.949;-3,27;-0,20;2,79;3,88;6,02;0,44;5,68;1,13;0,46;0,00
20.95;-2,70;-0,46;2,33;3,88;6,02;0,44;5,68;1,13;0,46;0,00
20.951;-1,68;-0,58;1,39;3,88;6,02;0,44;5,68;1,13;0,46;0,00
20.989;-0,97;-0,54;0,85;3,88;6,02;0,44;5,68;1,13;0,46;0,00
20.99;-0,97;-0,54;0,85;3,88;6,02;0,44;5,11;-0,69;1,06;0,00
20.99;-0,54;-0,73;0,67;3,88;6,02;0,44;5,11;-0,69;1,06;0,00
20.99;-0,54;-0,73;0,67;-19,45;1,13;22,15;5,11;-0,69;1,06;0,00
21.019;-0,16;-0,86;0,22;-19,45;1,13;22,15;5,11;-0,69;1,06;0,00
21.059;0,15;-0,95;-0,13;-19,45;1,13;22,15;5,11;-0,69;1,06;0,00
21.059;0,33;-0,97;-0,27;-19,45;1,13;22,15;5,11;-0,69;1,06;0,00
21.059;0,33;-0,97;-0,27;-4,35;-10,03;6,12;5,11;-0,69;1,06;0,00
21.06;0,33;-0,97;-0,27;-4,39;-10,53;6,45;5,11;-0,69;1,06;0,00
21.071;0,33;-0,97;-0,27;-4,39;-10,53;6,45;3,16;-0,54;-0,49;0,00
21.084;0,41;-0,96;-0,21;-4,39;-10,53;6,45;3,16;-0,54;-0,49;0,00
21.13;0,48;-0,94;-0,11;-4,39;-10,53;6,45;3,16;-0,54;-0,49;0,00
21.131;0,40;-0,79;-0,09;-4,39;-10,53;6,45;3,16;-0,54;-0,49;0,00
21.131;0,14;-0,70;0,03;-4,39;-10,53;6,45;3,16;-0,54;-0,49;0,00
21.133;0,14;-0,70;0,03;9,43;-13,65;-5,02;3,16;-0,54;-0,49;0,00
21.133;0,14;-0,70;0,03;9,50;-12,97;-4,96;3,16;-0,54;-0,49;0,00
21.149;0,14;-0,70;0,03;9,50;-12,97;-4,96;0,21;-0,34;-1,75;0,00
21.151;-0,26;-0,76;0,23;9,50;-12,97;-4,96;0,21;-0,34;-1,75;0,00
21.188;-0,63;-0,76;0,23;9,50;-12,97;-4,96;0,21;-0,34;-1,75;0,00
21.189;-0,63;-0,76;0,23;9,50;-12,97;-4,96;-3,23;0,57;-2,13;0,00
21.201;-1,18;-0,62;-0,01;9,50;-12,97;-4,96;-3,23;0,57;-2,13;0,00
21.201;-1,18;-0,62;-0,01;11,57;-10,72;-5,08;-3,23;0,57;-2,13;0,00
21.201;-1,18;-0,62;-0,01;11,68;-9,25;-4,99;-3,23;0,57;-2,13;0,00
21.218;-2,24;-0,75;1,30;11,68;-9,25;-4,99;-3,23;0,57;-2,13;0,00
21.269;-2,24;-0,75;1,30;0,09;-6,38;-1,58;-3,23;0,57;-2,13;0,00
21.27;-2,24;-0,75;1,30;0,09;-6,38;-1,58;-5,69;0,32;-1,81;0,00
21.271;-3,05;-0,99;2,06;0,09;-6,38;-1,58;-5,69;0,32;-1,81;0,00
21.271;-3,22;-0,77;1,75;0,09;-6,38;-1,58;-5,69;0,32;-1,81;0,00
21.271;-2,86;-0,69;1,30;0,09;-6,38;-1,58;-5,69;0,32;-1,81;0,00
21.339;-1,96;-0,31;0,90;0,09;-6,38;-1,58;-5,69;0,32;-1,81;0,00
21.34;-1,38;0,06;1,15;0,09;-6,38;-1,58;-5,69;0,32;-1,81;0,00
21.34;-0,93;0,32;1,25;0,09;-6,38;-1,58;-5,69;0,32;-1,81;0,00
21.341;-0,93;0,32;1,25;-20,75;-5,92;12,79;-5,69;0,32;-1,81;0,00
21.341;-0,93;0,32;1,25;-20,49;-5,18;12,80;-5,69;0,32;-1,81;0,00
21.349;-0,93;0,32;1,25;-20,49;-5,18;12,80;-3,87;-0,40;0,03;0,00
21.351;-0,53;0,48;1,03;-20,49;-5,18;12,80;-3,87;-0,40;0,03;0,00
21.389;-0,33;0,58;0,70;-20,49;-5,18;12,80;-3,87;-0,40;0,03;0,00
21.39;-0,33;0,58;0,70;-20,49;-5,18;12,80;-3,04;-0,15;0,94;0,00
21.409;-0,12;0,65;0,31;-20,49;-5,18;12,80;-3,04;-0,15;0,94;0,00
21.411;0,04;0,74;0,06;-20,49;-5,18;12,80;-3,04;-0,15;0,94;0,00
21.411;0,04;0,74;0,06;-3,74;3,87;7,13;-3,04;-0,15;0,94;0,00
21.412;0,04;0,74;0,06;-3,60;3,87;7,26;-3,04;-0,15;0,94;0,00
21.469;0,14;0,91;0,03;-3,60;3,87;7,26;-3,04;-0,15;0,94;0,00
21.471;0,22;1,12;0,18;-3,60;3,87;7,26;-3,04;-0,15;0,94;0,00
21.471;0,22;1,12;0,18;-3,60;3,87;7,26;-1,38;-0,84;1,13;0,00
21.479;0,15;1,16;0,37;-3,60;3,87;7,26;-1,38;-0,84;1,13;0,00
21.479;0,15;1,16;0,37;7,30;9,00;0,77;-1,38;-0,84;1,13;0,00
21.48;0,15;1,16;0,37;7,17;8,56;0,53;-1,38;-0,84;1,13;0,00
21.55;0,15;1,16;0,37;10,19;12,00;-2,19;-1,38;-0,84;1,13;0,00
21.55;0,15;1,16;0,37;10,19;12,00;-2,19;0,81;-1,55;1,13;0,00
21.55;0,08;1,04;0,39;10,19;12,00;-2,19;0,81;-1,55;1,13;0,00
21.551;0,01;0,83;0,32;10,19;12,00;-2,19;0,81;-1,55;1,13;0,00
21.551;-0,21;0,70;0,43;10,19;12,00;-2,19;0,81;-1,55;1,13;0,00
21.551;-0,65;0,64;0,78;10,19;12,00;-2,19;0,81;-1,55;1,13;0,00
21.589;-1,18;1,12;1,55;10,19;12,00;-2,19;0,81;-1,55;1,13;0,00
21.592;-1,18;1,12;1,55;10,19;12,00;-2,19;3,84;-1,48;1,61;0,00
21.619;-2,33;1,17;2,64;10,19;12,00;-2,19;3,84;-1,48;1,61;0,00
21.619;-2,98;0,65;2,56;10,19;12,00;-2,19;3,84;-1,48;1,61;0,00
21.62;-2,98;0,65;2,56;5,94;8,05;-0,32;3,84;-1,48;1,61;0,00
21.62;-2,98;0,65;2,56;5,55;6,49;-0,71;3,84;-1,48;1,61;0,00
21.672;-2,98;0,65;2,56;5,55;6,49;-0,71;5,71;0,25;1,60;0,00
21.673;-3,33;0,12;2,50;5,55;6,49;-0,71;5,71;0,25;1,60;0,00
21.673;-2,77;-0,31;2,08;5,55;6,49;-0,71;5,71;0,25;1,60;0,00
21.714;-1,66;-0,45;1,03;5,55;6,49;-0,71;5,71;0,25;1,60;0,00
21.716;-0,90;-0,46;0,59;5,55;6,49;-0,71;5,71;0,25;1,60;0,00
21.717;-0,90;-0,46;0,59;-14,87;5,67;16,95;5,71;0,25;1,60;0,00
21.719;-0,90;-0,46;0,59;-14,79;4,07;17,54;5,71;0,25;1,60;0,00
21.749;-0,90;-0,46;0,59;-14,79;4,07;17,54;4,09;-1,17;0,22;0,00
21.75;-0,53;-0,50;0,46;-14,79;4,07;17,54;4,09;-1,17;0,22;0,00
21.75;-0,22;-0,61;0,37;-14,79;4,07;17,54;4,09;-1,17;0,22;0,00
21.751;-0,02;-0,77;0,14;-14,79;4,07;17,54;4,09;-1,17;0,22;0,00
21.759;-0,02;-0,77;0,14;-11,62;-8,64;9,60;4,09;-1,17;0,22;0,00
21.76;-0,02;-0,77;0,14;-11,32;-8,73;9,95;4,09;-1,17;0,22;0,00
21.789;-0,02;-0,77;0,14;-11,32;-8,73;9,95;2,28;-0,25;-1,40;0,00
21.789;0,17;-0,82;-0,10;-11,32;-8,73;9,95;2,28;-0,25;-1,40;0,00
21.817;0,28;-0,80;-0,01;-11,32;-8,73;9,95;2,28;-0,25;-1,40;0,00
21.818;0,31;-0,72;0,15;-11,32;-8,73;9,95;2,28;-0,25;-1,40;0,00
21.83;0,26;-0,61;0,10;-11,32;-8,73;9,95;2,28;-0,25;-1,40;0,00
21.831;0,26;-0,61;0,10;6,48;-11,32;-1,05;2,28;-0,25;-1,40;0,00
21.869;0,26;-0,61;0,10;6,48;-11,32;-1,05;-0,33;-0,79;-1,66;0,00
