time;gFx;gFy;gFz;ax;ay;az;wx;wy;wz;P
0.01;-0,21;0,71;0,64;0,92;0,99;-0,83;0,27;-0,09;-0,33;964,14
0.011;-0,21;0,71;0,64;0,92;0,99;-0,83;0,22;-0,22;-0,35;964,14
0.015;-0,17;0,78;0,66;0,92;0,99;-0,83;0,22;-0,22;-0,35;964,14
0.016;-0,11;0,73;0,60;0,92;0,99;-0,83;0,22;-0,22;-0,35;964,14
0.016;-0,09;0,75;0,55;0,92;0,99;-0,83;0,22;-0,22;-0,35;964,14
0.027;-0,09;0,75;0,55;0,92;0,99;-0,83;0,22;-0,22;-0,35;964,12
0.069;-0,09;0,75;0,55;2,23;1,36;-1,72;0,22;-0,22;-0,35;964,12
0.069;-0,09;0,75;0,55;2,23;1,36;-1,72;0,15;-0,11;-0,67;964,12
0.077;-0,09;0,81;0,54;2,23;1,36;-1,72;0,15;-0,11;-0,67;964,12
0.077;-0,08;0,77;0,55;2,23;1,36;-1,72;0,15;-0,11;-0,67;964,12
0.077;-0,06;0,78;0,56;2,23;1,36;-1,72;0,15;-0,11;-0,67;964,12
0.129;-0,06;0,78;0,56;2,91;1,78;-1,49;0,15;-0,11;-0,67;964,12
0.129;-0,06;0,78;0,56;2,91;1,78;-1,49;-0,03;0,73;-1,04;964,12
0.13;-0,06;0,78;0,56;2,91;1,78;-1,49;-0,03;0,73;-1,04;964,16
0.137;-0,13;0,75;0,51;2,91;1,78;-1,49;-0,03;0,73;-1,04;964,16
0.137;-0,10;0,75;0,48;2,91;1,78;-1,49;-0,03;0,73;-1,04;964,16
0.138;-0,25;0,64;0,51;2,91;1,78;-1,49;-0,03;0,73;-1,04;964,16
0.189;-0,25;0,64;0,51;2,08;0,74;-1,68;-0,03;0,73;-1,04;964,16
0.189;-0,25;0,64;0,51;2,08;0,74;-1,68;-0,28;2,64;-1,77;964,16
0.195;-0,28;0,55;0,49;2,08;0,74;-1,68;-0,28;2,64;-1,77;964,16
0.196;-0,30;0,49;0,41;2,08;0,74;-1,68;-0,28;2,64;-1,77;964,16
0.196;-0,32;0,44;0,29;2,08;0,74;-1,68;-0,28;2,64;-1,77;964,16
0.228;-0,32;0,44;0,29;2,08;0,74;-1,68;-0,28;2,64;-1,77;964,16
0.249;-0,32;0,44;0,29;3,51;-0,22;-2,75;-0,28;2,64;-1,77;964,16
0.249;-0,32;0,44;0,29;3,51;-0,22;-2,75;-0,71;4,58;-3,29;964,16
0.255;-0,30;0,41;0,23;3,51;-0,22;-2,75;-0,71;4,58;-3,29;964,16
0.255;-0,54;0,21;0,29;3,51;-0,22;-2,75;-0,71;4,58;-3,29;964,16
0.255;-0,67;0,01;0,34;3,51;-0,22;-2,75;-0,71;4,58;-3,29;964,16
0.311;-0,67;0,01;0,34;2,21;-2,38;-0,29;-0,71;4,58;-3,29;964,16
0.311;-0,67;0,01;0,34;2,21;-2,38;-0,29;-0,63;5,00;-4,84;964,16
0.315;-0,75;-0,09;0,25;2,21;-2,38;-0,29;-0,63;5,00;-4,84;964,16
0.315;-0,69;-0,23;0,13;2,21;-2,38;-0,29;-0,63;5,00;-4,84;964,16
0.315;-0,66;-0,51;0,07;2,21;-2,38;-0,29;-0,63;5,00;-4,84;964,16
0.327;-0,66;-0,51;0,07;2,21;-2,38;-0,29;-0,63;5,00;-4,84;964,17
0.367;-0,66;-0,51;0,07;3,30;-4,41;-0,23;-0,63;5,00;-4,84;964,17
0.367;-0,66;-0,51;0,07;3,30;-4,41;-0,23;-0,07;3,79;-5,81;964,17
0.375;-0,78;-0,71;-0,02;3,30;-4,41;-0,23;-0,07;3,79;-5,81;964,17
0.375;-0,89;-0,87;-0,13;3,30;-4,41;-0,23;-0,07;3,79;-5,81;964,17
0.375;-0,90;-0,98;-0,17;3,30;-4,41;-0,23;-0,07;3,79;-5,81;964,17
0.428;-0,90;-0,98;-0,17;0,16;-5,65;-0,84;-0,07;3,79;-5,81;964,17
0.428;-0,90;-0,98;-0,17;0,16;-5,65;-0,84;-0,20;2,55;-5,90;964,17
0.429;-0,90;-0,98;-0,17;0,16;-5,65;-0,84;-0,20;2,55;-5,90;964,16
0.435;-0,84;-1,05;-0,13;0,16;-5,65;-0,84;-0,20;2,55;-5,90;964,16
0.435;-0,76;-1,16;-0,10;0,16;-5,65;-0,84;-0,20;2,55;-5,90;964,16
0.435;-0,66;-1,21;-0,13;0,16;-5,65;-0,84;-0,20;2,55;-5,90;964,16
0.487;-0,66;-1,21;-0,13;0,37;-5,12;0,77;-0,20;2,55;-5,90;964,16
0.488;-0,66;-1,21;-0,13;0,37;-5,12;0,77;-0,31;1,46;-5,81;964,16
0.496;-0,62;-1,25;-0,22;0,37;-5,12;0,77;-0,31;1,46;-5,81;964,16
0.497;-0,64;-1,27;-0,33;0,37;-5,12;0,77;-0,31;1,46;-5,81;964,16
0.497;-0,69;-1,33;-0,37;0,37;-5,12;0,77;-0,31;1,46;-5,81;964,16
0.527;-0,69;-1,33;-0,37;0,37;-5,12;0,77;-0,31;1,46;-5,81;964,16
0.549;-0,69;-1,33;-0,37;-2,60;-4,49;-1,13;-0,31;1,46;-5,81;964,16
0.552;-0,69;-1,33;-0,37;-2,60;-4,49;-1,13;-0,81;-0,61;-5,44;964,16
0.555;-0,69;-1,29;-0,33;-2,60;-4,49;-1,13;-0,81;-0,61;-5,44;964,16
0.555;-0,67;-1,29;-0,30;-2,60;-4,49;-1,13;-0,81;-0,61;-5,44;964,16
0.555;-0,68;-1,34;-0,27;-2,60;-4,49;-1,13;-0,81;-0,61;-5,44;964,16
0.61;-0,68;-1,34;-0,27;-5,16;-3,85;0,18;-0,81;-0,61;-5,44;964,16
0.61;-0,68;-1,34;-0,27;-5,16;-3,85;0,18;-0,80;-0,62;-4,30;964,16
0.616;-0,69;-1,40;-0,25;-5,16;-3,85;0,18;-0,80;-0,62;-4,30;964,16
0.617;-0,71;-1,39;-0,26;-5,16;-3,85;0,18;-0,80;-0,62;-4,30;964,16
0.617;-0,73;-1,37;-0,27;-5,16;-3,85;0,18;-0,80;-0,62;-4,30;964,16
0.627;-0,73;-1,37;-0,27;-5,16;-3,85;0,18;-0,80;-0,62;-4,30;964,22
0.668;-0,73;-1,37;-0,27;-7,54;-4,17;0,48;-0,80;-0,62;-4,30;964,22
0.669;-0,73;-1,37;-0,27;-7,54;-4,17;0,48;-0,44;-1,08;-3,00;964,22
0.676;-0,75;-1,38;-0,31;-7,54;-4,17;0,48;-0,44;-1,08;-3,00;964,22
0.677;-0,82;-1,34;-0,44;-7,54;-4,17;0,48;-0,44;-1,08;-3,00;964,22
0.677;-0,83;-1,28;-0,48;-7,54;-4,17;0,48;-0,44;-1,08;-3,00;964,22
0.73;-0,83;-1,28;-0,48;-9,79;-3,53;-1,27;-0,44;-1,08;-3,00;964,22
0.731;-0,83;-1,28;-0,48;-9,79;-3,53;-1,27;-0,19;-0,72;-1,85;964,22
0.731;-0,83;-1,28;-0,48;-9,79;-3,53;-1,27;-0,19;-0,72;-1,85;964,25
0.737;-0,83;-1,19;-0,45;-9,79;-3,53;-1,27;-0,19;-0,72;-1,85;964,25
0.737;-0,82;-1,08;-0,41;-9,79;-3,53;-1,27;-0,19;-0,72;-1,85;964,25
0.738;-0,81;-0,97;-0,36;-9,79;-3,53;-1,27;-0,19;-0,72;-1,85;964,25
0.79;-0,81;-0,97;-0,36;-10,24;-0,66;-0,10;-0,19;-0,72;-1,85;964,25
0.791;-0,81;-0,97;-0,36;-10,24;-0,66;-0,10;0,25;0,42;-0,81;964,25
0.794;-0,82;-0,93;-0,34;-10,24;-0,66;-0,10;0,25;0,42;-0,81;964,25
0.794;-0,86;-0,92;-0,37;-10,24;-0,66;-0,10;0,25;0,42;-0,81;964,25
0.795;-0,88;-0,92;-0,41;-10,24;-0,66;-0,10;0,25;0,42;-0,81;964,25
0.829;-0,88;-0,92;-0,41;-10,24;-0,66;-0,10;0,25;0,42;-0,81;964,25
0.851;-0,88;-0,92;-0,41;-11,16;-0,08;-0,90;0,25;0,42;-0,81;964,25
0.851;-0,88;-0,92;-0,41;-11,16;-0,08;-0,90;0,42;0,63;0,63;964,25
0.856;-0,86;-0,89;-0,41;-11,16;-0,08;-0,90;0,42;0,63;0,63;964,25
0.856;-0,83;-0,94;-0,43;-11,16;-0,08;-0,90;0,42;0,63;0,63;964,25
0.856;-0,84;-0,98;-0,47;-11,16;-0,08;-0,90;0,42;0,63;0,63;964,25
0.909;-0,84;-0,98;-0,47;-10,15;-0,39;-1,70;0,42;0,63;0,63;964,25
0.91;-0,84;-0,98;-0,47;-10,15;-0,39;-1,70;0,27;0,15;2,48;964,25
0.915;-0,84;-1,00;-0,49;-10,15;-0,39;-1,70;0,27;0,15;2,48;964,25
0.915;-0,73;-1,08;-0,46;-10,15;-0,39;-1,70;0,27;0,15;2,48;964,25
0.915;-0,62;-1,14;-0,41;-10,15;-0,39;-1,70;0,27;0,15;2,48;964,25
0.926;-0,62;-1,14;-0,41;-10,15;-0,39;-1,70;0,27;0,15;2,48;964,29
0.968;-0,62;-1,14;-0,41;-6,36;-1,79;-1,28;0,27;0,15;2,48;964,29
0.969;-0,62;-1,14;-0,41;-6,36;-1,79;-1,28;0,22;1,02;3,49;964,29
0.976;-0,56;-1,22;-0,35;-6,36;-1,79;-1,28;0,22;1,02;3,49;964,29
0.976;-0,49;-1,20;-0,28;-6,36;-1,79;-1,28;0,22;1,02;3,49;964,29
0.976;-0,45;-1,14;-0,21;-6,36;-1,79;-1,28;0,22;1,02;3,49;964,29
1.028;-0,45;-1,14;-0,21;-2,93;-1,92;0,69;0,22;1,02;3,49;964,29
1.028;-0,45;-1,14;-0,21;-2,93;-1,92;0,69;-0,32;1,40;3,46;964,29
1.028;-0,45;-1,14;-0,21;-2,93;-1,92;0,69;-0,32;1,40;3,46;964,39
1.034;-0,50;-1,25;-0,23;-2,93;-1,92;0,69;-0,32;1,40;3,46;964,39
1.035;-0,53;-1,27;-0,22;-2,93;-1,92;0,69;-0,32;1,40;3,46;964,39
1.035;-0,52;-1,27;-0,21;-2,93;-1,92;0,69;-0,32;1,40;3,46;964,39
1.089;-0,52;-1,27;-0,21;-1,99;-3,67;1,10;-0,32;1,40;3,46;964,39
1.09;-0,52;-1,27;-0,21;-1,99;-3,67;1,10;-0,66;0,46;3,30;964,39
1.094;-0,49;-1,24;-0,20;-1,99;-3,67;1,10;-0,66;0,46;3,30;964,39
1.094;-0,49;-1,24;-0,18;-1,99;-3,67;1,10;-0,66;0,46;3,30;964,39
1.095;-0,45;-1,25;-0,15;-1,99;-3,67;1,10;-0,66;0,46;3,30;964,39
1.128;-0,45;-1,25;-0,15;-1,99;-3,67;1,10;-0,66;0,46;3,30;964,39
1.153;-0,45;-1,25;-0,15;0,30;-4,42;2,12;-0,66;0,46;3,30;964,39
1.154;-0,45;-1,25;-0,15;0,30;-4,42;2,12;-0,58;0,37;3,42;964,39
1.154;-0,42;-1,23;-0,15;0,30;-4,42;2,12;-0,58;0,37;3,42;964,39
1.154;-0,41;-1,23;-0,14;0,30;-4,42;2,12;-0,58;0,37;3,42;964,39
1.156;-0,44;-1,26;-0,15;0,30;-4,42;2,12;-0,58;0,37;3,42;964,39
1.209;-0,44;-1,26;-0,15;1,84;-5,78;2,47;-0,58;0,37;3,42;964,39
1.209;-0,44;-1,26;-0,15;1,84;-5,78;2,47;-0,49;0,01;3,59;964,39
1.215;-0,43;-1,33;-0,20;1,84;-5,78;2,47;-0,49;0,01;3,59;964,39
1.215;-0,39;-1,32;-0,27;1,84;-5,78;2,47;-0,49;0,01;3,59;964,39
1.215;-0,33;-1,30;-0,30;1,84;-5,78;2,47;-0,49;0,01;3,59;964,39
1.227;-0,33;-1,30;-0,30;1,84;-5,78;2,47;-0,49;0,01;3,59;964,34
1.267;-0,33;-1,30;-0,30;4,21;-7,65;1,00;-0,49;0,01;3,59;964,34
1.268;-0,33;-1,30;-0,30;4,21;-7,65;1,00;-0,15;-0,51;3,34;964,34
1.274;-0,35;-1,25;-0,26;4,21;-7,65;1,00;-0,15;-0,51;3,34;964,34
1.274;-0,36;-1,19;-0,24;4,21;-7,65;1,00;-0,15;-0,51;3,34;964,34
1.275;-0,32;-1,11;-0,22;4,21;-7,65;1,00;-0,15;-0,51;3,34;964,34
1.328;-0,32;-1,11;-0,22;5,17;-7,35;1,81;-0,15;-0,51;3,34;964,34
1.328;-0,32;-1,11;-0,22;5,17;-7,35;1,81;0,24;0,81;2,90;964,34
1.328;-0,32;-1,11;-0,22;5,17;-7,35;1,81;0,24;0,81;2,90;964,28
1.336;-0,23;-1,04;-0,23;5,17;-7,35;1,81;0,24;0,81;2,90;964,28
1.336;-0,18;-1,00;-0,25;5,17;-7,35;1,81;0,24;0,81;2,90;964,28
1.336;-0,09;-0,89;-0,24;5,17;-7,35;1,81;0,24;0,81;2,90;964,28
1.39;-0,09;-0,89;-0,24;7,49;-6,07;2,06;0,24;0,81;2,90;964,28
1.391;-0,09;-0,89;-0,24;7,49;-6,07;2,06;1,03;1,34;1,04;964,28
1.395;0,02;-0,75;-0,23;7,49;-6,07;2,06;1,03;1,34;1,04;964,28
1.395;0,03;-0,76;-0,22;7,49;-6,07;2,06;1,03;1,34;1,04;964,28
1.395;-0,04;-0,90;-0,25;7,49;-6,07;2,06;1,03;1,34;1,04;964,28
1.427;-0,04;-0,90;-0,25;7,49;-6,07;2,06;1,03;1,34;1,04;964,28
1.447;-0,04;-0,90;-0,25;7,67;-5,83;2,37;1,03;1,34;1,04;964,28
1.447;-0,04;-0,90;-0,25;7,67;-5,83;2,37;1,97;0,99;-1,11;964,28
1.455;-0,15;-0,96;-0,30;7,67;-5,83;2,37;1,97;0,99;-1,11;964,28
1.456;-0,22;-0,99;-0,38;7,67;-5,83;2,37;1,97;0,99;-1,11;964,28
1.456;-0,23;-0,96;-0,49;7,67;-5,83;2,37;1,97;0,99;-1,11;964,28
1.508;-0,23;-0,96;-0,49;5,18;-5,00;-0,16;1,97;0,99;-1,11;964,28
1.509;-0,23;-0,96;-0,49;5,18;-5,00;-0,16;1,65;0,12;-2,71;964,28
1.514;-0,23;-0,96;-0,57;5,18;-5,00;-0,16;1,65;0,12;-2,71;964,28
1.515;-0,25;-0,96;-0,59;5,18;-5,00;-0,16;1,65;0,12;-2,71;964,28
1.515;-0,27;-0,96;-0,54;5,18;-5,00;-0,16;1,65;0,12;-2,71;964,28
1.527;-0,27;-0,96;-0,54;5,18;-5,00;-0,16;1,65;0,12;-2,71;964,21
1.568;-0,27;-0,96;-0,54;3,75;-3,32;-1,14;1,65;0,12;-2,71;964,21
1.568;-0,27;-0,96;-0,54;3,75;-3,32;-1,14;0,75;-0,66;-3,82;964,21
1.575;-0,27;-0,96;-0,45;3,75;-3,32;-1,14;0,75;-0,66;-3,82;964,21
1.575;-0,24;-0,96;-0,32;3,75;-3,32;-1,14;0,75;-0,66;-3,82;964,21
1.575;-0,25;-0,95;-0,22;3,75;-3,32;-1,14;0,75;-0,66;-3,82;964,21
1.628;-0,25;-0,95;-0,22;2,40;-1,59;1,53;0,75;-0,66;-3,82;964,21
1.629;-0,25;-0,95;-0,22;2,40;-1,59;1,53;0,17;-1,12;-4,77;964,21
1.63;-0,25;-0,95;-0,22;2,40;-1,59;1,53;0,17;-1,12;-4,77;964,23
1.635;-0,27;-0,95;-0,19;2,40;-1,59;1,53;0,17;-1,12;-4,77;964,23
1.636;-0,33;-0,98;-0,21;2,40;-1,59;1,53;0,17;-1,12;-4,77;964,23
1.636;-0,40;-1,03;-0,25;2,40;-1,59;1,53;0,17;-1,12;-4,77;964,23
1.687;-0,40;-1,03;-0,25;-1,25;-1,25;0,93;0,17;-1,12;-4,77;964,23
1.688;-0,40;-1,03;-0,25;-1,25;-1,25;0,93;-0,31;-2,02;-5,03;964,23
1.695;-0,47;-1,08;-0,32;-1,25;-1,25;0,93;-0,31;-2,02;-5,03;964,23
1.695;-0,52;-1,12;-0,40;-1,25;-1,25;0,93;-0,31;-2,02;-5,03;964,23
1.696;-0,53;-1,16;-0,44;-1,25;-1,25;0,93;-0,31;-2,02;-5,03;964,23
1.726;-0,53;-1,16;-0,44;-1,25;-1,25;0,93;-0,31;-2,02;-5,03;964,23
1.749;-0,53;-1,16;-0,44;-4,69;-2,16;-0,86;-0,31;-2,02;-5,03;964,23
1.75;-0,53;-1,16;-0,44;-4,69;-2,16;-0,86;-0,52;-2,52;-4,62;964,23
1.755;-0,53;-1,20;-0,40;-4,69;-2,16;-0,86;-0,52;-2,52;-4,62;964,23
1.756;-0,55;-1,23;-0,35;-4,69;-2,16;-0,86;-0,52;-2,52;-4,62;964,23
1.757;-0,56;-1,25;-0,32;-4,69;-2,16;-0,86;-0,52;-2,52;-4,62;964,23
1.807;-0,56;-1,25;-0,32;-6,88;-3,27;0,57;-0,52;-2,52;-4,62;964,23
1.808;-0,56;-1,25;-0,32;-6,88;-3,27;0,57;-0,36;-1,62;-3,37;964,23
1.814;-0,61;-1,26;-0,34;-6,88;-3,27;0,57;-0,36;-1,62;-3,37;964,23
1.814;-0,68;-1,24;-0,38;-6,88;-3,27;0,57;-0,36;-1,62;-3,37;964,23
1.815;-0,67;-1,11;-0,28;-6,88;-3,27;0,57;-0,36;-1,62;-3,37;964,23
1.828;-0,67;-1,11;-0,28;-6,88;-3,27;0,57;-0,36;-1,62;-3,37;964,32
1.867;-0,67;-1,11;-0,28;-9,00;-2,28;1,18;-0,36;-1,62;-3,37;964,32
1.868;-0,67;-1,11;-0,28;-9,00;-2,28;1,18;0,13;-0,68;-1,49;964,32
1.874;-0,71;-1,16;-0,33;-9,00;-2,28;1,18;0,13;-0,68;-1,49;964,32
1.875;-0,67;-1,10;-0,31;-9,00;-2,28;1,18;0,13;-0,68;-1,49;964,32
1.875;-0,68;-1,08;-0,35;-9,00;-2,28;1,18;0,13;-0,68;-1,49;964,32
1.929;-0,68;-1,08;-0,35;-9,50;-2,05;0,48;0,13;-0,68;-1,49;964,32
1.93;-0,68;-1,08;-0,35;-9,50;-2,05;0,48;0,46;-0,50;-0,10;964,32
1.93;-0,68;-1,08;-0,35;-9,50;-2,05;0,48;0,46;-0,50;-0,10;964,33
1.935;-0,73;-1,02;-0,37;-9,50;-2,05;0,48;0,46;-0,50;-0,10;964,33
1.936;-0,78;-0,92;-0,41;-9,50;-2,05;0,48;0,46;-0,50;-0,10;964,33
1.936;-0,75;-0,98;-0,44;-9,50;-2,05;0,48;0,46;-0,50;-0,10;964,33
1.987;-0,75;-0,98;-0,44;-9,88;-0,87;-0,63;0,46;-0,50;-0,10;964,33
1.988;-0,75;-0,98;-0,44;-9,88;-0,87;-0,63;0,39;0,08;1,16;964,33
1.994;-0,74;-1,03;-0,51;-9,88;-0,87;-0,63;0,39;0,08;1,16;964,33
1.995;-0,77;-1,02;-0,53;-9,88;-0,87;-0,63;0,39;0,08;1,16;964,33
1.995;-0,73;-1,06;-0,49;-9,88;-0,87;-0,63;0,39;0,08;1,16;964,33
2.027;-0,73;-1,06;-0,49;-9,88;-0,87;-0,63;0,39;0,08;1,16;964,33
2.047;-0,73;-1,06;-0,49;-8,77;-1,35;-1,33;0,39;0,08;1,16;964,33
2.048;-0,73;-1,06;-0,49;-8,77;-1,35;-1,33;0,45;0,70;2,52;964,33
2.055;-0,65;-1,13;-0,44;-8,77;-1,35;-1,33;0,45;0,70;2,52;964,33
2.056;-0,61;-1,20;-0,44;-8,77;-1,35;-1,33;0,45;0,70;2,52;964,33
2.056;-0,58;-1,21;-0,44;-8,77;-1,35;-1,33;0,45;0,70;2,52;964,33
2.107;-0,58;-1,21;-0,44;-5,89;-2,61;-1,14;0,45;0,70;2,52;964,33
2.108;-0,58;-1,21;-0,44;-5,89;-2,61;-1,14;0,20;1,51;3,32;964,33
2.114;-0,50;-1,18;-0,41;-5,89;-2,61;-1,14;0,20;1,51;3,32;964,33
2.114;-0,45;-1,14;-0,38;-5,89;-2,61;-1,14;0,20;1,51;3,32;964,33
2.114;-0,44;-1,14;-0,35;-5,89;-2,61;-1,14;0,20;1,51;3,32;964,33
2.126;-0,44;-1,14;-0,35;-5,89;-2,61;-1,14;0,20;1,51;3,32;964,31
2.168;-0,44;-1,14;-0,35;-2,98;-2,00;-0,20;0,20;1,51;3,32;964,31
2.168;-0,44;-1,14;-0,35;-2,98;-2,00;-0,20;-0,39;1,57;3,44;964,31
2.174;-0,46;-1,15;-0,34;-2,98;-2,00;-0,20;-0,39;1,57;3,44;964,31
2.174;-0,51;-1,16;-0,33;-2,98;-2,00;-0,20;-0,39;1,57;3,44;964,31
2.174;-0,53;-1,17;-0,32;-2,98;-2,00;-0,20;-0,39;1,57;3,44;964,31
2.227;-0,53;-1,17;-0,32;-2,27;-2,90;0,59;-0,39;1,57;3,44;964,31
2.228;-0,53;-1,17;-0,32;-2,27;-2,90;0,59;-0,74;0,68;3,59;964,31
2.229;-0,53;-1,17;-0,32;-2,27;-2,90;0,59;-0,74;0,68;3,59;964,30
2.235;-0,49;-1,18;-0,28;-2,27;-2,90;0,59;-0,74;0,68;3,59;964,30
2.236;-0,44;-1,19;-0,25;-2,27;-2,90;0,59;-0,74;0,68;3,59;964,30
2.237;-0,42;-1,20;-0,21;-2,27;-2,90;0,59;-0,74;0,68;3,59;964,30
2.287;-0,42;-1,20;-0,21;0,46;-4,16;2,10;-0,74;0,68;3,59;964,30
2.287;-0,42;-1,20;-0,21;0,46;-4,16;2,10;-0,78;0,46;3,59;964,30
2.294;-0,41;-1,22;-0,19;0,46;-4,16;2,10;-0,78;0,46;3,59;964,30
2.294;-0,39;-1,22;-0,17;0,46;-4,16;2,10;-0,78;0,46;3,59;964,30
2.294;-0,37;-1,21;-0,16;0,46;-4,16;2,10;-0,78;0,46;3,59;964,30
2.326;-0,37;-1,21;-0,16;0,46;-4,16;2,10;-0,78;0,46;3,59;964,30
2.347;-0,37;-1,21;-0,16;2,37;-5,55;3,06;-0,78;0,46;3,59;964,30
2.348;-0,37;-1,21;-0,16;2,37;-5,55;3,06;-0,62;0,08;3,42;964,30
2.362;-0,34;-1,20;-0,16;2,37;-5,55;3,06;-0,62;0,08;3,42;964,30
2.363;-0,33;-1,18;-0,19;2,37;-5,55;3,06;-0,62;0,08;3,42;964,30
2.364;-0,32;-1,17;-0,21;2,37;-5,55;3,06;-0,62;0,08;3,42;964,30
2.407;-0,32;-1,17;-0,21;3,93;-6,60;2,62;-0,62;0,08;3,42;964,30
2.407;-0,32;-1,17;-0,21;3,93;-6,60;2,62;-0,31;-0,40;2,90;964,30
2.414;-0,31;-1,14;-0,20;3,93;-6,60;2,62;-0,31;-0,40;2,90;964,30
2.415;-0,28;-1,12;-0,18;3,93;-6,60;2,62;-0,31;-0,40;2,90;964,30
2.415;-0,25;-1,07;-0,18;3,93;-6,60;2,62;-0,31;-0,40;2,90;964,30
2.427;-0,25;-1,07;-0,18;3,93;-6,60;2,62;-0,31;-0,40;2,90;964,28
2.467;-0,25;-1,07;-0,18;5,35;-6,78;2,77;-0,31;-0,40;2,90;964,28
2.468;-0,25;-1,07;-0,18;5,35;-6,78;2,77;0,12;-0,25;1,93;964,28
2.474;-0,22;-1,01;-0,20;5,35;-6,78;2,77;0,12;-0,25;1,93;964,28
2.474;-0,19;-0,92;-0,28;5,35;-6,78;2,77;0,12;-0,25;1,93;964,28
2.474;-0,14;-0,80;-0,30;5,35;-6,78;2,77;0,12;-0,25;1,93;964,28
2.526;-0,14;-0,80;-0,30;6,83;-4,61;1,46;0,12;-0,25;1,93;964,28
2.527;-0,14;-0,80;-0,30;6,83;-4,61;1,46;0,70;-0,07;0,00;964,28
2.527;-0,14;-0,80;-0,30;6,83;-4,61;1,46;0,70;-0,07;0,00;964,26
2.534;-0,10;-0,86;-0,24;6,83;-4,61;1,46;0,70;-0,07;0,00;964,26
2.535;-0,10;-0,85;-0,19;6,83;-4,61;1,46;0,70;-0,07;0,00;964,26
2.535;-0,21;-0,84;-0,26;6,83;-4,61;1,46;0,70;-0,07;0,00;964,26
2.587;-0,21;-0,84;-0,26;5,90;-4,43;1,79;0,70;-0,07;0,00;964,26
2.587;-0,21;-0,84;-0,26;5,90;-4,43;1,79;1,00;0,53;-1,32;964,26
2.594;-0,32;-0,85;-0,38;5,90;-4,43;1,79;1,00;0,53;-1,32;964,26
2.595;-0,30;-0,88;-0,44;5,90;-4,43;1,79;1,00;0,53;-1,32;964,26
2.595;-0,27;-0,95;-0,47;5,90;-4,43;1,79;1,00;0,53;-1,32;964,26
2.628;-0,27;-0,95;-0,47;5,90;-4,43;1,79;1,00;0,53;-1,32;964,26
2.647;-0,27;-0,95;-0,47;4,64;-4,32;-0,25;1,00;0,53;-1,32;964,26
2.648;-0,27;-0,95;-0,47;4,64;-4,32;-0,25;1,12;0,57;-2,33;964,26
2.657;-0,28;-0,98;-0,50;4,64;-4,32;-0,25;1,12;0,57;-2,33;964,26
2.658;-0,30;-1,01;-0,48;4,64;-4,32;-0,25;1,12;0,57;-2,33;964,26
2.658;-0,31;-1,00;-0,38;4,64;-4,32;-0,25;1,12;0,57;-2,33;964,26
2.707;-0,31;-1,00;-0,38;3,28;-3,40;0,31;1,12;0,57;-2,33;964,26
2.708;-0,31;-1,00;-0,38;3,28;-3,40;0,31;1,40;0,01;-3,16;964,26
2.716;-0,29;-0,98;-0,27;3,28;-3,40;0,31;1,40;0,01;-3,16;964,26
2.717;-0,28;-0,93;-0,26;3,28;-3,40;0,31;1,40;0,01;-3,16;964,26
2.717;-0,34;-0,89;-0,30;3,28;-3,40;0,31;1,40;0,01;-3,16;964,26
2.728;-0,34;-0,89;-0,30;3,28;-3,40;0,31;1,40;0,01;-3,16;964,27
2.767;-0,34;-0,89;-0,30;1,45;-0,87;0,50;1,40;0,01;-3,16;964,27
2.768;-0,34;-0,89;-0,30;1,45;-0,87;0,50;1,19;-0,13;-3,62;964,27
2.775;-0,39;-0,86;-0,33;1,45;-0,87;0,50;1,19;-0,13;-3,62;964,27
2.775;-0,44;-0,87;-0,33;1,45;-0,87;0,50;1,19;-0,13;-3,62;964,27
2.776;-0,48;-0,88;-0,34;1,45;-0,87;0,50;1,19;-0,13;-3,62;964,27
2.828;-0,48;-0,88;-0,34;-1,71;0,20;-0,43;1,19;-0,13;-3,62;964,27
2.829;-0,48;-0,88;-0,34;-1,71;0,20;-0,43;0,76;-0,23;-3,64;964,27
2.829;-0,48;-0,88;-0,34;-1,71;0,20;-0,43;0,76;-0,23;-3,64;964,30
2.835;-0,51;-0,91;-0,32;-1,71;0,20;-0,43;0,76;-0,23;-3,64;964,30
2.836;-0,52;-0,95;-0,30;-1,71;0,20;-0,43;0,76;-0,23;-3,64;964,30
2.836;-0,54;-0,99;-0,31;-1,71;0,20;-0,43;0,76;-0,23;-3,64;964,30
2.887;-0,54;-0,99;-0,31;-4,22;-0,33;-0,49;0,76;-0,23;-3,64;964,30
2.888;-0,54;-0,99;-0,31;-4,22;-0,33;-0,49;0,34;-0,76;-3,60;964,30
2.895;-0,57;-1,03;-0,33;-4,22;-0,33;-0,49;0,34;-0,76;-3,60;964,30
2.895;-0,61;-1,07;-0,36;-4,22;-0,33;-0,49;0,34;-0,76;-3,60;964,30
2.895;-0,66;-1,09;-0,40;-4,22;-0,33;-0,49;0,34;-0,76;-3,60;964,30
2.928;-0,66;-1,09;-0,40;-4,22;-0,33;-0,49;0,34;-0,76;-3,60;964,30
2.947;-0,66;-1,09;-0,40;-7,10;-1,22;-1,56;0,34;-0,76;-3,60;964,30
2.948;-0,66;-1,09;-0,40;-7,10;-1,22;-1,56;0,07;-1,46;-2,94;964,30
2.958;-0,68;-1,11;-0,45;-7,10;-1,22;-1,56;0,07;-1,46;-2,94;964,30
2.958;-0,70;-1,13;-0,49;-7,10;-1,22;-1,56;0,07;-1,46;-2,94;964,30
2.959;-0,70;-1,13;-0,52;-7,10;-1,22;-1,56;0,07;-1,46;-2,94;964,30
3.009;-0,70;-1,13;-0,52;-8,79;-1,75;-2,67;0,07;-1,46;-2,94;964,30
3.009;-0,70;-1,13;-0,52;-8,79;-1,75;-2,67;-0,04;-0,85;-1,64;964,30
3.016;-0,73;-1,11;-0,55;-8,79;-1,75;-2,67;-0,04;-0,85;-1,64;964,30
3.016;-0,77;-1,08;-0,57;-8,79;-1,75;-2,67;-0,04;-0,85;-1,64;964,30
3.016;-0,80;-1,02;-0,57;-8,79;-1,75;-2,67;-0,04;-0,85;-1,64;964,30
3.027;-0,80;-1,02;-0,57;-8,79;-1,75;-2,67;-0,04;-0,85;-1,64;964,33
3.068;-0,80;-1,02;-0,57;-10,02;-0,80;-3,02;-0,04;-0,85;-1,64;964,33
3.069;-0,80;-1,02;-0,57;-10,02;-0,80;-3,02;-0,01;-0,70;0,17;964,33
3.076;-0,76;-1,00;-0,56;-10,02;-0,80;-3,02;-0,01;-0,70;0,17;964,33
3.076;-0,69;-1,15;-0,58;-10,02;-0,80;-3,02;-0,01;-0,70;0,17;964,33
3.077;-0,74;-1,18;-0,65;-10,02;-0,80;-3,02;-0,01;-0,70;0,17;964,33
3.128;-0,74;-1,18;-0,65;-8,90;-2,30;-3,64;-0,01;-0,70;0,17;964,33
3.129;-0,74;-1,18;-0,65;-8,90;-2,30;-3,64;-0,15;-0,38;1,97;964,33
3.129;-0,74;-1,18;-0,65;-8,90;-2,30;-3,64;-0,15;-0,38;1,97;964,32
3.135;-0,76;-1,19;-0,64;-8,90;-2,30;-3,64;-0,15;-0,38;1,97;964,32
3.136;-0,65;-1,22;-0,55;-8,90;-2,30;-3,64;-0,15;-0,38;1,97;964,32
3.136;-0,54;-1,23;-0,46;-8,90;-2,30;-3,64;-0,15;-0,38;1,97;964,32
3.188;-0,54;-1,23;-0,46;-5,58;-2,68;-1,74;-0,15;-0,38;1,97;964,32
3.189;-0,54;-1,23;-0,46;-5,58;-2,68;-1,74;-0,04;0,63;2,91;964,32
3.196;-0,48;-1,20;-0,43;-5,58;-2,68;-1,74;-0,04;0,63;2,91;964,32
3.196;-0,44;-1,16;-0,42;-5,58;-2,68;-1,74;-0,04;0,63;2,91;964,32
3.196;-0,39;-1,09;-0,43;-5,58;-2,68;-1,74;-0,04;0,63;2,91;964,32
3.228;-0,39;-1,09;-0,43;-5,58;-2,68;-1,74;-0,04;0,63;2,91;964,32
3.247;-0,39;-1,09;-0,43;-2,54;-1,37;-1,29;-0,04;0,63;2,91;964,32
3.248;-0,39;-1,09;-0,43;-2,54;-1,37;-1,29;-0,41;1,08;3,00;964,32
3.254;-0,39;-1,03;-0,41;-2,54;-1,37;-1,29;-0,41;1,08;3,00;964,32
3.26;-0,46;-1,03;-0,35;-2,54;-1,37;-1,29;-0,41;1,08;3,00;964,32
3.26;-0,55;-1,00;-0,28;-2,54;-1,37;-1,29;-0,41;1,08;3,00;964,32
3.309;-0,55;-1,00;-0,28;-2,63;-0,99;0,52;-0,41;1,08;3,00;964,32
3.311;-0,55;-1,00;-0,28;-2,63;-0,99;0,52;-0,54;0,70;3,13;964,32
3.315;-0,51;-0,95;-0,21;-2,63;-0,99;0,52;-0,54;0,70;3,13;964,32
3.316;-0,42;-0,89;-0,16;-2,63;-0,99;0,52;-0,54;0,70;3,13;964,32
3.316;-0,39;-0,88;-0,15;-2,63;-0,99;0,52;-0,54;0,70;3,13;964,32
3.328;-0,39;-0,88;-0,15;-2,63;-0,99;0,52;-0,54;0,70;3,13;964,29
3.369;-0,39;-0,88;-0,15;0,38;-0,58;2,30;-0,54;0,70;3,13;964,29
3.37;-0,39;-0,88;-0,15;0,38;-0,58;2,30;-0,81;0,84;3,00;964,29
3.374;-0,41;-0,87;-0,16;0,38;-0,58;2,30;-0,81;0,84;3,00;964,29
3.375;-0,43;-0,91;-0,18;0,38;-0,58;2,30;-0,81;0,84;3,00;964,29
3.375;-0,44;-0,93;-0,20;0,38;-0,58;2,30;-0,81;0,84;3,00;964,29
3.427;-0,44;-0,93;-0,20;1,04;-2,08;2,36;-0,81;0,84;3,00;964,29
3.428;-0,44;-0,93;-0,20;1,04;-2,08;2,36;-0,93;0,09;2,42;964,29
3.428;-0,44;-0,93;-0,20;1,04;-2,08;2,36;-0,93;0,09;2,42;964,31
3.436;-0,43;-0,99;-0,18;1,04;-2,08;2,36;-0,93;0,09;2,42;964,31
3.437;-0,42;-1,01;-0,17;1,04;-2,08;2,36;-0,93;0,09;2,42;964,31
3.437;-0,38;-1,02;-0,15;1,04;-2,08;2,36;-0,93;0,09;2,42;964,31
3.488;-0,38;-1,02;-0,15;2,46;-3,89;3,06;-0,93;0,09;2,42;964,31
3.489;-0,38;-1,02;-0,15;2,46;-3,89;3,06;-0,55;-0,22;2,02;964,31
3.494;-0,35;-1,00;-0,14;2,46;-3,89;3,06;-0,55;-0,22;2,02;964,31
3.496;-0,33;-0,98;-0,14;2,46;-3,89;3,06;-0,55;-0,22;2,02;964,31
3.496;-0,30;-0,94;-0,16;2,46;-3,89;3,06;-0,55;-0,22;2,02;964,31
3.528;-0,30;-0,94;-0,16;2,46;-3,89;3,06;-0,55;-0,22;2,02;964,31
3.547;-0,30;-0,94;-0,16;3,95;-4,00;3,04;-0,55;-0,22;2,02;964,31
3.548;-0,30;-0,94;-0,16;3,95;-4,00;3,04;-0,08;-0,09;1,49;964,31
3.555;-0,27;-0,94;-0,19;3,95;-4,00;3,04;-0,08;-0,09;1,49;964,31
3.555;-0,26;-0,93;-0,20;3,95;-4,00;3,04;-0,08;-0,09;1,49;964,31
3.555;-0,23;-0,95;-0,19;3,95;-4,00;3,04;-0,08;-0,09;1,49;964,31
3.609;-0,23;-0,95;-0,19;4,98;-4,44;2,67;-0,08;-0,09;1,49;964,31
3.61;-0,23;-0,95;-0,19;4,98;-4,44;2,67;0,45;-0,23;0,24;964,31
3.615;-0,20;-0,90;-0,19;4,98;-4,44;2,67;0,45;-0,23;0,24;964,31
3.615;-0,15;-0,96;-0,24;4,98;-4,44;2,67;0,45;-0,23;0,24;964,31
3.615;-0,11;-1,04;-0,19;4,98;-4,44;2,67;0,45;-0,23;0,24;964,31
3.627;-0,11;-1,04;-0,19;4,98;-4,44;2,67;0,45;-0,23;0,24;964,25
3.668;-0,11;-1,04;-0,19;5,91;-4,83;2,49;0,45;-0,23;0,24;964,25
3.669;-0,11;-1,04;-0,19;5,91;-4,83;2,49;1,19;0,68;-1,54;964,25
3.675;-0,15;-1,02;-0,16;5,91;-4,83;2,49;1,19;0,68;-1,54;964,25
3.677;-0,27;-1,00;-0,24;5,91;-4,83;2,49;1,19;0,68;-1,54;964,25
3.677;-0,32;-1,03;-0,44;5,91;-4,83;2,49;1,19;0,68;-1,54;964,25
3.729;-0,32;-1,03;-0,44;2,92;-3,73;-0,01;1,19;0,68;-1,54;964,25
3.73;-0,32;-1,03;-0,44;2,92;-3,73;-0,01;0,69;0,71;-1,92;964,25
3.73;-0,32;-1,03;-0,44;2,92;-3,73;-0,01;0,69;0,71;-1,92;964,25
3.735;-0,33;-1,04;-0,63;2,92;-3,73;-0,01;0,69;0,71;-1,92;964,25
3.735;-0,34;-1,05;-0,69;2,92;-3,73;-0,01;0,69;0,71;-1,92;964,25
3.735;-0,34;-1,04;-0,60;2,92;-3,73;-0,01;0,69;0,71;-1,92;964,25
3.791;-0,34;-1,04;-0,60;1,85;-3,01;-1,70;0,69;0,71;-1,92;964,25
3.792;-0,34;-1,04;-0,60;1,85;-3,01;-1,70;0,60;0,13;-2,24;964,25
3.794;-0,30;-1,05;-0,44;1,85;-3,01;-1,70;0,60;0,13;-2,24;964,25
3.794;-0,25;-1,03;-0,32;1,85;-3,01;-1,70;0,60;0,13;-2,24;964,25
3.795;-0,25;-0,97;-0,29;1,85;-3,01;-1,70;0,60;0,13;-2,24;964,25
3.828;-0,25;-0,97;-0,29;1,85;-3,01;-1,70;0,60;0,13;-2,24;964,25
3.848;-0,25;-0,97;-0,29;1,66;-1,46;1,01;0,60;0,13;-2,24;964,25
3.849;-0,25;-0,97;-0,29;1,66;-1,46;1,01;0,69;-0,07;-2,47;964,25
3.855;-0,31;-0,90;-0,32;1,66;-1,46;1,01;0,69;-0,07;-2,47;964,25
3.855;-0,34;-0,83;-0,38;1,66;-1,46;1,01;0,69;-0,07;-2,47;964,25
3.856;-0,38;-0,77;-0,44;1,66;-1,46;1,01;0,69;-0,07;-2,47;964,25
3.913;-0,38;-0,77;-0,44;-0,83;1,15;-0,81;0,69;-0,07;-2,47;964,25
3.914;-0,38;-0,77;-0,44;-0,83;1,15;-0,81;0,47;-0,66;-2,64;964,25
3.914;-0,40;-0,75;-0,47;-0,83;1,15;-0,81;0,47;-0,66;-2,64;964,25
3.915;-0,41;-0,75;-0,44;-0,83;1,15;-0,81;0,47;-0,66;-2,64;964,25
3.915;-0,42;-0,77;-0,43;-0,83;1,15;-0,81;0,47;-0,66;-2,64;964,25
3.927;-0,42;-0,77;-0,43;-0,83;1,15;-0,81;0,47;-0,66;-2,64;964,27
3.97;-0,42;-0,77;-0,43;-2,53;1,54;-0,97;0,47;-0,66;-2,64;964,27
3.972;-0,42;-0,77;-0,43;-2,53;1,54;-0,97;-0,01;-1,66;-3,07;964,27
3.976;-0,47;-0,81;-0,49;-2,53;1,54;-0,97;-0,01;-1,66;-3,07;964,27
3.977;-0,53;-0,87;-0,49;-2,53;1,54;-0,97;-0,01;-1,66;-3,07;964,27
3.977;-0,56;-0,89;-0,47;-2,53;1,54;-0,97;-0,01;-1,66;-3,07;964,27
4.028;-0,56;-0,89;-0,47;-5,32;0,57;-1,36;-0,01;-1,66;-3,07;964,27
4.029;-0,56;-0,89;-0,47;-5,32;0,57;-1,36;-0,23;-0,62;-2,66;964,27
4.029;-0,56;-0,89;-0,47;-5,32;0,57;-1,36;-0,23;-0,62;-2,66;964,31
4.036;-0,60;-0,88;-0,45;-5,32;0,57;-1,36;-0,23;-0,62;-2,66;964,31
4.036;-0,59;-0,86;-0,44;-5,32;0,57;-1,36;-0,23;-0,62;-2,66;964,31
4.036;-0,62;-0,86;-0,44;-5,32;0,57;-1,36;-0,23;-0,62;-2,66;964,31
4.089;-0,62;-0,86;-0,44;-7,07;0,73;-0,98;-0,23;-0,62;-2,66;964,31
4.089;-0,62;-0,86;-0,44;-7,07;0,73;-0,98;-0,20;0,83;-1,54;964,31
4.095;-0,68;-0,87;-0,47;-7,07;0,73;-0,98;-0,20;0,83;-1,54;964,31
4.096;-0,75;-0,91;-0,50;-7,07;0,73;-0,98;-0,20;0,83;-1,54;964,31
4.096;-0,79;-0,94;-0,50;-7,07;0,73;-0,98;-0,20;0,83;-1,54;964,31
4.128;-0,79;-0,94;-0,50;-7,07;0,73;-0,98;-0,20;0,83;-1,54;964,31
4.149;-0,79;-0,94;-0,50;-9,41;-0,20;-1,53;-0,20;0,83;-1,54;964,31
4.149;-0,79;-0,94;-0,50;-9,41;-0,20;-1,53;-0,23;0,38;-0,08;964,31
4.155;-0,79;-0,94;-0,48;-9,41;-0,20;-1,53;-0,23;0,38;-0,08;964,31
4.156;-0,76;-0,91;-0,45;-9,41;-0,20;-1,53;-0,23;0,38;-0,08;964,31
4.156;-0,69;-0,92;-0,37;-9,41;-0,20;-1,53;-0,23;0,38;-0,08;964,31
4.208;-0,69;-0,92;-0,37;-8,38;0,01;-0,17;-0,23;0,38;-0,08;964,31
4.209;-0,69;-0,92;-0,37;-8,38;0,01;-0,17;-0,24;0,73;0,94;964,31
4.214;-0,71;-1,12;-0,40;-8,38;0,01;-0,17;-0,24;0,73;0,94;964,31
4.215;-0,82;-1,25;-0,47;-8,38;0,01;-0,17;-0,24;0,73;0,94;964,31
4.215;-0,84;-1,36;-0,47;-8,38;0,01;-0,17;-0,24;0,73;0,94;964,31
4.228;-0,84;-1,36;-0,47;-8,38;0,01;-0,17;-0,24;0,73;0,94;964,37
4.268;-0,84;-1,36;-0,47;-9,25;-4,27;-1,06;-0,24;0,73;0,94;964,37
4.269;-0,84;-1,36;-0,47;-9,25;-4,27;-1,06;-0,16;1,23;2,11;964,37
4.276;-0,77;-1,37;-0,39;-9,25;-4,27;-1,06;-0,16;1,23;2,11;964,37
4.276;-0,68;-1,38;-0,30;-9,25;-4,27;-1,06;-0,16;1,23;2,11;964,37
4.277;-0,61;-1,38;-0,23;-9,25;-4,27;-1,06;-0,16;1,23;2,11;964,37
4.329;-0,61;-1,38;-0,23;-5,92;-4,36;1,25;-0,16;1,23;2,11;964,37
4.329;-0,61;-1,38;-0,23;-5,92;-4,36;1,25;-0,03;2,48;3,07;964,37
4.33;-0,61;-1,38;-0,23;-5,92;-4,36;1,25;-0,03;2,48;3,07;964,37
4.334;-0,55;-1,38;-0,20;-5,92;-4,36;1,25;-0,03;2,48;3,07;964,37
4.335;-0,50;-1,36;-0,15;-5,92;-4,36;1,25;-0,03;2,48;3,07;964,37
4.335;-0,44;-1,30;-0,06;-5,92;-4,36;1,25;-0,03;2,48;3,07;964,37
4.388;-0,44;-1,30;-0,06;-2,90;-3,72;3,06;-0,03;2,48;3,07;964,37
4.389;-0,44;-1,30;-0,06;-2,90;-3,72;3,06;-0,27;1,86;4,07;964,37
4.395;-0,37;-1,25;-0,01;-2,90;-3,72;3,06;-0,27;1,86;4,07;964,37
4.396;-0,41;-1,18;-0,12;-2,90;-3,72;3,06;-0,27;1,86;4,07;964,37
4.396;-0,45;-1,16;-0,12;-2,90;-3,72;3,06;-0,27;1,86;4,07;964,37
4.427;-0,45;-1,16;-0,12;-2,90;-3,72;3,06;-0,27;1,86;4,07;964,37
4.449;-0,45;-1,16;-0,12;-1,06;-3,04;2,69;-0,27;1,86;4,07;964,37
4.45;-0,45;-1,16;-0,12;-1,06;-3,04;2,69;-0,42;-0,59;3,94;964,37
4.454;-0,50;-1,18;-0,05;-1,06;-3,04;2,69;-0,42;-0,59;3,94;964,37
4.455;-0,44;-1,21;0,01;-1,06;-3,04;2,69;-0,42;-0,59;3,94;964,37
4.455;-0,39;-1,20;0,05;-1,06;-3,04;2,69;-0,42;-0,59;3,94;964,37
4.509;-0,39;-1,20;0,05;1,32;-4,50;4,53;-0,42;-0,59;3,94;964,37
4.51;-0,39;-1,20;0,05;1,32;-4,50;4,53;-0,52;0,40;3,43;964,37
4.515;-0,40;-1,11;0,08;1,32;-4,50;4,53;-0,52;0,40;3,43;964,37
4.516;-0,40;-1,04;0,12;1,32;-4,50;4,53;-0,52;0,40;3,43;964,37
4.516;-0,37;-0,99;0,14;1,32;-4,50;4,53;-0,52;0,40;3,43;964,37
4.527;-0,37;-0,99;0,14;1,32;-4,50;4,53;-0,52;0,40;3,43;964,31
4.569;-0,37;-0,99;0,14;2,62;-3,64;5,85;-0,52;0,40;3,43;964,31
4.571;-0,37;-0,99;0,14;2,62;-3,64;5,85;-0,30;0,61;2,76;964,31
4.575;-0,39;-0,96;0,13;2,62;-3,64;5,85;-0,30;0,61;2,76;964,31
4.576;-0,41;-0,96;0,11;2,62;-3,64;5,85;-0,30;0,61;2,76;964,31
4.576;-0,39;-0,97;0,08;2,62;-3,64;5,85;-0,30;0,61;2,76;964,31
4.628;-0,39;-0,97;0,08;3,10;-4,37;5,46;-0,30;0,61;2,76;964,31
4.63;-0,39;-0,97;0,08;3,10;-4,37;5,46;0,19;0,85;1,93;964,31
4.63;-0,39;-0,97;0,08;3,10;-4,37;5,46;0,19;0,85;1,93;964,28
4.636;-0,36;-0,98;0,04;3,10;-4,37;5,46;0,19;0,85;1,93;964,28
4.637;-0,36;-0,99;-0,00;3,10;-4,37;5,46;0,19;0,85;1,93;964,28
4.637;-0,35;-1,00;-0,03;3,10;-4,37;5,46;0,19;0,85;1,93;964,28
4.687;-0,35;-1,00;-0,03;3,66;-5,20;4,66;0,19;0,85;1,93;964,28
4.689;-0,35;-1,00;-0,03;3,66;-5,20;4,66;0,71;0,92;1,10;964,28
4.694;-0,35;-0,98;-0,09;3,66;-5,20;4,66;0,71;0,92;1,10;964,28
4.695;-0,32;-0,94;-0,11;3,66;-5,20;4,66;0,71;0,92;1,10;964,28
4.695;-0,29;-0,89;-0,18;3,66;-5,20;4,66;0,71;0,92;1,10;964,28
4.728;-0,29;-0,89;-0,18;3,66;-5,20;4,66;0,71;0,92;1,10;964,28
4.748;-0,29;-0,89;-0,18;4,16;-4,05;3,36;0,71;0,92;1,10;964,28
4.748;-0,29;-0,89;-0,18;4,16;-4,05;3,36;1,19;0,97;-0,36;964,28
4.754;-0,24;-0,88;-0,26;4,16;-4,05;3,36;1,19;0,97;-0,36;964,28
4.755;-0,23;-1,03;-0,29;4,16;-4,05;3,36;1,19;0,97;-0,36;964,28
4.755;-0,30;-0,99;-0,35;4,16;-4,05;3,36;1,19;0,97;-0,36;964,28
4.809;-0,30;-0,99;-0,35;3,51;-4,29;1,58;1,19;0,97;-0,36;964,28
4.81;-0,30;-0,99;-0,35;3,51;-4,29;1,58;1,64;0,65;-1,20;964,28
4.817;-0,37;-0,95;-0,40;3,51;-4,29;1,58;1,64;0,65;-1,20;964,28
4.817;-0,31;-0,89;-0,46;3,51;-4,29;1,58;1,64;0,65;-1,20;964,28
4.817;-0,20;-0,86;-0,52;3,51;-4,29;1,58;1,64;0,65;-1,20;964,28
4.828;-0,20;-0,86;-0,52;3,51;-4,29;1,58;1,64;0,65;-1,20;964,21
4.869;-0,20;-0,86;-0,52;3,73;-2,02;-0,42;1,64;0,65;-1,20;964,21
4.87;-0,20;-0,86;-0,52;3,73;-2,02;-0,42;1,70;0,77;-1,79;964,21
4.874;-0,17;-0,87;-0,54;3,73;-2,02;-0,42;1,70;0,77;-1,79;964,21
4.875;-0,19;-0,90;-0,52;3,73;-2,02;-0,42;1,70;0,77;-1,79;964,21
4.875;-0,26;-0,94;-0,47;3,73;-2,02;-0,42;1,70;0,77;-1,79;964,21
4.928;-0,26;-0,94;-0,47;2,09;-1,62;-0,39;1,70;0,77;-1,79;964,21
4.929;-0,26;-0,94;-0,47;2,09;-1,62;-0,39;1,85;0,82;-2,47;964,21
4.929;-0,26;-0,94;-0,47;2,09;-1,62;-0,39;1,85;0,82;-2,47;964,22
4.936;-0,30;-0,94;-0,41;2,09;-1,62;-0,39;1,85;0,82;-2,47;964,22
4.936;-0,30;-0,93;-0,39;2,09;-1,62;-0,39;1,85;0,82;-2,47;964,22
4.936;-0,31;-0,97;-0,41;2,09;-1,62;-0,39;1,85;0,82;-2,47;964,22
4.987;-0,31;-0,97;-0,41;0,06;-0,84;-0,53;1,85;0,82;-2,47;964,22
4.988;-0,31;-0,97;-0,41;0,06;-0,84;-0,53;1,89;1,35;-2,78;964,22
4.996;-0,32;-0,99;-0,46;0,06;-0,84;-0,53;1,89;1,35;-2,78;964,22
4.997;-0,36;-0,99;-0,50;0,06;-0,84;-0,53;1,89;1,35;-2,78;964,22
4.997;-0,40;-1,01;-0,50;0,06;-0,84;-0,53;1,89;1,35;-2,78;964,22
5.028;-0,40;-1,01;-0,50;0,06;-0,84;-0,53;1,89;1,35;-2,78;964,22
5.048;-0,40;-1,01;-0,50;-2,64;-0,57;-2,20;1,89;1,35;-2,78;964,22
5.049;-0,40;-1,01;-0,50;-2,64;-0,57;-2,20;1,86;1,77;-2,57;964,22
5.057;-0,44;-1,03;-0,50;-2,64;-0,57;-2,20;1,86;1,77;-2,57;964,22
5.057;-0,47;-1,04;-0,52;-2,64;-0,57;-2,20;1,86;1,77;-2,57;964,22
5.057;-0,50;-1,03;-0,55;-2,64;-0,57;-2,20;1,86;1,77;-2,57;964,22
5.108;-0,50;-1,03;-0,55;-5,14;-0,50;-3,63;1,86;1,77;-2,57;964,22
5.109;-0,50;-1,03;-0,55;-5,14;-0,50;-3,63;1,49;1,73;-1,79;964,22
5.116;-0,52;-1,01;-0,58;-5,14;-0,50;-3,63;1,49;1,73;-1,79;964,22
5.117;-0,55;-0,95;-0,61;-5,14;-0,50;-3,63;1,49;1,73;-1,79;964,22
5.117;-0,55;-0,87;-0,60;-5,14;-0,50;-3,63;1,49;1,73;-1,79;964,22
5.127;-0,55;-0,87;-0,60;-5,14;-0,50;-3,63;1,49;1,73;-1,79;964,27
5.168;-0,55;-0,87;-0,60;-6,57;1,21;-4,88;1,49;1,73;-1,79;964,27
5.169;-0,55;-0,87;-0,60;-6,57;1,21;-4,88;0,94;1,85;-0,78;964,27
5.174;-0,52;-0,77;-0,53;-6,57;1,21;-4,88;0,94;1,85;-0,78;964,27
5.174;-0,51;-0,76;-0,50;-6,57;1,21;-4,88;0,94;1,85;-0,78;964,27
5.175;-0,55;-0,82;-0,52;-6,57;1,21;-4,88;0,94;1,85;-0,78;964,27
5.228;-0,55;-0,82;-0,52;-6,83;1,68;-4,69;0,94;1,85;-0,78;964,27
5.228;-0,55;-0,82;-0,52;-6,83;1,68;-4,69;0,37;1,35;0,33;964,27
5.228;-0,55;-0,82;-0,52;-6,83;1,68;-4,69;0,37;1,35;0,33;964,28
5.234;-0,58;-0,82;-0,56;-6,83;1,68;-4,69;0,37;1,35;0,33;964,28
5.234;-0,56;-0,82;-0,58;-6,83;1,68;-4,69;0,37;1,35;0,33;964,28
5.234;-0,52;-0,81;-0,61;-6,83;1,68;-4,69;0,37;1,35;0,33;964,28
5.287;-0,52;-0,81;-0,61;-6,10;1,78;-5,63;0,37;1,35;0,33;964,28
5.288;-0,52;-0,81;-0,61;-6,10;1,78;-5,63;-0,26;0,72;1,10;964,28
5.297;-0,50;-0,81;-0,59;-6,10;1,78;-5,63;-0,26;0,72;1,10;964,28
5.298;-0,46;-0,80;-0,53;-6,10;1,78;-5,63;-0,26;0,72;1,10;964,28
5.298;-0,43;-0,97;-0,51;-6,10;1,78;-5,63;-0,26;0,72;1,10;964,28
5.326;-0,43;-0,97;-0,51;-6,10;1,78;-5,63;-0,26;0,72;1,10;964,28
5.348;-0,43;-0,97;-0,51;-4,61;0,29;-4,38;-0,26;0,72;1,10;964,28
5.348;-0,43;-0,97;-0,51;-4,61;0,29;-4,38;-1,15;1,10;1,12;964,28
5.357;-0,44;-1,05;-0,50;-4,61;0,29;-4,38;-1,15;1,10;1,12;964,28
5.357;-0,52;-1,07;-0,51;-4,61;0,29;-4,38;-1,15;1,10;1,12;964,28
5.357;-0,54;-1,22;-0,43;-4,61;0,29;-4,38;-1,15;1,10;1,12;964,28
5.407;-0,54;-1,22;-0,43;-4,93;-2,31;-2,71;-1,15;1,10;1,12;964,28
5.408;-0,54;-1,22;-0,43;-4,93;-2,31;-2,71;-1,73;0,20;1,55;964,28
5.417;-0,47;-1,27;-0,27;-4,93;-2,31;-2,71;-1,73;0,20;1,55;964,28
5.417;-0,42;-1,41;-0,14;-4,93;-2,31;-2,71;-1,73;0,20;1,55;964,28
5.417;-0,37;-1,56;0,02;-4,93;-2,31;-2,71;-1,73;0,20;1,55;964,28
5.427;-0,37;-1,56;0,02;-4,93;-2,31;-2,71;-1,73;0,20;1,55;964,35
5.467;-0,37;-1,56;0,02;-2,40;-5,84;2,64;-1,73;0,20;1,55;964,35
5.467;-0,37;-1,56;0,02;-2,40;-5,84;2,64;-1,55;0,92;1,90;964,35
5.477;-0,43;-1,66;0,04;-2,40;-5,84;2,64;-1,55;0,92;1,90;964,35
5.477;-0,59;-1,55;-0,03;-2,40;-5,84;2,64;-1,55;0,92;1,90;964,35
5.477;-0,70;-1,46;-0,01;-2,40;-5,84;2,64;-1,55;0,92;1,90;964,35
5.527;-0,70;-1,46;-0,01;-4,52;-5,35;3,11;-1,55;0,92;1,90;964,35
5.528;-0,70;-1,46;-0,01;-4,52;-5,35;3,11;-0,91;0,30;2,70;964,35
5.528;-0,70;-1,46;-0,01;-4,52;-5,35;3,11;-0,91;0,30;2,70;964,38
5.535;-0,72;-1,49;0,09;-4,52;-5,35;3,11;-0,91;0,30;2,70;964,38
5.536;-0,71;-1,52;0,17;-4,52;-5,35;3,11;-0,91;0,30;2,70;964,38
5.536;-0,70;-1,40;0,14;-4,52;-5,35;3,11;-0,91;0,30;2,70;964,38
5.595;-0,70;-1,40;0,14;-2,93;-5,49;5,06;-0,91;0,30;2,70;964,38
5.595;-0,70;-1,40;0,14;-2,93;-5,49;5,06;-0,88;-1,09;3,37;964,38
5.596;-0,70;-1,31;0,08;-2,93;-5,49;5,06;-0,88;-1,09;3,37;964,38
5.596;-0,73;-1,23;-0,00;-2,93;-5,49;5,06;-0,88;-1,09;3,37;964,38
5.596;-0,70;-1,16;0,01;-2,93;-5,49;5,06;-0,88;-1,09;3,37;964,38
5.628;-0,70;-1,16;0,01;-2,93;-5,49;5,06;-0,88;-1,09;3,37;964,38
5.647;-0,70;-1,16;0,01;-0,97;-4,37;3,64;-0,88;-1,09;3,37;964,38
5.648;-0,70;-1,16;0,01;-0,97;-4,37;3,64;-0,48;-1,49;3,66;964,38
5.654;-0,60;-1,12;0,08;-0,97;-4,37;3,64;-0,48;-1,49;3,66;964,38
5.654;-0,51;-1,06;0,14;-0,97;-4,37;3,64;-0,48;-1,49;3,66;964,38
5.655;-0,42;-1,02;0,15;-0,97;-4,37;3,64;-0,48;-1,49;3,66;964,38
5.706;-0,42;-1,02;0,15;3,26;-4,45;4,83;-0,48;-1,49;3,66;964,38
5.707;-0,42;-1,02;0,15;3,26;-4,45;4,83;0,07;-0,03;3,60;964,38
5.715;-0,37;-0,97;0,13;3,26;-4,45;4,83;0,07;-0,03;3,60;964,38
5.716;-0,37;-0,97;0,10;3,26;-4,45;4,83;0,07;-0,03;3,60;964,38
5.716;-0,34;-0,95;0,07;3,26;-4,45;4,83;0,07;-0,03;3,60;964,38
5.726;-0,34;-0,95;0,07;3,26;-4,45;4,83;0,07;-0,03;3,60;964,37
5.767;-0,34;-0,95;0,07;4,94;-5,30;4,13;0,07;-0,03;3,60;964,37
5.768;-0,34;-0,95;0,07;4,94;-5,30;4,13;0,56;1,10;2,86;964,37
5.773;-0,27;-0,93;0,05;4,94;-5,30;4,13;0,56;1,10;2,86;964,37
5.774;-0,23;-0,90;0,02;4,94;-5,30;4,13;0,56;1,10;2,86;964,37
5.774;-0,23;-0,91;0,01;4,94;-5,30;4,13;0,56;1,10;2,86;964,37
5.826;-0,23;-0,91;0,01;6,19;-5,93;4,02;0,56;1,10;2,86;964,37
5.827;-0,23;-0,91;0,01;6,19;-5,93;4,02;1,02;1,66;1,70;964,37
5.827;-0,23;-0,91;0,01;6,19;-5,93;4,02;1,02;1,66;1,70;964,28
5.834;-0,23;-0,95;-0,03;6,19;-5,93;4,02;1,02;1,66;1,70;964,28
5.835;-0,22;-0,96;-0,08;6,19;-5,93;4,02;1,02;1,66;1,70;964,28
5.835;-0,23;-0,90;-0,13;6,19;-5,93;4,02;1,02;1,66;1,70;964,28
5.886;-0,23;-0,90;-0,13;5,98;-5,96;3,26;1,02;1,66;1,70;964,28
5.887;-0,23;-0,90;-0,13;5,98;-5,96;3,26;1,54;1,13;0,18;964,28
5.895;-0,22;-0,86;-0,18;5,98;-5,96;3,26;1,54;1,13;0,18;964,28
5.895;-0,22;-0,96;-0,19;5,98;-5,96;3,26;1,54;1,13;0,18;964,28
5.895;-0,24;-0,94;-0,19;5,98;-5,96;3,26;1,54;1,13;0,18;964,28
5.928;-0,24;-0,94;-0,19;5,98;-5,96;3,26;1,54;1,13;0,18;964,28
5.947;-0,24;-0,94;-0,19;5,50;-5,62;2,87;1,54;1,13;0,18;964,28
5.948;-0,24;-0,94;-0,19;5,50;-5,62;2,87;1,93;1,06;-0,97;964,28
5.952;-0,33;-0,85;-0,31;5,50;-5,62;2,87;1,93;1,06;-0,97;964,28
5.953;-0,34;-0,75;-0,52;5,50;-5,62;2,87;1,93;1,06;-0,97;964,28
5.953;-0,31;-0,74;-0,57;5,50;-5,62;2,87;1,93;1,06;-0,97;964,28
6.006;-0,31;-0,74;-0,57;4,12;-2,51;-0,86;1,93;1,06;-0,97;964,28
6.007;-0,31;-0,74;-0,57;4,12;-2,51;-0,86;2,04;1,14;-1,74;964,28
6.016;-0,30;-0,81;-0,54;4,12;-2,51;-0,86;2,04;1,14;-1,74;964,28
6.016;-0,33;-0,88;-0,49;4,12;-2,51;-0,86;2,04;1,14;-1,74;964,28
6.016;-0,36;-0,97;-0,45;4,12;-2,51;-0,86;2,04;1,14;-1,74;964,28
6.027;-0,36;-0,97;-0,45;4,12;-2,51;-0,86;2,04;1,14;-1,74;964,27
6.066;-0,36;-0,97;-0,45;2,65;-3,37;0,08;2,04;1,14;-1,74;964,27
6.067;-0,36;-0,97;-0,45;2,65;-3,37;0,08;2,17;1,34;-2,20;964,27
6.073;-0,34;-1,04;-0,43;2,65;-3,37;0,08;2,17;1,34;-2,20;964,27
6.074;-0,32;-1,09;-0,49;2,65;-3,37;0,08;2,17;1,34;-2,20;964,27
6.074;-0,33;-1,11;-0,57;2,65;-3,37;0,08;2,17;1,34;-2,20;964,27
6.127;-0,33;-1,11;-0,57;1,62;-3,43;-1,53;2,17;1,34;-2,20;964,27
6.128;-0,33;-1,11;-0,57;1,62;-3,43;-1,53;1,99;1,13;-2,47;964,27
6.128;-0,33;-1,11;-0,57;1,62;-3,43;-1,53;1,99;1,13;-2,47;964,27
6.134;-0,37;-1,13;-0,60;1,62;-3,43;-1,53;1,99;1,13;-2,47;964,27
6.135;-0,38;-1,11;-0,60;1,62;-3,43;-1,53;1,99;1,13;-2,47;964,27
6.135;-0,38;-1,12;-0,62;1,62;-3,43;-1,53;1,99;1,13;-2,47;964,27
6.188;-0,38;-1,12;-0,62;-0,26;-2,42;-2,68;1,99;1,13;-2,47;964,27
6.188;-0,38;-1,12;-0,62;-0,26;-2,42;-2,68;1,89;0,97;-2,50;964,27
6.193;-0,40;-1,08;-0,59;-0,26;-2,42;-2,68;1,89;0,97;-2,50;964,27
6.194;-0,40;-1,00;-0,57;-0,26;-2,42;-2,68;1,89;0,97;-2,50;964,27
6.195;-0,41;-0,94;-0,58;-0,26;-2,42;-2,68;1,89;0,97;-2,50;964,27
6.227;-0,41;-0,94;-0,58;-0,26;-2,42;-2,68;1,89;0,97;-2,50;964,27
6.247;-0,41;-0,94;-0,58;-2,01;0,05;-3,03;1,89;0,97;-2,50;964,27
6.248;-0,41;-0,94;-0,58;-2,01;0,05;-3,03;1,50;1,23;-2,23;964,27
6.254;-0,43;-0,91;-0,62;-2,01;0,05;-3,03;1,50;1,23;-2,23;964,27
6.255;-0,47;-0,86;-0,64;-2,01;0,05;-3,03;1,50;1,23;-2,23;964,27
6.255;-0,51;-0,80;-0,65;-2,01;0,05;-3,03;1,50;1,23;-2,23;964,27
6.307;-0,51;-0,80;-0,65;-4,23;1,71;-4,32;1,50;1,23;-2,23;964,27
6.308;-0,51;-0,80;-0,65;-4,23;1,71;-4,32;0,81;1,05;-1,51;964,27
6.313;-0,51;-0,75;-0,63;-4,23;1,71;-4,32;0,81;1,05;-1,51;964,27
6.313;-0,51;-0,70;-0,62;-4,23;1,71;-4,32;0,81;1,05;-1,51;964,27
6.314;-0,51;-0,69;-0,59;-4,23;1,71;-4,32;0,81;1,05;-1,51;964,27
6.326;-0,51;-0,69;-0,59;-4,23;1,71;-4,32;0,81;1,05;-1,51;964,30
6.367;-0,51;-0,69;-0,59;-5,02;2,89;-4,05;0,81;1,05;-1,51;964,30
6.367;-0,51;-0,69;-0,59;-5,02;2,89;-4,05;0,14;0,53;-0,90;964,30
6.374;-0,50;-0,70;-0,55;-5,02;2,89;-4,05;0,14;0,53;-0,90;964,30
6.375;-0,49;-0,73;-0,51;-5,02;2,89;-4,05;0,14;0,53;-0,90;964,30
6.375;-0,52;-0,82;-0,51;-5,02;2,89;-4,05;0,14;0,53;-0,90;964,30
6.427;-0,52;-0,82;-0,51;-5,51;1,55;-3,17;0,14;0,53;-0,90;964,30
6.428;-0,52;-0,82;-0,51;-5,51;1,55;-3,17;-0,44;-0,39;-0,36;964,30
6.428;-0,52;-0,82;-0,51;-5,51;1,55;-3,17;-0,44;-0,39;-0,36;964,28
6.435;-0,54;-0,91;-0,52;-5,51;1,55;-3,17;-0,44;-0,39;-0,36;964,28
6.436;-0,56;-0,93;-0,49;-5,51;1,55;-3,17;-0,44;-0,39;-0,36;964,28
6.436;-0,55;-1,10;-0,50;-5,51;1,55;-3,17;-0,44;-0,39;-0,36;964,28
6.489;-0,55;-1,10;-0,50;-5,85;-1,20;-2,66;-0,44;-0,39;-0,36;964,28
6.49;-0,55;-1,10;-0,50;-5,85;-1,20;-2,66;-0,71;-1,02;0,27;964,28
6.493;-0,55;-1,24;-0,51;-5,85;-1,20;-2,66;-0,71;-1,02;0,27;964,28
6.493;-0,59;-1,34;-0,47;-5,85;-1,20;-2,66;-0,71;-1,02;0,27;964,28
6.495;-0,55;-1,37;-0,31;-5,85;-1,20;-2,66;-0,71;-1,02;0,27;964,28
6.528;-0,55;-1,37;-0,31;-5,85;-1,20;-2,66;-0,71;-1,02;0,27;964,28
6.546;-0,55;-1,37;-0,31;-5,24;-3,93;-0,55;-0,71;-1,02;0,27;964,28
6.547;-0,55;-1,37;-0,31;-5,24;-3,93;-0,55;-0,12;0,61;1,53;964,28
6.554;-0,43;-1,40;-0,17;-5,24;-3,93;-0,55;-0,12;0,61;1,53;964,28
6.555;-0,28;-1,32;-0,12;-5,24;-3,93;-0,55;-0,12;0,61;1,53;964,28
6.555;-0,22;-1,19;-0,13;-5,24;-3,93;-0,55;-0,12;0,61;1,53;964,28
6.606;-0,22;-1,19;-0,13;-1,30;-2,29;1,37;-0,12;0,61;1,53;964,28
6.607;-0,22;-1,19;-0,13;-1,30;-2,29;1,37;-0,18;3,08;1,90;964,28
6.614;-0,26;-1,18;-0,18;-1,30;-2,29;1,37;-0,18;3,08;1,90;964,28
6.615;-0,37;-1,14;-0,23;-1,30;-2,29;1,37;-0,18;3,08;1,90;964,28
6.615;-0,51;-1,08;-0,26;-1,30;-2,29;1,37;-0,18;3,08;1,90;964,28
6.627;-0,51;-1,08;-0,26;-1,30;-2,29;1,37;-0,18;3,08;1,90;964,32
6.667;-0,51;-1,08;-0,26;-3,43;-1,42;0,45;-0,18;3,08;1,90;964,32
6.668;-0,51;-1,08;-0,26;-3,43;-1,42;0,45;-0,63;1,80;2,39;964,32
6.675;-0,56;-1,07;-0,24;-3,43;-1,42;0,45;-0,63;1,80;2,39;964,32
6.676;-0,56;-1,04;-0,19;-3,43;-1,42;0,45;-0,63;1,80;2,39;964,32
6.676;-0,55;-1,06;-0,14;-3,43;-1,42;0,45;-0,63;1,80;2,39;964,32
6.728;-0,55;-1,06;-0,14;-2,58;-1,67;2,17;-0,63;1,80;2,39;964,32
6.729;-0,55;-1,06;-0,14;-2,58;-1,67;2,17;-0,78;0,28;3,02;964,32
6.729;-0,55;-1,06;-0,14;-2,58;-1,67;2,17;-0,78;0,28;3,02;964,29
6.736;-0,50;-1,04;-0,10;-2,58;-1,67;2,17;-0,78;0,28;3,02;964,29
6.736;-0,46;-1,04;-0,10;-2,58;-1,67;2,17;-0,78;0,28;3,02;964,29
6.736;-0,44;-1,04;-0,12;-2,58;-1,67;2,17;-0,78;0,28;3,02;964,29
6.791;-0,44;-1,04;-0,12;0,06;-2,36;2,75;-0,78;0,28;3,02;964,29
6.792;-0,44;-1,04;-0,12;0,06;-2,36;2,75;-0,83;-0,19;3,30;964,29
6.794;-0,41;-1,06;-0,12;0,06;-2,36;2,75;-0,83;-0,19;3,30;964,29
6.794;-0,42;-1,10;-0,13;0,06;-2,36;2,75;-0,83;-0,19;3,30;964,29
6.794;-0,40;-1,14;-0,14;0,06;-2,36;2,75;-0,83;-0,19;3,30;964,29
6.828;-0,40;-1,14;-0,14;0,06;-2,36;2,75;-0,83;-0,19;3,30;964,29
6.848;-0,40;-1,14;-0,14;1,98;-4,48;2,79;-0,83;-0,19;3,30;964,29
6.848;-0,40;-1,14;-0,14;1,98;-4,48;2,79;-0,56;-0,80;3,20;964,29
6.854;-0,38;-1,15;-0,13;1,98;-4,48;2,79;-0,56;-0,80;3,20;964,29
6.854;-0,34;-1,17;-0,11;1,98;-4,48;2,79;-0,56;-0,80;3,20;964,29
6.855;-0,30;-1,15;-0,10;1,98;-4,48;2,79;-0,56;-0,80;3,20;964,29
6.906;-0,30;-1,15;-0,10;1,98;-4,48;2,79;-0,08;-0,32;2,73;964,29
6.907;-0,30;-1,15;-0,10;4,22;-5,94;3,05;-0,08;-0,32;2,73;964,29
6.913;-0,25;-1,13;-0,10;4,22;-5,94;3,05;-0,08;-0,32;2,73;964,29
6.913;-0,19;-1,11;-0,13;4,22;-5,94;3,05;-0,08;-0,32;2,73;964,29
6.914;-0,13;-1,08;-0,15;4,22;-5,94;3,05;-0,08;-0,32;2,73;964,29
6.926;-0,13;-1,08;-0,15;4,22;-5,94;3,05;-0,08;-0,32;2,73;964,25
6.966;-0,13;-1,08;-0,15;6,55;-6,11;2,42;-0,08;-0,32;2,73;964,25
6.967;-0,13;-1,08;-0,15;6,55;-6,11;2,42;0,47;0,30;1,21;964,25
6.974;-0,06;-1,04;-0,13;6,55;-6,11;2,42;0,47;0,30;1,21;964,25
6.974;0,01;-0,97;-0,10;6,55;-6,11;2,42;0,47;0,30;1,21;964,25
6.974;0,03;-0,92;-0,17;6,55;-6,11;2,42;0,47;0,30;1,21;964,25
7.027;0,03;-0,92;-0,17;8,08;-4,58;2,32;0,47;0,30;1,21;964,25
7.028;0,03;-0,92;-0,17;8,08;-4,58;2,32;1,02;0,73;-0,82;964,25
7.028;0,03;-0,92;-0,17;8,08;-4,58;2,32;1,02;0,73;-0,82;964,23
7.036;0,02;-1,06;-0,15;8,08;-4,58;2,32;1,02;0,73;-0,82;964,23
7.037;-0,03;-1,04;-0,11;8,08;-4,58;2,32;1,02;0,73;-0,82;964,23
7.038;-0,12;-1,04;-0,20;8,08;-4,58;2,32;1,02;0,73;-0,82;964,23
7.094;-0,12;-1,04;-0,20;6,02;-4,82;1,93;1,02;0,73;-0,82;964,23
7.096;-0,12;-1,04;-0,20;6,02;-4,82;1,93;1,10;0,55;-2,02;964,23
7.096;-0,20;-1,02;-0,32;6,02;-4,82;1,93;1,10;0,55;-2,02;964,23
7.096;-0,21;-1,02;-0,42;6,02;-4,82;1,93;1,10;0,55;-2,02;964,23
7.096;-0,22;-1,06;-0,45;6,02;-4,82;1,93;1,10;0,55;-2,02;964,23
7.127;-0,22;-1,06;-0,45;6,02;-4,82;1,93;1,10;0,55;-2,02;964,23
7.146;-0,22;-1,06;-0,45;4,06;-3,84;-0,66;1,10;0,55;-2,02;964,23
7.147;-0,22;-1,06;-0,45;4,06;-3,84;-0,66;1,05;0,20;-2,55;964,23
7.153;-0,24;-1,12;-0,44;4,06;-3,84;-0,66;1,05;0,20;-2,55;964,23
7.154;-0,25;-1,12;-0,42;4,06;-3,84;-0,66;1,05;0,20;-2,55;964,23
7.155;-0,24;-1,13;-0,39;4,06;-3,84;-0,66;1,05;0,20;-2,55;964,23
7.208;-0,24;-1,13;-0,39;2,67;-3,35;-0,50;1,05;0,20;-2,55;964,23
7.21;-0,24;-1,13;-0,39;2,67;-3,35;-0,50;1,20;0,25;-2,70;964,23
7.213;-0,28;-1,08;-0,34;2,67;-3,35;-0,50;1,20;0,25;-2,70;964,23
7.213;-0,31;-1,00;-0,36;2,67;-3,35;-0,50;1,20;0,25;-2,70;964,23
7.214;-0,35;-0,91;-0,45;2,67;-3,35;-0,50;1,20;0,25;-2,70;964,23
7.226;-0,35;-0,91;-0,45;2,67;-3,35;-0,50;1,20;0,25;-2,70;964,25
7.267;-0,35;-0,91;-0,45;0,29;-0,28;-1,58;1,20;0,25;-2,70;964,25
7.267;-0,35;-0,91;-0,45;0,29;-0,28;-1,58;0,89;0,04;-2,52;964,25
7.273;-0,38;-0,81;-0,51;0,29;-0,28;-1,58;0,89;0,04;-2,52;964,25
7.274;-0,41;-0,74;-0,51;0,29;-0,28;-1,58;0,89;0,04;-2,52;964,25
7.274;-0,44;-0,69;-0,49;0,29;-0,28;-1,58;0,89;0,04;-2,52;964,25
7.328;-0,44;-0,69;-0,49;-1,87;2,44;-2,42;0,89;0,04;-2,52;964,25
7.329;-0,44;-0,69;-0,49;-1,87;2,44;-2,42;0,64;-0,13;-2,30;964,25
7.329;-0,44;-0,69;-0,49;-1,87;2,44;-2,42;0,64;-0,13;-2,30;964,28
7.335;-0,44;-0,65;-0,46;-1,87;2,44;-2,42;0,64;-0,13;-2,30;964,28
7.335;-0,46;-0,64;-0,45;-1,87;2,44;-2,42;0,64;-0,13;-2,30;964,28
7.335;-0,48;-0,67;-0,46;-1,87;2,44;-2,42;0,64;-0,13;-2,30;964,28
7.393;-0,48;-0,67;-0,46;-3,46;2,95;-2,42;0,64;-0,13;-2,30;964,28
7.394;-0,48;-0,67;-0,46;-3,46;2,95;-2,42;0,36;0,15;-1,77;964,28
7.394;-0,51;-0,69;-0,51;-3,46;2,95;-2,42;0,36;0,15;-1,77;964,28
7.394;-0,54;-0,71;-0,53;-3,46;2,95;-2,42;0,36;0,15;-1,77;964,28
7.394;-0,54;-0,74;-0,54;-3,46;2,95;-2,42;0,36;0,15;-1,77;964,28
7.426;-0,54;-0,74;-0,54;-3,46;2,95;-2,42;0,36;0,15;-1,77;964,28
7.448;-0,54;-0,74;-0,54;-4,91;2,29;-3,27;0,36;0,15;-1,77;964,28
7.448;-0,54;-0,74;-0,54;-4,91;2,29;-3,27;-0,01;0,08;-1,14;964,28
7.454;-0,57;-0,80;-0,56;-4,91;2,29;-3,27;-0,01;0,08;-1,14;964,28
7.454;-0,60;-0,88;-0,56;-4,91;2,29;-3,27;-0,01;0,08;-1,14;964,28
7.455;-0,63;-0,97;-0,57;-4,91;2,29;-3,27;-0,01;0,08;-1,14;964,28
7.507;-0,63;-0,97;-0,57;-6,21;0,03;-3,44;-0,01;0,08;-1,14;964,28
7.508;-0,63;-0,97;-0,57;-6,21;0,03;-3,44;-0,19;-0,35;-0,12;964,28
7.513;-0,64;-1,05;-0,56;-6,21;0,03;-3,44;-0,19;-0,35;-0,12;964,28
7.513;-0,62;-1,11;-0,53;-6,21;0,03;-3,44;-0,19;-0,35;-0,12;964,28
7.514;-0,61;-1,11;-0,51;-6,21;0,03;-3,44;-0,19;-0,35;-0,12;964,28
7.525;-0,61;-1,11;-0,51;-6,21;0,03;-3,44;-0,19;-0,35;-0,12;964,30
7.567;-0,61;-1,11;-0,51;-5,65;-1,30;-2,76;-0,19;-0,35;-0,12;964,30
7.568;-0,61;-1,11;-0,51;-5,65;-1,30;-2,76;-0,18;-0,37;0,96;964,30
7.573;-0,58;-1,04;-0,48;-5,65;-1,30;-2,76;-0,18;-0,37;0,96;964,30
7.575;-0,55;-1,18;-0,49;-5,65;-1,30;-2,76;-0,18;-0,37;0,96;964,30
7.575;-0,58;-1,24;-0,54;-5,65;-1,30;-2,76;-0,18;-0,37;0,96;964,30
7.627;-0,58;-1,24;-0,54;-4,65;-2,72;-2,95;-0,18;-0,37;0,96;964,30
7.628;-0,58;-1,24;-0,54;-4,65;-2,72;-2,95;-0,39;-0,23;1,80;964,30
7.628;-0,58;-1,24;-0,54;-4,65;-2,72;-2,95;-0,39;-0,23;1,80;964,31
7.633;-0,62;-1,24;-0,52;-4,65;-2,72;-2,95;-0,39;-0,23;1,80;964,31
7.634;-0,53;-1,29;-0,44;-4,65;-2,72;-2,95;-0,39;-0,23;1,80;964,31
7.634;-0,47;-1,34;-0,39;-4,65;-2,72;-2,95;-0,39;-0,23;1,80;964,31
7.692;-0,47;-1,34;-0,39;-2,47;-3,96;-1,17;-0,39;-0,23;1,80;964,31
7.693;-0,47;-1,34;-0,39;-2,47;-3,96;-1,17;-0,58;0,77;2,09;964,31
7.694;-0,49;-1,38;-0,40;-2,47;-3,96;-1,17;-0,58;0,77;2,09;964,31
7.694;-0,52;-1,35;-0,40;-2,47;-3,96;-1,17;-0,58;0,77;2,09;964,31
7.694;-0,53;-1,30;-0,41;-2,47;-3,96;-1,17;-0,58;0,77;2,09;964,31
7.728;-0,53;-1,30;-0,41;-2,47;-3,96;-1,17;-0,58;0,77;2,09;964,31
7.747;-0,53;-1,30;-0,41;-1,96;-4,02;-0,94;-0,58;0,77;2,09;964,31
7.748;-0,53;-1,30;-0,41;-1,96;-4,02;-0,94;-0,86;0,26;2,71;964,31
7.753;-0,49;-1,27;-0,39;-1,96;-4,02;-0,94;-0,86;0,26;2,71;964,31
7.754;-0,49;-1,26;-0,38;-1,96;-4,02;-0,94;-0,86;0,26;2,71;964,31
7.754;-0,47;-1,24;-0,35;-1,96;-4,02;-0,94;-0,86;0,26;2,71;964,31
7.808;-0,47;-1,24;-0,35;0,20;-4,28;0,07;-0,86;0,26;2,71;964,31
7.809;-0,47;-1,24;-0,35;0,20;-4,28;0,07;-0,69;-0,82;3,34;964,31
7.815;-0,43;-1,15;-0,30;0,20;-4,28;0,07;-0,69;-0,82;3,34;964,31
7.815;-0,38;-1,07;-0,27;0,20;-4,28;0,07;-0,69;-0,82;3,34;964,31
7.816;-0,34;-1,01;-0,25;0,20;-4,28;0,07;-0,69;-0,82;3,34;964,31
7.828;-0,34;-1,01;-0,25;0,20;-4,28;0,07;-0,69;-0,82;3,34;964,28
7.868;-0,34;-1,01;-0,25;3,15;-3,39;1,01;-0,69;-0,82;3,34;964,28
7.869;-0,34;-1,01;-0,25;3,15;-3,39;1,01;-0,58;-0,26;3,59;964,28
7.874;-0,30;-0,98;-0,23;3,15;-3,39;1,01;-0,58;-0,26;3,59;964,28
7.874;-0,28;-0,96;-0,22;3,15;-3,39;1,01;-0,58;-0,26;3,59;964,28
7.875;-0,27;-0,96;-0,21;3,15;-3,39;1,01;-0,58;-0,26;3,59;964,28
7.927;-0,27;-0,96;-0,21;5,00;-4,41;1,59;-0,58;-0,26;3,59;964,28
7.929;-0,27;-0,96;-0,21;5,00;-4,41;1,59;-0,52;-0,09;3,00;964,28
7.929;-0,27;-0,96;-0,21;5,00;-4,41;1,59;-0,52;-0,09;3,00;964,28
7.933;-0,26;-0,92;-0,19;5,00;-4,41;1,59;-0,52;-0,09;3,00;964,28
7.933;-0,25;-0,88;-0,16;5,00;-4,41;1,59;-0,52;-0,09;3,00;964,28
7.934;-0,24;-0,84;-0,13;5,00;-4,41;1,59;-0,52;-0,09;3,00;964,28
7.987;-0,24;-0,84;-0,13;5,92;-4,57;2,35;-0,52;-0,09;3,00;964,28
7.988;-0,24;-0,84;-0,13;5,92;-4,57;2,35;-0,24;-0,33;1,92;964,28
7.995;-0,23;-0,79;-0,12;5,92;-4,57;2,35;-0,24;-0,33;1,92;964,28
7.995;-0,23;-0,73;-0,10;5,92;-4,57;2,35;-0,24;-0,33;1,92;964,28
7.995;-0,20;-0,68;-0,09;5,92;-4,57;2,35;-0,24;-0,33;1,92;964,28
8.026;-0,20;-0,68;-0,09;5,92;-4,57;2,35;-0,24;-0,33;1,92;964,28
8.046;-0,20;-0,68;-0,09;6,66;-3,68;2,62;-0,24;-0,33;1,92;964,28
8.047;-0,20;-0,68;-0,09;6,66;-3,68;2,62;0,05;-0,07;0,57;964,28
8.054;-0,18;-0,64;-0,09;6,66;-3,68;2,62;0,05;-0,07;0,57;964,28
8.054;-0,15;-0,63;-0,09;6,66;-3,68;2,62;0,05;-0,07;0,57;964,28
8.055;-0,16;-0,65;-0,09;6,66;-3,68;2,62;0,05;-0,07;0,57;964,28
8.106;-0,16;-0,65;-0,09;7,03;-3,30;2,66;0,05;-0,07;0,57;964,28
8.107;-0,16;-0,65;-0,09;7,03;-3,30;2,66;0,31;0,12;-1,27;964,28
8.114;-0,17;-0,69;-0,10;7,03;-3,30;2,66;0,31;0,12;-1,27;964,28
8.114;-0,22;-0,70;-0,14;7,03;-3,30;2,66;0,31;0,12;-1,27;964,28
8.114;-0,22;-0,85;-0,17;7,03;-3,30;2,66;0,31;0,12;-1,27;964,28
8.127;-0,22;-0,85;-0,17;7,03;-3,30;2,66;0,31;0,12;-1,27;964,24
8.166;-0,22;-0,85;-0,17;5,97;-4,09;1,86;0,31;0,12;-1,27;964,24
8.167;-0,22;-0,85;-0,17;5,97;-4,09;1,86;0,52;0,44;-3,44;964,24
8.174;-0,21;-0,93;-0,16;5,97;-4,09;1,86;0,52;0,44;-3,44;964,24
8.175;-0,30;-1,05;-0,21;5,97;-4,09;1,86;0,52;0,44;-3,44;964,24
8.176;-0,41;-1,12;-0,31;5,97;-4,09;1,86;0,52;0,44;-3,44;964,24
8.228;-0,41;-1,12;-0,31;2,72;-4,84;0,56;0,52;0,44;-3,44;964,24
8.228;-0,41;-1,12;-0,31;2,72;-4,84;0,56;0,50;0,19;-4,22;964,24
8.228;-0,41;-1,12;-0,31;2,72;-4,84;0,56;0,50;0,19;-4,22;964,25
8.233;-0,45;-1,16;-0,42;2,72;-4,84;0,56;0,50;0,19;-4,22;964,25
8.234;-0,44;-1,21;-0,47;2,72;-4,84;0,56;0,50;0,19;-4,22;964,25
8.234;-0,42;-1,28;-0,49;2,72;-4,84;0,56;0,50;0,19;-4,22;964,25
8.287;-0,42;-1,28;-0,49;0,89;-4,85;-1,37;0,50;0,19;-4,22;964,25
8.288;-0,42;-1,28;-0,49;0,89;-4,85;-1,37;0,41;0,20;-4,03;964,25
8.294;-0,42;-1,34;-0,49;0,89;-4,85;-1,37;0,41;0,20;-4,03;964,25
8.294;-0,45;-1,35;-0,46;0,89;-4,85;-1,37;0,41;0,20;-4,03;964,25
8.294;-0,45;-1,30;-0,43;0,89;-4,85;-1,37;0,41;0,20;-4,03;964,25
8.325;-0,45;-1,30;-0,43;0,89;-4,85;-1,37;0,41;0,20;-4,03;964,25
8.348;-0,45;-1,30;-0,43;-1,24;-4,02;-0,99;0,41;0,20;-4,03;964,25
8.349;-0,45;-1,30;-0,43;-1,24;-4,02;-0,99;0,41;-0,08;-3,08;964,25
8.353;-0,45;-1,19;-0,40;-1,24;-4,02;-0,99;0,41;-0,08;-3,08;964,25
8.354;-0,48;-1,06;-0,41;-1,24;-4,02;-0,99;0,41;-0,08;-3,08;964,25
8.354;-0,52;-0,94;-0,44;-1,24;-4,02;-0,99;0,41;-0,08;-3,08;964,25
8.406;-0,52;-0,94;-0,44;-3,29;-0,05;-1,26;0,41;-0,08;-3,08;964,25
8.407;-0,52;-0,94;-0,44;-3,29;-0,05;-1,26;0,17;-1,22;-2,09;964,25
8.415;-0,53;-0,86;-0,45;-3,29;-0,05;-1,26;0,17;-1,22;-2,09;964,25
8.416;-0,51;-0,81;-0,41;-3,29;-0,05;-1,26;0,17;-1,22;-2,09;964,25
8.417;-0,49;-0,82;-0,36;-3,29;-0,05;-1,26;0,17;-1,22;-2,09;964,25
8.429;-0,49;-0,82;-0,36;-3,29;-0,05;-1,26;0,17;-1,22;-2,09;964,28
8.467;-0,49;-0,82;-0,36;-3,82;1,31;-0,70;0,17;-1,22;-2,09;964,28
8.468;-0,49;-0,82;-0,36;-3,82;1,31;-0,70;0,10;-1,36;-1,82;964,28
8.476;-0,49;-0,84;-0,32;-3,82;1,31;-0,70;0,10;-1,36;-1,82;964,28
8.477;-0,49;-0,85;-0,31;-3,82;1,31;-0,70;0,10;-1,36;-1,82;964,28
8.477;-0,51;-0,85;-0,32;-3,82;1,31;-0,70;0,10;-1,36;-1,82;964,28
8.526;-0,51;-0,85;-0,32;-4,81;1,06;-0,39;0,10;-1,36;-1,82;964,28
8.527;-0,51;-0,85;-0,32;-4,81;1,06;-0,39;0,13;-0,70;-1,61;964,28
8.527;-0,51;-0,85;-0,32;-4,81;1,06;-0,39;0,13;-0,70;-1,61;964,30
8.534;-0,53;-0,85;-0,33;-4,81;1,06;-0,39;0,13;-0,70;-1,61;964,30
8.534;-0,55;-0,83;-0,35;-4,81;1,06;-0,39;0,13;-0,70;-1,61;964,30
8.534;-0,56;-0,82;-0,36;-4,81;1,06;-0,39;0,13;-0,70;-1,61;964,30
8.586;-0,56;-0,82;-0,36;-5,90;1,38;-0,86;0,13;-0,70;-1,61;964,30
8.587;-0,56;-0,82;-0,36;-5,90;1,38;-0,86;0,25;-0,09;-0,89;964,30
8.595;-0,57;-0,83;-0,37;-5,90;1,38;-0,86;0,25;-0,09;-0,89;964,30
8.596;-0,59;-0,88;-0,40;-5,90;1,38;-0,86;0,25;-0,09;-0,89;964,30
8.596;-0,64;-0,96;-0,45;-5,90;1,38;-0,86;0,25;-0,09;-0,89;964,30
8.626;-0,64;-0,96;-0,45;-5,90;1,38;-0,86;0,25;-0,09;-0,89;964,30
8.646;-0,64;-0,96;-0,45;-6,94;0,10;-1,91;0,25;-0,09;-0,89;964,30
8.647;-0,64;-0,96;-0,45;-6,94;0,10;-1,91;0,22;-0,41;0,13;964,30
8.654;-0,67;-1,03;-0,47;-6,94;0,10;-1,91;0,22;-0,41;0,13;964,30
8.654;-0,69;-1,00;-0,49;-6,94;0,10;-1,91;0,22;-0,41;0,13;964,30
8.655;-0,66;-0,97;-0,47;-6,94;0,10;-1,91;0,22;-0,41;0,13;964,30
8.706;-0,66;-0,97;-0,47;-6,72;-0,04;-2,15;0,22;-0,41;0,13;964,30
8.707;-0,66;-0,97;-0,47;-6,72;-0,04;-2,15;-0,17;-1,43;1,10;964,30
8.713;-0,62;-1,13;-0,60;-6,72;-0,04;-2,15;-0,17;-1,43;1,10;964,30
8.714;-0,66;-1,16;-0,68;-6,72;-0,04;-2,15;-0,17;-1,43;1,10;964,30
8.714;-0,64;-1,19;-0,54;-6,72;-0,04;-2,15;-0,17;-1,43;1,10;964,30
8.728;-0,64;-1,19;-0,54;-6,72;-0,04;-2,15;-0,17;-1,43;1,10;964,32
8.767;-0,64;-1,19;-0,54;-5,44;-2,18;-2,80;-0,17;-1,43;1,10;964,32
8.768;-0,64;-1,19;-0,54;-5,44;-2,18;-2,80;0,12;-0,34;1,99;964,32
8.774;-0,59;-1,17;-0,41;-5,44;-2,18;-2,80;0,12;-0,34;1,99;964,32
8.774;-0,51;-1,18;-0,35;-5,44;-2,18;-2,80;0,12;-0,34;1,99;964,32
8.774;-0,46;-1,17;-0,37;-5,44;-2,18;-2,80;0,12;-0,34;1,99;964,32
8.827;-0,46;-1,17;-0,37;-2,56;-2,17;-1,09;0,12;-0,34;1,99;964,32
8.828;-0,46;-1,17;-0,37;-2,56;-2,17;-1,09;-0,06;2,11;2,58;964,32
8.828;-0,46;-1,17;-0,37;-2,56;-2,17;-1,09;-0,06;2,11;2,58;964,32
8.835;-0,44;-1,17;-0,39;-2,56;-2,17;-1,09;-0,06;2,11;2,58;964,32
8.835;-0,45;-1,19;-0,39;-2,56;-2,17;-1,09;-0,06;2,11;2,58;964,32
8.835;-0,46;-1,22;-0,36;-2,56;-2,17;-1,09;-0,06;2,11;2,58;964,32
8.887;-0,46;-1,22;-0,36;-1,46;-3,18;-0,51;-0,06;2,11;2,58;964,32
8.889;-0,46;-1,22;-0,36;-1,46;-3,18;-0,51;-0,52;1,76;2,94;964,32
8.894;-0,49;-1,24;-0,34;-1,46;-3,18;-0,51;-0,52;1,76;2,94;964,32
8.897;-0,49;-1,22;-0,32;-1,46;-3,18;-0,51;-0,52;1,76;2,94;964,32
8.897;-0,48;-1,20;-0,30;-1,46;-3,18;-0,51;-0,52;1,76;2,94;964,32
8.926;-0,48;-1,20;-0,30;-1,46;-3,18;-0,51;-0,52;1,76;2,94;964,32
8.946;-0,48;-1,20;-0,30;-0,25;-3,71;0,62;-0,52;1,76;2,94;964,32
8.947;-0,48;-1,20;-0,30;-0,25;-3,71;0,62;-0,73;-0,03;3,27;964,32
8.953;-0,45;-1,16;-0,28;-0,25;-3,71;0,62;-0,73;-0,03;3,27;964,32
8.954;-0,42;-1,13;-0,24;-0,25;-3,71;0,62;-0,73;-0,03;3,27;964,32
8.954;-0,38;-1,11;-0,21;-0,25;-3,71;0,62;-0,73;-0,03;3,27;964,32
9.007;-0,38;-1,11;-0,21;2,29;-4,08;1,63;-0,73;-0,03;3,27;964,32
9.007;-0,38;-1,11;-0,21;2,29;-4,08;1,63;-0,61;-0,52;3,48;964,32
9.013;-0,33;-1,10;-0,19;2,29;-4,08;1,63;-0,61;-0,52;3,48;964,32
9.014;-0,29;-1,11;-0,18;2,29;-4,08;1,63;-0,61;-0,52;3,48;964,32
9.014;-0,26;-1,11;-0,16;2,29;-4,08;1,63;-0,61;-0,52;3,48;964,32
9.029;-0,26;-1,11;-0,16;2,29;-4,08;1,63;-0,61;-0,52;3,48;964,30
9.068;-0,26;-1,11;-0,16;4,74;-5,51;2,14;-0,61;-0,52;3,48;964,30
9.069;-0,26;-1,11;-0,16;4,74;-5,51;2,14;-0,39;-0,29;2,93;964,30
9.074;-0,26;-1,09;-0,16;4,74;-5,51;2,14;-0,39;-0,29;2,93;964,30
9.075;-0,26;-1,05;-0,15;4,74;-5,51;2,14;-0,39;-0,29;2,93;964,30
9.075;-0,25;-0,96;-0,14;4,74;-5,51;2,14;-0,39;-0,29;2,93;964,30
9.129;-0,25;-0,96;-0,14;5,65;-5,34;2,29;-0,39;-0,29;2,93;964,30
9.129;-0,25;-0,96;-0,14;5,65;-5,34;2,29;-0,15;-0,25;2,27;964,30
9.13;-0,25;-0,96;-0,14;5,65;-5,34;2,29;-0,15;-0,25;2,27;964,28
9.133;-0,24;-0,88;-0,17;5,65;-5,34;2,29;-0,15;-0,25;2,27;964,28
9.133;-0,21;-0,80;-0,17;5,65;-5,34;2,29;-0,15;-0,25;2,27;964,28
9.133;-0,18;-0,74;-0,17;5,65;-5,34;2,29;-0,15;-0,25;2,27;964,28
9.187;-0,18;-0,74;-0,17;6,76;-4,08;1,96;-0,15;-0,25;2,27;964,28
9.188;-0,18;-0,74;-0,17;6,76;-4,08;1,96;0,17;-0,14;0,93;964,28
9.196;-0,15;-0,72;-0,16;6,76;-4,08;1,96;0,17;-0,14;0,93;964,28
9.196;-0,17;-0,72;-0,17;6,76;-4,08;1,96;0,17;-0,14;0,93;964,28
9.197;-0,18;-0,71;-0,17;6,76;-4,08;1,96;0,17;-0,14;0,93;964,28
9.231;-0,18;-0,71;-0,17;6,76;-4,08;1,96;0,17;-0,14;0,93;964,28
9.246;-0,18;-0,71;-0,17;6,85;-3,77;1,82;0,17;-0,14;0,93;964,28
9.247;-0,18;-0,71;-0,17;6,85;-3,77;1,82;0,49;0,20;-1,04;964,28
9.253;-0,17;-0,73;-0,21;6,85;-3,77;1,82;0,49;0,20;-1,04;964,28
9.254;-0,14;-0,84;-0,18;6,85;-3,77;1,82;0,49;0,20;-1,04;964,28
9.254;-0,21;-0,83;-0,17;6,85;-3,77;1,82;0,49;0,20;-1,04;964,28
9.308;-0,21;-0,83;-0,17;5,95;-3,86;1,96;0,49;0,20;-1,04;964,28
9.309;-0,21;-0,83;-0,17;5,95;-3,86;1,96;0,79;0,60;-2,66;964,28
9.315;-0,33;-0,90;-0,27;5,95;-3,86;1,96;0,79;0,60;-2,66;964,28
9.315;-0,37;-0,93;-0,41;5,95;-3,86;1,96;0,79;0,60;-2,66;964,28
9.315;-0,36;-0,92;-0,51;5,95;-3,86;1,96;0,79;0,60;-2,66;964,28
9.328;-0,36;-0,92;-0,51;5,95;-3,86;1,96;0,79;0,60;-2,66;964,25
9.368;-0,36;-0,92;-0,51;3,45;-3,20;-1,34;0,79;0,60;-2,66;964,25
9.369;-0,36;-0,92;-0,51;3,45;-3,20;-1,34;0,61;0,59;-3,30;964,25
9.373;-0,35;-0,95;-0,54;3,45;-3,20;-1,34;0,61;0,59;-3,30;964,25
9.374;-0,35;-1,03;-0,50;3,45;-3,20;-1,34;0,61;0,59;-3,30;964,25
9.374;-0,35;-1,13;-0,45;3,45;-3,20;-1,34;0,61;0,59;-3,30;964,25
9.428;-0,35;-1,13;-0,45;2,01;-3,82;-0,77;0,61;0,59;-3,30;964,25
9.429;-0,35;-1,13;-0,45;2,01;-3,82;-0,77;0,74;0,60;-3,76;964,25
9.429;-0,35;-1,13;-0,45;2,01;-3,82;-0,77;0,74;0,60;-3,76;964,27
9.434;-0,37;-1,19;-0,40;2,01;-3,82;-0,77;0,74;0,60;-3,76;964,27
9.434;-0,40;-1,21;-0,39;2,01;-3,82;-0,77;0,74;0,60;-3,76;964,27
9.434;-0,43;-1,20;-0,43;2,01;-3,82;-0,77;0,74;0,60;-3,76;964,27
9.487;-0,43;-1,20;-0,43;-0,53;-3,29;-0,72;0,74;0,60;-3,76;964,27
9.488;-0,43;-1,20;-0,43;-0,53;-3,29;-0,72;0,49;0,17;-3,34;964,27
9.499;-0,45;-1,15;-0,49;-0,53;-3,29;-0,72;0,49;0,17;-3,34;964,27
9.499;-0,50;-1,07;-0,59;-0,53;-3,29;-0,72;0,49;0,17;-3,34;964,27
9.5;-0,50;-0,96;-0,66;-0,53;-3,29;-0,72;0,49;0,17;-3,34;964,27
9.532;-0,50;-0,96;-0,66;-0,53;-3,29;-0,72;0,49;0,17;-3,34;964,29
9.548;-0,50;-0,96;-0,66;-2,79;-0,39;-3,24;0,49;0,17;-3,34;964,29
9.549;-0,50;-0,96;-0,66;-2,79;-0,39;-3,24;0,08;-1,18;-2,74;964,29
9.553;-0,51;-0,88;-0,57;-2,79;-0,39;-3,24;0,08;-1,18;-2,74;964,29
9.553;-0,47;-0,86;-0,44;-2,79;-0,39;-3,24;0,08;-1,18;-2,74;964,29
9.554;-0,47;-0,85;-0,39;-2,79;-0,39;-3,24;0,08;-1,18;-2,74;964,29
9.608;-0,47;-0,85;-0,39;-3,66;0,94;-0,67;0,08;-1,18;-2,74;964,29
9.608;-0,47;-0,85;-0,39;-3,66;0,94;-0,67;-0,05;-1,11;-2,20;964,29
9.618;-0,51;-0,84;-0,40;-3,66;0,94;-0,67;-0,05;-1,11;-2,20;964,29
9.619;-0,52;-0,83;-0,41;-3,66;0,94;-0,67;-0,05;-1,11;-2,20;964,29
9.619;-0,53;-0,82;-0,42;-3,66;0,94;-0,67;-0,05;-1,11;-2,20;964,29
9.626;-0,53;-0,82;-0,42;-3,66;0,94;-0,67;-0,05;-1,11;-2,20;964,32
9.667;-0,53;-0,82;-0,42;-5,08;1,27;-0,96;-0,05;-1,11;-2,20;964,32
9.668;-0,53;-0,82;-0,42;-5,08;1,27;-0,96;-0,02;-0,55;-1,55;964,32
9.675;-0,54;-0,80;-0,40;-5,08;1,27;-0,96;-0,02;-0,55;-1,55;964,32
9.676;-0,54;-0,81;-0,39;-5,08;1,27;-0,96;-0,02;-0,55;-1,55;964,32
9.676;-0,56;-0,84;-0,41;-5,08;1,27;-0,96;-0,02;-0,55;-1,55;964,32
9.727;-0,56;-0,84;-0,41;-6,07;1,09;-0,92;-0,02;-0,55;-1,55;964,32
9.728;-0,56;-0,84;-0,41;-6,07;1,09;-0,92;0,01;0,39;-0,85;964,32
9.729;-0,56;-0,84;-0,41;-6,07;1,09;-0,92;0,01;0,39;-0,85;964,33
9.734;-0,60;-0,88;-0,46;-6,07;1,09;-0,92;0,01;0,39;-0,85;964,33
9.735;-0,62;-0,92;-0,49;-6,07;1,09;-0,92;0,01;0,39;-0,85;964,33
9.735;-0,65;-0,96;-0,51;-6,07;1,09;-0,92;0,01;0,39;-0,85;964,33
9.787;-0,65;-0,96;-0,51;-7,24;-0,16;-1,86;0,01;0,39;-0,85;964,33
9.789;-0,65;-0,96;-0,51;-7,24;-0,16;-1,86;-0,04;0,08;0,23;964,33
9.795;-0,68;-0,99;-0,52;-7,24;-0,16;-1,86;-0,04;0,08;0,23;964,33
9.796;-0,68;-0,97;-0,51;-7,24;-0,16;-1,86;-0,04;0,08;0,23;964,33
9.796;-0,63;-1,02;-0,46;-7,24;-0,16;-1,86;-0,04;0,08;0,23;964,33
9.826;-0,63;-1,02;-0,46;-7,24;-0,16;-1,86;-0,04;0,08;0,23;964,34
9.847;-0,63;-1,02;-0,46;-6,67;-0,73;-1,33;-0,04;0,08;0,23;964,34
9.848;-0,63;-1,02;-0,46;-6,67;-0,73;-1,33;-0,13;0,16;1,33;964,34
9.853;-0,59;-1,17;-0,51;-6,67;-0,73;-1,33;-0,13;0,16;1,33;964,34
9.853;-0,65;-1,21;-0,55;-6,67;-0,73;-1,33;-0,13;0,16;1,33;964,34
9.854;-0,62;-1,22;-0,49;-6,67;-0,73;-1,33;-0,13;0,16;1,33;964,34
9.908;-0,62;-1,22;-0,49;-5,54;-2,67;-1,56;-0,13;0,16;1,33;964,34
9.909;-0,62;-1,22;-0,49;-5,54;-2,67;-1,56;-0,02;0,62;2,41;964,34
9.916;-0,53;-1,20;-0,42;-5,54;-2,67;-1,56;-0,02;0,62;2,41;964,34
9.917;-0,46;-1,21;-0,38;-5,54;-2,67;-1,56;-0,02;0,62;2,41;964,34
9.917;-0,44;-1,20;-0,37;-5,54;-2,67;-1,56;-0,02;0,62;2,41;964,34
9.926;-0,44;-1,20;-0,37;-5,54;-2,67;-1,56;-0,02;0,62;2,41;964,32
9.968;-0,44;-1,20;-0,37;-2,63;-2,68;-0,32;-0,02;0,62;2,41;964,32
9.969;-0,44;-1,20;-0,37;-2,63;-2,68;-0,32;-0,23;1,55;2,89;964,32
9.974;-0,45;-1,18;-0,38;-2,63;-2,68;-0,32;-0,23;1,55;2,89;964,32
9.974;-0,45;-1,23;-0,38;-2,63;-2,68;-0,32;-0,23;1,55;2,89;964,32
9.975;-0,42;-1,20;-0,35;-2,63;-2,68;-0,32;-0,23;1,55;2,89;964,32
10.027;-0,42;-1,20;-0,35;-1,16;-3,23;0,33;-0,23;1,55;2,89;964,32
10.028;-0,42;-1,20;-0,35;-1,16;-3,23;0,33;-0,50;1,41;3,04;964,32
10.028;-0,42;-1,20;-0,35;-1,16;-3,23;0,33;-0,50;1,41;3,04;964,32
10.034;-0,38;-1,17;-0,31;-1,16;-3,23;0,33;-0,50;1,41;3,04;964,32
10.035;-0,37;-1,12;-0,27;-1,16;-3,23;0,33;-0,50;1,41;3,04;964,32
10.035;-0,38;-1,14;-0,27;-1,16;-3,23;0,33;-0,50;1,41;3,04;964,32
10.087;-0,38;-1,14;-0,27;0,51;-3,40;1,58;-0,50;1,41;3,04;964,32
10.088;-0,38;-1,14;-0,27;0,51;-3,40;1,58;-0,72;0,62;3,10;964,32
10.093;-0,38;-1,13;-0,26;0,51;-3,40;1,58;-0,72;0,62;3,10;964,32
10.094;-0,35;-1,09;-0,23;0,51;-3,40;1,58;-0,72;0,62;3,10;964,32
10.094;-0,32;-1,07;-0,19;0,51;-3,40;1,58;-0,72;0,62;3,10;964,32
10.127;-0,32;-1,07;-0,19;0,51;-3,40;1,58;-0,72;0,62;3,10;964,31
10.148;-0,32;-1,07;-0,19;2,36;-3,81;2,83;-0,72;0,62;3,10;964,31
10.149;-0,32;-1,07;-0,19;2,36;-3,81;2,83;-0,64;0,05;2,98;964,31
10.154;-0,29;-1,05;-0,16;2,36;-3,81;2,83;-0,64;0,05;2,98;964,31
10.155;-0,27;-1,03;-0,14;2,36;-3,81;2,83;-0,64;0,05;2,98;964,31
10.155;-0,26;-1,00;-0,12;2,36;-3,81;2,83;-0,64;0,05;2,98;964,31
10.207;-0,26;-1,00;-0,12;3,93;-4,26;3,74;-0,64;0,05;2,98;964,31
10.208;-0,26;-1,00;-0,12;3,93;-4,26;3,74;-0,36;0,25;2,62;964,31
10.218;-0,25;-0,97;-0,10;3,93;-4,26;3,74;-0,36;0,25;2,62;964,31
10.218;-0,23;-0,94;-0,10;3,93;-4,26;3,74;-0,36;0,25;2,62;964,31
10.219;-0,23;-0,87;-0,10;3,93;-4,26;3,74;-0,36;0,25;2,62;964,31
10.227;-0,23;-0,87;-0,10;3,93;-4,26;3,74;-0,36;0,25;2,62;964,27
10.267;-0,23;-0,87;-0,10;4,90;-3,93;4,05;-0,36;0,25;2,62;964,27
10.268;-0,23;-0,87;-0,10;4,90;-3,93;4,05;0,02;0,03;1,94;964,27
10.273;-0,23;-0,81;-0,09;4,90;-3,93;4,05;0,02;0,03;1,94;964,27
10.274;-0,23;-0,79;-0,09;4,90;-3,93;4,05;0,02;0,03;1,94;964,27
10.274;-0,22;-0,79;-0,09;4,90;-3,93;4,05;0,02;0,03;1,94;964,27
10.328;-0,22;-0,79;-0,09;5,34;-3,76;4,04;0,02;0,03;1,94;964,27
10.328;-0,22;-0,79;-0,09;5,34;-3,76;4,04;0,52;0,08;0,87;964,27
10.329;-0,22;-0,79;-0,09;5,34;-3,76;4,04;0,52;0,08;0,87;964,26
10.334;-0,21;-0,80;-0,10;5,34;-3,76;4,04;0,52;0,08;0,87;964,26
10.334;-0,21;-0,82;-0,10;5,34;-3,76;4,04;0,52;0,08;0,87;964,26
10.334;-0,22;-0,82;-0,13;5,34;-3,76;4,04;0,52;0,08;0,87;964,26
10.388;-0,22;-0,82;-0,13;5,30;-3,91;3,55;0,52;0,08;0,87;964,26
10.389;-0,22;-0,82;-0,13;5,30;-3,91;3,55;1,00;0,43;-0,84;964,26
10.393;-0,22;-0,85;-0,18;5,30;-3,91;3,55;1,00;0,43;-0,84;964,26
10.393;-0,21;-0,98;-0,19;5,30;-3,91;3,55;1,00;0,43;-0,84;964,26
10.393;-0,25;-0,97;-0,18;5,30;-3,91;3,55;1,00;0,43;-0,84;964,26
10.426;-0,25;-0,97;-0,18;5,30;-3,91;3,55;1,00;0,43;-0,84;964,27
10.449;-0,25;-0,97;-0,18;4,35;-4,36;3,02;1,00;0,43;-0,84;964,27
10.449;-0,25;-0,97;-0,18;4,35;-4,36;3,02;1,51;1,14;-1,67;964,27
10.454;-0,41;-0,92;-0,36;4,35;-4,36;3,02;1,51;1,14;-1,67;964,27
10.454;-0,44;-0,88;-0,58;4,35;-4,36;3,02;1,51;1,14;-1,67;964,27
10.455;-0,39;-0,89;-0,69;4,35;-4,36;3,02;1,51;1,14;-1,67;964,27
10.507;-0,39;-0,89;-0,69;2,02;-2,54;-1,91;1,51;1,14;-1,67;964,27
10.507;-0,39;-0,89;-0,69;2,02;-2,54;-1,91;1,48;1,36;-2,04;964,27
10.514;-0,36;-0,96;-0,67;2,02;-2,54;-1,91;1,48;1,36;-2,04;964,27
10.514;-0,39;-1,03;-0,61;2,02;-2,54;-1,91;1,48;1,36;-2,04;964,27
10.515;-0,43;-1,06;-0,53;2,02;-2,54;-1,91;1,48;1,36;-2,04;964,27
10.528;-0,43;-1,06;-0,53;2,02;-2,54;-1,91;1,48;1,36;-2,04;964,27
10.566;-0,43;-1,06;-0,53;0,33;-3,04;-0,62;1,48;1,36;-2,04;964,27
10.567;-0,43;-1,06;-0,53;0,33;-3,04;-0,62;1,59;1,26;-2,33;964,27
10.575;-0,44;-1,06;-0,46;0,33;-3,04;-0,62;1,59;1,26;-2,33;964,27
10.575;-0,43;-1,04;-0,43;0,33;-3,04;-0,62;1,59;1,26;-2,33;964,27
10.575;-0,42;-0,98;-0,46;0,33;-3,04;-0,62;1,59;1,26;-2,33;964,27
10.627;-0,42;-0,98;-0,46;-0,95;-1,36;-0,30;1,59;1,26;-2,33;964,27
10.628;-0,42;-0,98;-0,46;-0,95;-1,36;-0,30;1,29;1,10;-2,14;964,27
10.628;-0,42;-0,98;-0,46;-0,95;-1,36;-0,30;1,29;1,10;-2,14;964,28
10.633;-0,43;-0,93;-0,51;-0,95;-1,36;-0,30;1,29;1,10;-2,14;964,28
10.634;-0,44;-0,87;-0,53;-0,95;-1,36;-0,30;1,29;1,10;-2,14;964,28
10.634;-0,44;-0,83;-0,50;-0,95;-1,36;-0,30;1,29;1,10;-2,14;964,28
10.687;-0,44;-0,83;-0,50;-2,43;0,69;-1,18;1,29;1,10;-2,14;964,28
10.69;-0,44;-0,83;-0,50;-2,43;0,69;-1,18;0,88;0,51;-2,07;964,28
10.696;-0,45;-0,80;-0,46;-2,43;0,69;-1,18;0,88;0,51;-2,07;964,28
10.701;-0,48;-0,78;-0,42;-2,43;0,69;-1,18;0,88;0,51;-2,07;964,28
10.701;-0,50;-0,78;-0,40;-2,43;0,69;-1,18;0,88;0,51;-2,07;964,28
10.727;-0,50;-0,78;-0,40;-2,43;0,69;-1,18;0,88;0,51;-2,07;964,30
10.747;-0,50;-0,78;-0,40;-4,16;1,53;-0,55;0,88;0,51;-2,07;964,30
10.748;-0,50;-0,78;-0,40;-4,16;1,53;-0,55;0,65;0,64;-1,73;964,30
10.754;-0,51;-0,77;-0,39;-4,16;1,53;-0,55;0,65;0,64;-1,73;964,30
10.755;-0,51;-0,78;-0,40;-4,16;1,53;-0,55;0,65;0,64;-1,73;964,30
10.756;-0,53;-0,79;-0,43;-4,16;1,53;-0,55;0,65;0,64;-1,73;964,30
10.808;-0,53;-0,79;-0,43;-5,34;1,55;-1,12;0,65;0,64;-1,73;964,30
10.81;-0,53;-0,79;-0,43;-5,34;1,55;-1,12;0,43;1,22;-0,75;964,30
10.813;-0,56;-0,82;-0,45;-5,34;1,55;-1,12;0,43;1,22;-0,75;964,30
10.813;-0,57;-0,82;-0,46;-5,34;1,55;-1,12;0,43;1,22;-0,75;964,30
10.814;-0,58;-0,86;-0,47;-5,34;1,55;-1,12;0,43;1,22;-0,75;964,30
10.826;-0,58;-0,86;-0,47;-5,34;1,55;-1,12;0,43;1,22;-0,75;964,33
10.868;-0,58;-0,86;-0,47;-6,21;0,96;-1,76;0,43;1,22;-0,75;964,33
10.869;-0,58;-0,86;-0,47;-6,21;0,96;-1,76;0,16;1,29;0,48;964,33
10.875;-0,58;-0,91;-0,50;-6,21;0,96;-1,76;0,16;1,29;0,48;964,33
10.875;-0,58;-0,95;-0,53;-6,21;0,96;-1,76;0,16;1,29;0,48;964,33
10.876;-0,57;-0,96;-0,50;-6,21;0,96;-1,76;0,16;1,29;0,48;964,33
10.927;-0,57;-0,96;-0,50;-5,77;-0,06;-2,10;0,16;1,29;0,48;964,33
10.928;-0,57;-0,96;-0,50;-5,77;-0,06;-2,10;-0,19;0,44;1,30;964,33
10.928;-0,57;-0,96;-0,50;-5,77;-0,06;-2,10;-0,19;0,44;1,30;964,32
10.936;-0,56;-0,96;-0,47;-5,77;-0,06;-2,10;-0,19;0,44;1,30;964,32
10.936;-0,54;-0,98;-0,43;-5,77;-0,06;-2,10;-0,19;0,44;1,30;964,32
10.937;-0,51;-1,14;-0,41;-5,77;-0,06;-2,10;-0,19;0,44;1,30;964,32
10.986;-0,51;-1,14;-0,41;-4,49;-1,88;-1,01;-0,19;0,44;1,30;964,32
10.987;-0,51;-1,14;-0,41;-4,49;-1,88;-1,01;-0,50;0,63;0,99;964,32
10.994;-0,53;-1,23;-0,38;-4,49;-1,88;-1,01;-0,50;0,63;0,99;964,32
10.995;-0,61;-1,40;-0,32;-4,49;-1,88;-1,01;-0,50;0,63;0,99;964,32
10.995;-0,76;-1,39;-0,25;-4,49;-1,88;-1,01;-0,50;0,63;0,99;964,32
11.026;-0,76;-1,39;-0,25;-4,49;-1,88;-1,01;-0,50;0,63;0,99;964,35
11.046;-0,76;-1,39;-0,25;-6,44;-4,50;0,99;-0,50;0,63;0,99;964,35
11.047;-0,76;-1,39;-0,25;-6,44;-4,50;0,99;-0,55;1,24;1,90;964,35
11.053;-0,87;-1,40;-0,13;-6,44;-4,50;0,99;-0,55;1,24;1,90;964,35
11.053;-0,84;-1,38;-0,01;-6,44;-4,50;0,99;-0,55;1,24;1,90;964,35
11.054;-0,76;-1,29;0,03;-6,44;-4,50;0,99;-0,55;1,24;1,90;964,35
11.107;-0,76;-1,29;0,03;-5,48;-3,76;4,06;-0,55;1,24;1,90;964,35
11.108;-0,76;-1,29;0,03;-5,48;-3,76;4,06;-0,30;1,32;2,98;964,35
11.115;-0,71;-1,22;-0,01;-5,48;-3,76;4,06;-0,30;1,32;2,98;964,35
11.115;-0,69;-1,21;-0,05;-5,48;-3,76;4,06;-0,30;1,32;2,98;964,35
11.115;-0,69;-1,20;-0,06;-5,48;-3,76;4,06;-0,30;1,32;2,98;964,35
11.126;-0,69;-1,20;-0,06;-5,48;-3,76;4,06;-0,30;1,32;2,98;964,37
11.168;-0,69;-1,20;-0,06;-3,40;-3,57;3,57;-0,30;1,32;2,98;964,37
11.169;-0,69;-1,20;-0,06;-3,40;-3,57;3,57;-0,55;1,19;3,64;964,37
11.174;-0,70;-1,20;-0,02;-3,40;-3,57;3,57;-0,55;1,19;3,64;964,37
11.174;-0,70;-1,21;0,04;-3,40;-3,57;3,57;-0,55;1,19;3,64;964,37
11.174;-0,72;-1,24;0,07;-3,40;-3,57;3,57;-0,55;1,19;3,64;964,37
11.228;-0,72;-1,24;0,07;-2,10;-5,04;5,25;-0,55;1,19;3,64;964,37
11.229;-0,72;-1,24;0,07;-2,10;-5,04;5,25;-0,44;-0,10;3,89;964,37
11.229;-0,72;-1,24;0,07;-2,10;-5,04;5,25;-0,44;-0,10;3,89;964,35
11.235;-0,71;-1,28;0,08;-2,10;-5,04;5,25;-0,44;-0,10;3,89;964,35
11.236;-0,64;-1,32;0,08;-2,10;-5,04;5,25;-0,44;-0,10;3,89;964,35
11.236;-0,54;-1,32;0,08;-2,10;-5,04;5,25;-0,44;-0,10;3,89;964,35
11.287;-0,54;-1,32;0,08;1,07;-7,24;5,50;-0,44;-0,10;3,89;964,35
11.288;-0,54;-1,32;0,08;1,07;-7,24;5,50;-0,39;0,80;3,59;964,35
11.294;-0,43;-1,33;0,08;1,07;-7,24;5,50;-0,39;0,80;3,59;964,35
11.295;-0,37;-1,33;0,09;1,07;-7,24;5,50;-0,39;0,80;3,59;964,35
11.295;-0,36;-1,32;0,08;1,07;-7,24;5,50;-0,39;0,80;3,59;964,35
11.327;-0,36;-1,32;0,08;1,07;-7,24;5,50;-0,39;0,80;3,59;964,35
11.346;-0,36;-1,32;0,08;3,56;-8,64;6,01;-0,39;0,80;3,59;964,35
11.347;-0,36;-1,32;0,08;3,56;-8,64;6,01;-0,16;0,57;2,77;964,35
11.354;-0,38;-1,29;0,08;3,56;-8,64;6,01;-0,16;0,57;2,77;964,35
11.355;-0,41;-1,23;0,08;3,56;-8,64;6,01;-0,16;0,57;2,77;964,35
11.355;-0,39;-1,13;0,08;3,56;-8,64;6,01;-0,16;0,57;2,77;964,35
11.407;-0,39;-1,13;0,08;3,82;-7,93;6,05;-0,16;0,57;2,77;964,35
11.408;-0,39;-1,13;0,08;3,82;-7,93;6,05;0,60;0,09;2,28;964,35
11.414;-0,32;-1,04;0,06;3,82;-7,93;6,05;0,60;0,09;2,28;964,35
11.414;-0,25;-0,95;0,05;3,82;-7,93;6,05;0,60;0,09;2,28;964,35
11.415;-0,18;-0,88;0,06;3,82;-7,93;6,05;0,60;0,09;2,28;964,35
11.428;-0,18;-0,88;0,06;3,82;-7,93;6,05;0,60;0,09;2,28;964,29
11.467;-0,18;-0,88;0,06;6,02;-6,02;5,91;0,60;0,09;2,28;964,29
11.468;-0,18;-0,88;0,06;6,02;-6,02;5,91;1,35;1,14;1,53;964,29
11.475;-0,14;-0,84;0,05;6,02;-6,02;5,91;1,35;1,14;1,53;964,29
11.476;-0,14;-0,80;0,01;6,02;-6,02;5,91;1,35;1,14;1,53;964,29
11.476;-0,16;-0,79;-0,05;6,02;-6,02;5,91;1,35;1,14;1,53;964,29
11.529;-0,16;-0,79;-0,05;5,96;-5,03;5,17;1,35;1,14;1,53;964,29
11.529;-0,16;-0,79;-0,05;5,96;-5,03;5,17;1,86;1,16;0,11;964,29
11.529;-0,16;-0,79;-0,05;5,96;-5,03;5,17;1,86;1,16;0,11;964,24
11.544;-0,21;-0,88;-0,12;5,96;-5,03;5,17;1,86;1,16;0,11;964,24
11.544;-0,26;-0,90;-0,10;5,96;-5,03;5,17;1,86;1,16;0,11;964,24
11.544;-0,36;-0,81;-0,15;5,96;-5,03;5,17;1,86;1,16;0,11;964,24
11.586;-0,36;-0,81;-0,15;3,64;-4,30;4,19;1,86;1,16;0,11;964,24
11.587;-0,36;-0,81;-0,15;3,64;-4,30;4,19;2,48;0,92;-0,51;964,24
11.594;-0,39;-0,73;-0,27;3,64;-4,30;4,19;2,48;0,92;-0,51;964,24
11.594;-0,35;-0,67;-0,43;3,64;-4,30;4,19;2,48;0,92;-0,51;964,24
11.594;-0,29;-0,69;-0,50;3,64;-4,30;4,19;2,48;0,92;-0,51;964,24
11.626;-0,29;-0,69;-0,50;3,64;-4,30;4,19;2,48;0,92;-0,51;964,21
11.647;-0,29;-0,69;-0,50;3,66;-1,98;0,64;2,48;0,92;-0,51;964,21
11.647;-0,29;-0,69;-0,50;3,66;-1,98;0,64;2,42;1,54;-1,18;964,21
11.655;-0,31;-0,77;-0,53;3,66;-1,98;0,64;2,42;1,54;-1,18;964,21
11.655;-0,38;-0,86;-0,53;3,66;-1,98;0,64;2,42;1,54;-1,18;964,21
11.655;-0,42;-0,94;-0,53;3,66;-1,98;0,64;2,42;1,54;-1,18;964,21
11.706;-0,42;-0,94;-0,53;1,48;-3,10;0,05;2,42;1,54;-1,18;964,21
11.707;-0,42;-0,94;-0,53;1,48;-3,10;0,05;2,10;0,65;-1,73;964,21
11.713;-0,44;-0,97;-0,56;1,48;-3,10;0,05;2,10;0,65;-1,73;964,21
11.714;-0,44;-0,98;-0,64;1,48;-3,10;0,05;2,10;0,65;-1,73;964,21
11.714;-0,40;-0,97;-0,68;1,48;-3,10;0,05;2,10;0,65;-1,73;964,21
11.725;-0,40;-0,97;-0,68;1,48;-3,10;0,05;2,10;0,65;-1,73;964,24
11.767;-0,40;-0,97;-0,68;0,77;-2,19;-2,13;2,10;0,65;-1,73;964,24
11.769;-0,40;-0,97;-0,68;0,77;-2,19;-2,13;1,70;-0,01;-2,69;964,24
11.774;-0,31;-0,92;-0,63;0,77;-2,19;-2,13;1,70;-0,01;-2,69;964,24
11.774;-0,28;-0,89;-0,57;0,77;-2,19;-2,13;1,70;-0,01;-2,69;964,24
11.775;-0,32;-0,91;-0,55;0,77;-2,19;-2,13;1,70;-0,01;-2,69;964,24
11.827;-0,32;-0,91;-0,55;0,08;-0,52;-1,50;1,70;-0,01;-2,69;964,24
11.828;-0,32;-0,91;-0,55;0,08;-0,52;-1,50;1,59;1,34;-2,91;964,24
11.828;-0,32;-0,91;-0,55;0,08;-0,52;-1,50;1,59;1,34;-2,91;964,24
11.835;-0,38;-0,96;-0,57;0,08;-0,52;-1,50;1,59;1,34;-2,91;964,24
11.836;-0,43;-0,99;-0,61;0,08;-0,52;-1,50;1,59;1,34;-2,91;964,24
11.836;-0,44;-1,03;-0,63;0,08;-0,52;-1,50;1,59;1,34;-2,91;964,24
11.886;-0,44;-1,03;-0,63;-3,04;-0,98;-2,84;1,59;1,34;-2,91;964,24
11.887;-0,44;-1,03;-0,63;-3,04;-0,98;-2,84;1,43;2,26;-2,68;964,24
11.895;-0,46;-1,04;-0,63;-3,04;-0,98;-2,84;1,43;2,26;-2,68;964,24
11.896;-0,49;-1,03;-0,64;-3,04;-0,98;-2,84;1,43;2,26;-2,68;964,24
11.896;-0,56;-1,01;-0,74;-3,04;-0,98;-2,84;1,43;2,26;-2,68;964,24
11.926;-0,56;-1,01;-0,74;-3,04;-0,98;-2,84;1,43;2,26;-2,68;964,27
11.946;-0,56;-1,01;-0,74;-5,85;-0,53;-4,51;1,43;2,26;-2,68;964,27
11.946;-0,56;-1,01;-0,74;-5,85;-0,53;-4,51;0,70;1,96;-1,54;964,27
11.954;-0,61;-0,97;-0,77;-5,85;-0,53;-4,51;0,70;1,96;-1,54;964,27
11.955;-0,62;-0,90;-0,72;-5,85;-0,53;-4,51;0,70;1,96;-1,54;964,27
11.955;-0,60;-0,85;-0,62;-5,85;-0,53;-4,51;0,70;1,96;-1,54;964,27
12.008;-0,60;-0,85;-0,62;-7,13;1,09;-3,70;0,70;1,96;-1,54;964,27
12.009;-0,60;-0,85;-0,62;-7,13;1,09;-3,70;0,20;0,95;-0,57;964,27
12.014;-0,59;-0,81;-0,56;-7,13;1,09;-3,70;0,20;0,95;-0,57;964,27
12.014;-0,58;-0,81;-0,53;-7,13;1,09;-3,70;0,20;0,95;-0,57;964,27
12.014;-0,58;-0,82;-0,51;-7,13;1,09;-3,70;0,20;0,95;-0,57;964,27
12.027;-0,58;-0,82;-0,51;-7,13;1,09;-3,70;0,20;0,95;-0,57;964,29
12.066;-0,58;-0,82;-0,51;-7,02;1,41;-2,68;0,20;0,95;-0,57;964,29
12.067;-0,58;-0,82;-0,51;-7,02;1,41;-2,68;-0,13;0,16;0,35;964,29
12.073;-0,57;-0,85;-0,48;-7,02;1,41;-2,68;-0,13;0,16;0,35;964,29
12.074;-0,52;-0,86;-0,40;-7,02;1,41;-2,68;-0,13;0,16;0,35;964,29
12.074;-0,49;-1,01;-0,37;-7,02;1,41;-2,68;-0,13;0,16;0,35;964,29
12.128;-0,49;-1,01;-0,37;-5,93;-0,49;-1,25;-0,13;0,16;0,35;964,29
12.129;-0,49;-1,01;-0,37;-5,93;-0,49;-1,25;-0,35;0,92;0,66;964,29
12.129;-0,49;-1,01;-0,37;-5,93;-0,49;-1,25;-0,35;0,92;0,66;964,29
12.133;-0,51;-1,14;-0,38;-5,93;-0,49;-1,25;-0,35;0,92;0,66;964,29
12.134;-0,54;-1,28;-0,36;-5,93;-0,49;-1,25;-0,35;0,92;0,66;964,29
12.135;-0,52;-1,30;-0,30;-5,93;-0,49;-1,25;-0,35;0,92;0,66;964,29
12.187;-0,52;-1,30;-0,30;-5,89;-3,28;-0,35;-0,35;0,92;0,66;964,29
12.188;-0,52;-1,30;-0,30;-5,89;-3,28;-0,35;-0,34;1,48;1,35;964,29
12.194;-0,47;-1,22;-0,23;-5,89;-3,28;-0,35;-0,34;1,48;1,35;964,29
12.195;-0,43;-1,20;-0,20;-5,89;-3,28;-0,35;-0,34;1,48;1,35;964,29
12.196;-0,46;-1,14;-0,23;-5,89;-3,28;-0,35;-0,34;1,48;1,35;964,29
12.227;-0,46;-1,14;-0,23;-5,89;-3,28;-0,35;-0,34;1,48;1,35;964,31
12.247;-0,46;-1,14;-0,23;-4,61;-1,79;0,49;-0,34;1,48;1,35;964,31
12.247;-0,46;-1,14;-0,23;-4,61;-1,79;0,49;-0,62;1,59;2,05;964,31
12.254;-0,53;-1,09;-0,24;-4,61;-1,79;0,49;-0,62;1,59;2,05;964,31
12.254;-0,54;-1,08;-0,18;-4,61;-1,79;0,49;-0,62;1,59;2,05;964,31
12.255;-0,54;-1,14;-0,10;-4,61;-1,79;0,49;-0,62;1,59;2,05;964,31
12.306;-0,54;-1,14;-0,10;-4,33;-1,91;2,20;-0,62;1,59;2,05;964,31
12.307;-0,54;-1,14;-0,10;-4,33;-1,91;2,20;-1,05;0,76;2,75;964,31
12.313;-0,55;-1,16;-0,08;-4,33;-1,91;2,20;-1,05;0,76;2,75;964,31
12.314;-0,61;-1,16;-0,18;-4,33;-1,91;2,20;-1,05;0,76;2,75;964,31
12.314;-0,73;-1,14;-0,30;-4,33;-1,91;2,20;-1,05;0,76;2,75;964,31
12.326;-0,73;-1,14;-0,30;-4,33;-1,91;2,20;-1,05;0,76;2,75;964,32
12.368;-0,73;-1,14;-0,30;-4,52;-2,51;0,79;-1,05;0,76;2,75;964,32
12.369;-0,73;-1,14;-0,30;-4,52;-2,51;0,79;-0,97;-1,10;3,50;964,32
12.373;-0,68;-1,19;-0,18;-4,52;-2,51;0,79;-0,97;-1,10;3,50;964,32
12.374;-0,54;-1,21;-0,08;-4,52;-2,51;0,79;-0,97;-1,10;3,50;964,32
12.374;-0,45;-1,22;-0,07;-4,52;-2,51;0,79;-0,97;-1,10;3,50;964,32
12.427;-0,45;-1,22;-0,07;0,12;-4,27;3,41;-0,97;-1,10;3,50;964,32
12.427;-0,45;-1,22;-0,07;0,12;-4,27;3,41;-0,75;0,62;3,64;964,32
12.428;-0,45;-1,22;-0,07;0,12;-4,27;3,41;-0,75;0,62;3,64;964,33
12.439;-0,38;-1,21;-0,06;0,12;-4,27;3,41;-0,75;0,62;3,64;964,33
12.44;-0,37;-1,25;0,05;0,12;-4,27;3,41;-0,75;0,62;3,64;964,33
12.44;-0,41;-1,26;0,10;0,12;-4,27;3,41;-0,75;0,62;3,64;964,33
12.488;-0,41;-1,26;0,10;1,77;-5,87;5,62;-0,75;0,62;3,64;964,33
12.489;-0,41;-1,26;0,10;1,77;-5,87;5,62;-0,19;0,92;2,98;964,33
12.494;-0,39;-1,29;0,13;1,77;-5,87;5,62;-0,19;0,92;2,98;964,33
12.494;-0,34;-1,28;0,11;1,77;-5,87;5,62;-0,19;0,92;2,98;964,33
12.495;-0,28;-1,18;0,06;1,77;-5,87;5,62;-0,19;0,92;2,98;964,33
12.528;-0,28;-1,18;0,06;1,77;-5,87;5,62;-0,19;0,92;2,98;964,29
12.546;-0,28;-1,18;0,06;3,72;-6,06;5,53;-0,19;0,92;2,98;964,29
12.547;-0,28;-1,18;0,06;3,72;-6,06;5,53;0,30;0,78;2,10;964,29
12.553;-0,21;-1,08;0,03;3,72;-6,06;5,53;0,30;0,78;2,10;964,29
12.554;-0,15;-1,04;0,01;3,72;-6,06;5,53;0,30;0,78;2,10;964,29
12.554;-0,12;-1,03;0,03;3,72;-6,06;5,53;0,30;0,78;2,10;964,29
12.608;-0,12;-1,03;0,03;5,54;-5,04;5,39;0,30;0,78;2,10;964,29
12.609;-0,12;-1,03;0,03;5,54;-5,04;5,39;0,92;0,97;1,03;964,29
12.613;-0,06;-0,97;-0,02;5,54;-5,04;5,39;0,92;0,97;1,03;964,29
12.614;-0,02;-0,90;-0,12;5,54;-5,04;5,39;0,92;0,97;1,03;964,29
12.614;-0,01;-0,84;-0,17;5,54;-5,04;5,39;0,92;0,97;1,03;964,29
12.625;-0,01;-0,84;-0,17;5,54;-5,04;5,39;0,92;0,97;1,03;964,26
12.668;-0,01;-0,84;-0,17;6,54;-3,02;3,31;0,92;0,97;1,03;964,26
12.669;-0,01;-0,84;-0,17;6,54;-3,02;3,31;1,33;0,10;-0,70;964,26
12.673;0,00;-0,91;-0,18;6,54;-3,02;3,31;1,33;0,10;-0,70;964,26
12.673;-0,00;-1,05;-0,16;6,54;-3,02;3,31;1,33;0,10;-0,70;964,26
12.673;-0,03;-1,07;-0,19;6,54;-3,02;3,31;1,33;0,10;-0,70;964,26
12.728;-0,03;-1,07;-0,19;5,72;-4,17;2,60;1,33;0,10;-0,70;964,26
12.729;-0,03;-1,07;-0,19;5,72;-4,17;2,60;1,73;0,22;-2,20;964,26
12.729;-0,03;-1,07;-0,19;5,72;-4,17;2,60;1,73;0,22;-2,20;964,25
12.733;-0,11;-1,07;-0,27;5,72;-4,17;2,60;1,73;0,22;-2,20;964,25
12.734;-0,18;-1,06;-0,35;5,72;-4,17;2,60;1,73;0,22;-2,20;964,25
12.734;-0,22;-1,05;-0,43;5,72;-4,17;2,60;1,73;0,22;-2,20;964,25
12.788;-0,22;-1,05;-0,43;2,81;-2,84;-0,26;1,73;0,22;-2,20;964,25
12.789;-0,22;-1,05;-0,43;2,81;-2,84;-0,26;1,46;0,12;-2,49;964,25
12.793;-0,26;-1,06;-0,50;2,81;-2,84;-0,26;1,46;0,12;-2,49;964,25
12.794;-0,31;-1,08;-0,51;2,81;-2,84;-0,26;1,46;0,12;-2,49;964,25
12.794;-0,32;-1,09;-0,46;2,81;-2,84;-0,26;1,46;0,12;-2,49;964,25
12.827;-0,32;-1,09;-0,46;2,81;-2,84;-0,26;1,46;0,12;-2,49;964,26
12.849;-0,32;-1,09;-0,46;0,65;-2,25;-1,30;1,46;0,12;-2,49;964,26
12.85;-0,32;-1,09;-0,46;0,65;-2,25;-1,30;1,19;-0,26;-2,72;964,26
12.854;-0,34;-1,11;-0,41;0,65;-2,25;-1,30;1,19;-0,26;-2,72;964,26
12.855;-0,36;-1,10;-0,38;0,65;-2,25;-1,30;1,19;-0,26;-2,72;964,26
12.855;-0,41;-1,05;-0,36;0,65;-2,25;-1,30;1,19;-0,26;-2,72;964,26
12.908;-0,41;-1,05;-0,36;-1,56;-1,11;-0,97;1,19;-0,26;-2,72;964,26
12.909;-0,41;-1,05;-0,36;-1,56;-1,11;-0,97;0,94;-0,57;-2,50;964,26
12.913;-0,43;-0,96;-0,35;-1,56;-1,11;-0,97;0,94;-0,57;-2,50;964,26
12.914;-0,45;-0,87;-0,36;-1,56;-1,11;-0,97;0,94;-0,57;-2,50;964,26
12.914;-0,48;-0,84;-0,39;-1,56;-1,11;-0,97;0,94;-0,57;-2,50;964,26
12.926;-0,48;-0,84;-0,39;-1,56;-1,11;-0,97;0,94;-0,57;-2,50;964,26
12.973;-0,48;-0,84;-0,39;-3,42;1,27;-1,74;0,94;-0,57;-2,50;964,26
12.973;-0,48;-0,84;-0,39;-3,42;1,27;-1,74;0,47;-1,28;-2,11;964,26
12.974;-0,50;-0,83;-0,45;-3,42;1,27;-1,74;0,47;-1,28;-2,11;964,26
12.974;-0,50;-0,80;-0,45;-3,42;1,27;-1,74;0,47;-1,28;-2,11;964,26
12.974;-0,50;-0,80;-0,44;-3,42;1,27;-1,74;0,47;-1,28;-2,11;964,26
13.026;-0,50;-0,80;-0,44;-4,64;1,83;-2,49;0,47;-1,28;-2,11;964,26
13.026;-0,50;-0,80;-0,44;-4,64;1,83;-2,49;0,22;-1,20;-1,99;964,26
13.027;-0,50;-0,80;-0,44;-4,64;1,83;-2,49;0,22;-1,20;-1,99;964,27
13.035;-0,51;-0,81;-0,43;-4,64;1,83;-2,49;0,22;-1,20;-1,99;964,27
13.036;-0,52;-0,82;-0,40;-4,64;1,83;-2,49;0,22;-1,20;-1,99;964,27
13.036;-0,57;-0,85;-0,43;-4,64;1,83;-2,49;0,22;-1,20;-1,99;964,27
13.087;-0,57;-0,85;-0,43;-6,24;1,33;-2,40;0,22;-1,20;-1,99;964,27
13.087;-0,57;-0,85;-0,43;-6,24;1,33;-2,40;0,03;-0,81;-1,24;964,27
13.093;-0,63;-0,90;-0,52;-6,24;1,33;-2,40;0,03;-0,81;-1,24;964,27
13.095;-0,66;-0,93;-0,55;-6,24;1,33;-2,40;0,03;-0,81;-1,24;964,27
13.096;-0,65;-0,88;-0,53;-6,24;1,33;-2,40;0,03;-0,81;-1,24;964,27
13.126;-0,65;-0,88;-0,53;-6,24;1,33;-2,40;0,03;-0,81;-1,24;964,29
13.147;-0,65;-0,88;-0,53;-7,33;0,97;-3,40;0,03;-0,81;-1,24;964,29
13.148;-0,65;-0,88;-0,53;-7,33;0,97;-3,40;0,14;-0,22;0,08;964,29
13.161;-0,61;-0,86;-0,53;-7,33;0,97;-3,40;0,14;-0,22;0,08;964,29
13.161;-0,56;-0,86;-0,53;-7,33;0,97;-3,40;0,14;-0,22;0,08;964,29
13.161;-0,56;-0,90;-0,53;-7,33;0,97;-3,40;0,14;-0,22;0,08;964,29
13.206;-0,56;-0,90;-0,53;-6,17;0,79;-3,43;0,14;-0,22;0,08;964,29
13.207;-0,56;-0,90;-0,53;-6,17;0,79;-3,43;-0,15;0,12;0,92;964,29
13.217;-0,60;-0,97;-0,52;-6,17;0,79;-3,43;-0,15;0,12;0,92;964,29
13.217;-0,61;-0,96;-0,49;-6,17;0,79;-3,43;-0,15;0,12;0,92;964,29
13.217;-0,59;-0,99;-0,43;-6,17;0,79;-3,43;-0,15;0,12;0,92;964,29
13.225;-0,59;-0,99;-0,43;-6,17;0,79;-3,43;-0,15;0,12;0,92;964,29
13.266;-0,59;-0,99;-0,43;-5,84;-0,04;-2,36;-0,15;0,12;0,92;964,29
13.267;-0,59;-0,99;-0,43;-5,84;-0,04;-2,36;-0,53;0,39;1,25;964,29
13.274;-0,55;-1,13;-0,46;-5,84;-0,04;-2,36;-0,53;0,39;1,25;964,29
13.275;-0,60;-1,20;-0,53;-5,84;-0,04;-2,36;-0,53;0,39;1,25;964,29
13.275;-0,62;-1,21;-0,48;-5,84;-0,04;-2,36;-0,53;0,39;1,25;964,29
13.327;-0,62;-1,21;-0,48;-5,34;-2,32;-2,43;-0,53;0,39;1,25;964,29
13.328;-0,62;-1,21;-0,48;-5,34;-2,32;-2,43;-0,70;0,91;1,87;964,29
13.328;-0,62;-1,21;-0,48;-5,34;-2,32;-2,43;-0,70;0,91;1,87;964,29
13.334;-0,53;-1,29;-0,38;-5,34;-2,32;-2,43;-0,70;0,91;1,87;964,29
13.334;-0,49;-1,37;-0,37;-5,34;-2,32;-2,43;-0,70;0,91;1,87;964,29
13.335;-0,53;-1,43;-0,41;-5,34;-2,32;-2,43;-0,70;0,91;1,87;964,29
13.387;-0,53;-1,43;-0,41;-3,38;-4,82;-1,23;-0,70;0,91;1,87;964,29
13.388;-0,53;-1,43;-0,41;-3,38;-4,82;-1,23;-0,93;0,78;2,44;964,29
13.394;-0,55;-1,44;-0,44;-3,38;-4,82;-1,23;-0,93;0,78;2,44;964,29
13.394;-0,51;-1,40;-0,40;-3,38;-4,82;-1,23;-0,93;0,78;2,44;964,29
13.394;-0,47;-1,29;-0,36;-3,38;-4,82;-1,23;-0,93;0,78;2,44;964,29
13.425;-0,47;-1,29;-0,36;-3,38;-4,82;-1,23;-0,93;0,78;2,44;964,29
13.447;-0,47;-1,29;-0,36;-1,45;-4,03;-0,20;-0,93;0,78;2,44;964,29
13.447;-0,47;-1,29;-0,36;-1,45;-4,03;-0,20;-0,95;-0,21;3,02;964,29
13.459;-0,44;-1,22;-0,33;-1,45;-4,03;-0,20;-0,95;-0,21;3,02;964,29
13.459;-0,41;-1,17;-0,29;-1,45;-4,03;-0,20;-0,95;-0,21;3,02;964,29
13.459;-0,37;-1,12;-0,26;-1,45;-4,03;-0,20;-0,95;-0,21;3,02;964,29
13.508;-0,37;-1,12;-0,26;1,18;-3,26;1,19;-0,95;-0,21;3,02;964,29
13.509;-0,37;-1,12;-0,26;1,18;-3,26;1,19;-0,76;-0,47;3,32;964,29
13.513;-0,33;-1,07;-0,22;1,18;-3,26;1,19;-0,76;-0,47;3,32;964,29
13.514;-0,29;-1,03;-0,19;1,18;-3,26;1,19;-0,76;-0,47;3,32;964,29
13.514;-0,26;-0,98;-0,16;1,18;-3,26;1,19;-0,76;-0,47;3,32;964,29
13.526;-0,26;-0,98;-0,16;1,18;-3,26;1,19;-0,76;-0,47;3,32;964,27
13.567;-0,26;-0,98;-0,16;3,76;-3,18;2,30;-0,76;-0,47;3,32;964,27
13.568;-0,26;-0,98;-0,16;3,76;-3,18;2,30;-0,53;-0,16;3,20;964,27
13.573;-0,24;-0,94;-0,14;3,76;-3,18;2,30;-0,53;-0,16;3,20;964,27
13.574;-0,22;-0,90;-0,12;3,76;-3,18;2,30;-0,53;-0,16;3,20;964,27
13.575;-0,22;-0,86;-0,11;3,76;-3,18;2,30;-0,53;-0,16;3,20;964,27
13.628;-0,22;-0,86;-0,11;5,21;-3,28;2,92;-0,53;-0,16;3,20;964,27
13.629;-0,22;-0,86;-0,11;5,21;-3,28;2,92;-0,30;-0,18;2,35;964,27
13.63;-0,22;-0,86;-0,11;5,21;-3,28;2,92;-0,30;-0,18;2,35;964,25
13.634;-0,21;-0,82;-0,09;5,21;-3,28;2,92;-0,30;-0,18;2,35;964,25
13.634;-0,20;-0,78;-0,09;5,21;-3,28;2,92;-0,30;-0,18;2,35;964,25
13.635;-0,19;-0,72;-0,07;5,21;-3,28;2,92;-0,30;-0,18;2,35;964,25
13.688;-0,19;-0,72;-0,07;5,99;-2,76;3,24;-0,30;-0,18;2,35;964,25
13.689;-0,19;-0,72;-0,07;5,99;-2,76;3,24;0,01;-0,13;1,19;964,25
13.694;-0,20;-0,67;-0,06;5,99;-2,76;3,24;0,01;-0,13;1,19;964,25
13.695;-0,20;-0,65;-0,05;5,99;-2,76;3,24;0,01;-0,13;1,19;964,25
13.695;-0,17;-0,63;-0,07;5,99;-2,76;3,24;0,01;-0,13;1,19;964,25
13.727;-0,17;-0,63;-0,07;5,99;-2,76;3,24;0,01;-0,13;1,19;964,23
13.746;-0,17;-0,63;-0,07;6,37;-2,08;3,22;0,01;-0,13;1,19;964,23
13.747;-0,17;-0,63;-0,07;6,37;-2,08;3,22;0,33;0,18;-0,33;964,23
13.759;-0,16;-0,64;-0,08;6,37;-2,08;3,22;0,33;0,18;-0,33;964,23
13.76;-0,17;-0,67;-0,11;6,37;-2,08;3,22;0,33;0,18;-0,33;964,23
13.76;-0,22;-0,68;-0,17;6,37;-2,08;3,22;0,33;0,18;-0,33;964,23
13.807;-0,22;-0,68;-0,17;5,60;-2,05;2,19;0,33;0,18;-0,33;964,23
13.808;-0,22;-0,68;-0,17;5,60;-2,05;2,19;0,39;0,26;-1,95;964,23
13.814;-0,24;-0,70;-0,27;5,60;-2,05;2,19;0,39;0,26;-1,95;964,23
13.815;-0,24;-0,86;-0,34;5,60;-2,05;2,19;0,39;0,26;-1,95;964,23
13.815;-0,28;-0,96;-0,37;5,60;-2,05;2,19;0,39;0,26;-1,95;964,23
13.827;-0,28;-0,96;-0,37;5,60;-2,05;2,19;0,39;0,26;-1,95;964,24
13.867;-0,28;-0,96;-0,37;4,06;-3,52;0,27;0,39;0,26;-1,95;964,24
13.868;-0,28;-0,96;-0,37;4,06;-3,52;0,27;0,43;0,05;-3,68;964,24
13.874;-0,37;-1,06;-0,44;4,06;-3,52;0,27;0,43;0,05;-3,68;964,24
13.875;-0,44;-1,12;-0,50;4,06;-3,52;0,27;0,43;0,05;-3,68;964,24
13.875;-0,44;-1,12;-0,47;4,06;-3,52;0,27;0,43;0,05;-3,68;964,24
13.927;-0,44;-1,12;-0,47;0,86;-3,50;-0,93;0,43;0,05;-3,68;964,24
13.928;-0,44;-1,12;-0,47;0,86;-3,50;-0,93;0,56;0,01;-4,14;964,24
13.928;-0,44;-1,12;-0,47;0,86;-3,50;-0,93;0,56;0,01;-4,14;964,25
13.935;-0,40;-1,17;-0,44;0,86;-3,50;-0,93;0,56;0,01;-4,14;964,25
13.935;-0,36;-1,24;-0,43;0,86;-3,50;-0,93;0,56;0,01;-4,14;964,25
13.935;-0,36;-1,33;-0,44;0,86;-3,50;-0,93;0,56;0,01;-4,14;964,25
13.986;-0,36;-1,33;-0,44;-0,29;-4,42;-0,86;0,56;0,01;-4,14;964,25
13.987;-0,36;-1,33;-0,44;-0,29;-4,42;-0,86;0,46;0,28;-3,71;964,25
13.993;-0,39;-1,35;-0,46;-0,29;-4,42;-0,86;0,46;0,28;-3,71;964,25
13.993;-0,44;-1,32;-0,48;-0,29;-4,42;-0,86;0,46;0,28;-3,71;964,25
13.994;-0,49;-1,23;-0,46;-0,29;-4,42;-0,86;0,46;0,28;-3,71;964,25
14.027;-0,49;-1,23;-0,46;-0,29;-4,42;-0,86;0,46;0,28;-3,71;964,27
14.046;-0,49;-1,23;-0,46;-3,33;-2,93;-1,26;0,46;0,28;-3,71;964,27
14.046;-0,49;-1,23;-0,46;-3,33;-2,93;-1,26;0,45;-0,60;-2,61;964,27
14.053;-0,52;-1,13;-0,42;-3,33;-2,93;-1,26;0,45;-0,60;-2,61;964,27
14.054;-0,53;-1,00;-0,39;-3,33;-2,93;-1,26;0,45;-0,60;-2,61;964,27
14.054;-0,51;-0,91;-0,41;-3,33;-2,93;-1,26;0,45;-0,60;-2,61;964,27
14.108;-0,51;-0,91;-0,41;-4,55;0,43;-1,03;0,45;-0,60;-2,61;964,27
14.108;-0,51;-0,91;-0,41;-4,55;0,43;-1,03;0,28;-1,67;-1,77;964,27
14.113;-0,48;-0,86;-0,40;-4,55;0,43;-1,03;0,28;-1,67;-1,77;964,27
14.114;-0,47;-0,85;-0,37;-4,55;0,43;-1,03;0,28;-1,67;-1,77;964,27
14.114;-0,48;-0,85;-0,32;-4,55;0,43;-1,03;0,28;-1,67;-1,77;964,27
14.127;-0,48;-0,85;-0,32;-4,55;0,43;-1,03;0,28;-1,67;-1,77;964,28
14.167;-0,48;-0,85;-0,32;-4,88;1,09;-0,37;0,28;-1,67;-1,77;964,28
14.168;-0,48;-0,85;-0,32;-4,88;1,09;-0,37;0,22;-1,20;-1,54;964,28
14.177;-0,48;-0,84;-0,31;-4,88;1,09;-0,37;0,22;-1,20;-1,54;964,28
14.179;-0,48;-0,81;-0,30;-4,88;1,09;-0,37;0,22;-1,20;-1,54;964,28
14.179;-0,49;-0,78;-0,32;-4,88;1,09;-0,37;0,22;-1,20;-1,54;964,28
14.225;-0,49;-0,78;-0,32;-5,58;1,70;-0,40;0,22;-1,20;-1,54;964,28
14.226;-0,49;-0,78;-0,32;-5,58;1,70;-0,40;0,09;-0,56;-1,29;964,28
14.227;-0,49;-0,78;-0,32;-5,58;1,70;-0,40;0,09;-0,56;-1,29;964,29
14.234;-0,52;-0,76;-0,36;-5,58;1,70;-0,40;0,09;-0,56;-1,29;964,29
14.234;-0,54;-0,75;-0,38;-5,58;1,70;-0,40;0,09;-0,56;-1,29;964,29
14.234;-0,56;-0,77;-0,38;-5,58;1,70;-0,40;0,09;-0,56;-1,29;964,29
14.285;-0,56;-0,77;-0,38;-6,77;1,75;-1,00;0,09;-0,56;-1,29;964,29
14.286;-0,56;-0,77;-0,38;-6,77;1,75;-1,00;0,09;-0,09;-0,70;964,29
14.294;-0,57;-0,77;-0,39;-6,77;1,75;-1,00;0,09;-0,09;-0,70;964,29
14.295;-0,59;-0,81;-0,43;-6,77;1,75;-1,00;0,09;-0,09;-0,70;964,29
14.295;-0,62;-0,89;-0,47;-6,77;1,75;-1,00;0,09;-0,09;-0,70;964,29
14.325;-0,62;-0,89;-0,47;-6,77;1,75;-1,00;0,09;-0,09;-0,70;964,29
14.345;-0,62;-0,89;-0,47;-7,54;0,55;-1,87;0,09;-0,09;-0,70;964,29
14.345;-0,62;-0,89;-0,47;-7,54;0,55;-1,87;0,01;-0,16;0,34;964,29
14.353;-0,65;-0,96;-0,49;-7,54;0,55;-1,87;0,01;-0,16;0,34;964,29
14.353;-0,64;-0,95;-0,44;-7,54;0,55;-1,87;0,01;-0,16;0,34;964,29
14.354;-0,59;-1,09;-0,39;-7,54;0,55;-1,87;0,01;-0,16;0,34;964,29
14.405;-0,59;-1,09;-0,39;-6,87;-1,36;-1,09;0,01;-0,16;0,34;964,29
14.406;-0,59;-1,09;-0,39;-6,87;-1,36;-1,09;-0,10;0,13;1,26;964,29
14.413;-0,60;-1,25;-0,48;-6,87;-1,36;-1,09;-0,10;0,13;1,26;964,29
14.414;-0,66;-1,31;-0,55;-6,87;-1,36;-1,09;-0,10;0,13;1,26;964,29
14.414;-0,61;-1,32;-0,45;-6,87;-1,36;-1,09;-0,10;0,13;1,26;964,29
14.425;-0,61;-1,32;-0,45;-6,87;-1,36;-1,09;-0,10;0,13;1,26;964,30
14.465;-0,61;-1,32;-0,45;-6,14;-3,47;-1,62;-0,10;0,13;1,26;964,30
14.466;-0,61;-1,32;-0,45;-6,14;-3,47;-1,62;-0,03;0,86;2,32;964,30
14.473;-0,51;-1,31;-0,36;-6,14;-3,47;-1,62;-0,03;0,86;2,32;964,30
14.474;-0,49;-1,28;-0,35;-6,14;-3,47;-1,62;-0,03;0,86;2,32;964,30
14.474;-0,48;-1,26;-0,36;-6,14;-3,47;-1,62;-0,03;0,86;2,32;964,30
14.527;-0,48;-1,26;-0,36;-3,63;-2,98;-0,67;-0,03;0,86;2,32;964,30
14.528;-0,48;-1,26;-0,36;-3,63;-2,98;-0,67;-0,31;1,78;2,97;964,30
14.529;-0,48;-1,26;-0,36;-3,63;-2,98;-0,67;-0,31;1,78;2,97;964,31
14.532;-0,47;-1,25;-0,37;-3,63;-2,98;-0,67;-0,31;1,78;2,97;964,31
14.532;-0,46;-1,29;-0,39;-3,63;-2,98;-0,67;-0,31;1,78;2,97;964,31
14.533;-0,47;-1,31;-0,41;-3,63;-2,98;-0,67;-0,31;1,78;2,97;964,31
14.585;-0,47;-1,31;-0,41;-2,05;-3,95;-0,71;-0,31;1,78;2,97;964,31
14.587;-0,47;-1,31;-0,41;-2,05;-3,95;-0,71;-0,65;0,72;3,27;964,31
14.593;-0,46;-1,30;-0,37;-2,05;-3,95;-0,71;-0,65;0,72;3,27;964,31
14.594;-0,44;-1,25;-0,34;-2,05;-3,95;-0,71;-0,65;0,72;3,27;964,31
14.594;-0,40;-1,18;-0,31;-2,05;-3,95;-0,71;-0,65;0,72;3,27;964,31
14.626;-0,40;-1,18;-0,31;-2,05;-3,95;-0,71;-0,65;0,72;3,27;964,31
14.645;-0,40;-1,18;-0,31;0,27;-3,51;0,63;-0,65;0,72;3,27;964,31
14.645;-0,40;-1,18;-0,31;0,27;-3,51;0,63;-0,66;-0,10;3,47;964,31
14.658;-0,36;-1,13;-0,28;0,27;-3,51;0,63;-0,66;-0,10;3,47;964,31
14.659;-0,32;-1,09;-0,25;0,27;-3,51;0,63;-0,66;-0,10;3,47;964,31
14.659;-0,29;-1,07;-0,24;0,27;-3,51;0,63;-0,66;-0,10;3,47;964,31
14.706;-0,29;-1,07;-0,24;2,94;-3,60;1,59;-0,66;-0,10;3,47;964,31
14.707;-0,29;-1,07;-0,24;2,94;-3,60;1,59;-0,69;0,19;3,29;964,31
14.714;-0,27;-1,05;-0,23;2,94;-3,60;1,59;-0,69;0,19;3,29;964,31
14.715;-0,26;-1,00;-0,19;2,94;-3,60;1,59;-0,69;0,19;3,29;964,31
14.715;-0,25;-0,96;-0,16;2,94;-3,60;1,59;-0,69;0,19;3,29;964,31
14.726;-0,25;-0,96;-0,16;2,94;-3,60;1,59;-0,69;0,19;3,29;964,29
14.765;-0,25;-0,96;-0,16;4,36;-3,78;2,69;-0,69;0,19;3,29;964,29
14.766;-0,25;-0,96;-0,16;4,36;-3,78;2,69;-0,48;0,07;2,68;964,29
14.774;-0,24;-0,92;-0,13;4,36;-3,78;2,69;-0,48;0,07;2,68;964,29
14.775;-0,22;-0,88;-0,13;4,36;-3,78;2,69;-0,48;0,07;2,68;964,29
14.775;-0,22;-0,83;-0,12;4,36;-3,78;2,69;-0,48;0,07;2,68;964,29
14.827;-0,22;-0,83;-0,12;5,39;-3,60;3,15;-0,48;0,07;2,68;964,29
14.828;-0,22;-0,83;-0,12;5,39;-3,60;3,15;-0,15;-0,19;1,76;964,29
14.828;-0,22;-0,83;-0,12;5,39;-3,60;3,15;-0,15;-0,19;1,76;964,25
14.833;-0,22;-0,79;-0,11;5,39;-3,60;3,15;-0,15;-0,19;1,76;964,25
14.833;-0,20;-0,77;-0,09;5,39;-3,60;3,15;-0,15;-0,19;1,76;964,25
14.833;-0,18;-0,75;-0,07;5,39;-3,60;3,15;-0,15;-0,19;1,76;964,25
14.887;-0,18;-0,75;-0,07;6,20;-3,38;3,47;-0,15;-0,19;1,76;964,25
14.888;-0,18;-0,75;-0,07;6,20;-3,38;3,47;0,24;-0,36;0,27;964,25
14.893;-0,14;-0,75;-0,10;6,20;-3,38;3,47;0,24;-0,36;0,27;964,25
14.893;-0,12;-0,73;-0,08;6,20;-3,38;3,47;0,24;-0,36;0,27;964,25
14.894;-0,15;-0,72;-0,11;6,20;-3,38;3,47;0,24;-0,36;0,27;964,25
14.927;-0,15;-0,72;-0,11;6,20;-3,38;3,47;0,24;-0,36;0,27;964,24
14.946;-0,15;-0,72;-0,11;6,45;-2,81;2,87;0,24;-0,36;0,27;964,24
14.947;-0,15;-0,72;-0,11;6,45;-2,81;2,87;0,70;0,09;-1,50;964,24
14.952;-0,15;-0,81;-0,16;6,45;-2,81;2,87;0,70;0,09;-1,50;964,24
14.952;-0,17;-0,87;-0,18;6,45;-2,81;2,87;0,70;0,09;-1,50;964,24
14.952;-0,22;-0,98;-0,25;6,45;-2,81;2,87;0,70;0,09;-1,50;964,24
15.006;-0,22;-0,98;-0,25;4,94;-4,05;1,42;0,70;0,09;-1,50;964,24
15.007;-0,22;-0,98;-0,25;4,94;-4,05;1,42;0,91;0,45;-2,95;964,24
15.014;-0,32;-1,02;-0,34;4,94;-4,05;1,42;0,91;0,45;-2,95;964,24
15.015;-0,37;-1,06;-0,44;4,94;-4,05;1,42;0,91;0,45;-2,95;964,24
15.015;-0,36;-1,10;-0,48;4,94;-4,05;1,42;0,91;0,45;-2,95;964,24
15.026;-0,36;-1,10;-0,48;4,94;-4,05;1,42;0,91;0,45;-2,95;964,24
15.065;-0,36;-1,10;-0,48;2,34;-3,81;-1,08;0,91;0,45;-2,95;964,24
15.066;-0,36;-1,10;-0,48;2,34;-3,81;-1,08;0,74;-0,14;-3,48;964,24
15.073;-0,35;-1,15;-0,48;2,34;-3,81;-1,08;0,74;-0,14;-3,48;964,24
15.075;-0,35;-1,19;-0,44;2,34;-3,81;-1,08;0,74;-0,14;-3,48;964,24
15.075;-0,34;-1,19;-0,37;2,34;-3,81;-1,08;0,74;-0,14;-3,48;964,24
15.126;-0,34;-1,19;-0,37;0,94;-3,47;-0,39;0,74;-0,14;-3,48;964,24
15.126;-0,34;-1,19;-0,37;0,94;-3,47;-0,39;0,55;-0,44;-3,59;964,24
15.127;-0,34;-1,19;-0,37;0,94;-3,47;-0,39;0,55;-0,44;-3,59;964,26
15.133;-0,33;-1,16;-0,32;0,94;-3,47;-0,39;0,55;-0,44;-3,59;964,26
15.134;-0,33;-1,12;-0,29;0,94;-3,47;-0,39;0,55;-0,44;-3,59;964,26
15.134;-0,37;-1,05;-0,30;0,94;-3,47;-0,39;0,55;-0,44;-3,59;964,26
15.185;-0,37;-1,05;-0,30;-1,14;-1,27;-0,01;0,55;-0,44;-3,59;964,26
15.186;-0,37;-1,05;-0,30;-1,14;-1,27;-0,01;0,32;-0,83;-3,54;964,26
15.192;-0,40;-0,99;-0,34;-1,14;-1,27;-0,01;0,32;-0,83;-3,54;964,26
15.193;-0,44;-0,94;-0,36;-1,14;-1,27;-0,01;0,32;-0,83;-3,54;964,26
15.193;-0,48;-0,95;-0,35;-1,14;-1,27;-0,01;0,32;-0,83;-3,54;964,26
15.225;-0,48;-0,95;-0,35;-1,14;-1,27;-0,01;0,32;-0,83;-3,54;964,30
15.246;-0,48;-0,95;-0,35;-3,92;0,13;-0,74;0,32;-0,83;-3,54;964,30
15.246;-0,48;-0,95;-0,35;-3,92;0,13;-0,74;0,17;-1,02;-3,28;964,30
15.253;-0,50;-0,99;-0,36;-3,92;0,13;-0,74;0,17;-1,02;-3,28;964,30
15.253;-0,51;-1,02;-0,33;-3,92;0,13;-0,74;0,17;-1,02;-3,28;964,30
15.253;-0,54;-1,08;-0,30;-3,92;0,13;-0,74;0,17;-1,02;-3,28;964,30
15.306;-0,54;-1,08;-0,30;-6,05;-1,14;-0,37;0,17;-1,02;-3,28;964,30
15.307;-0,54;-1,08;-0,30;-6,05;-1,14;-0,37;0,24;-0,74;-2,50;964,30
15.312;-0,59;-1,12;-0,30;-6,05;-1,14;-0,37;0,24;-0,74;-2,50;964,30
15.313;-0,62;-1,15;-0,32;-6,05;-1,14;-0,37;0,24;-0,74;-2,50;964,30
15.313;-0,62;-1,16;-0,34;-6,05;-1,14;-0,37;0,24;-0,74;-2,50;964,30
15.326;-0,62;-1,16;-0,34;-6,05;-1,14;-0,37;0,24;-0,74;-2,50;964,34
15.367;-0,62;-1,16;-0,34;-7,90;-2,03;-0,84;0,24;-0,74;-2,50;964,34
15.367;-0,62;-1,16;-0,34;-7,90;-2,03;-0,84;0,48;-0,84;-1,31;964,34
15.372;-0,60;-1,08;-0,34;-7,90;-2,03;-0,84;0,48;-0,84;-1,31;964,34
15.372;-0,58;-1,01;-0,34;-7,90;-2,03;-0,84;0,48;-0,84;-1,31;964,34
15.373;-0,59;-1,00;-0,37;-7,90;-2,03;-0,84;0,48;-0,84;-1,31;964,34
15.425;-0,59;-1,00;-0,37;-7,96;-0,51;-1,39;0,48;-0,84;-1,31;964,34
15.426;-0,59;-1,00;-0,37;-7,96;-0,51;-1,39;0,46;-0,71;-0,20;964,34
15.427;-0,59;-1,00;-0,37;-7,96;-0,51;-1,39;0,46;-0,71;-0,20;964,35
15.434;-0,59;-1,00;-0,41;-7,96;-0,51;-1,39;0,46;-0,71;-0,20;964,35
15.434;-0,60;-1,03;-0,42;-7,96;-0,51;-1,39;0,46;-0,71;-0,20;964,35
15.435;-0,60;-1,02;-0,43;-7,96;-0,51;-1,39;0,46;-0,71;-0,20;964,35
15.486;-0,60;-1,02;-0,43;-7,85;-0,67;-2,10;0,46;-0,71;-0,20;964,35
15.487;-0,60;-1,02;-0,43;-7,85;-0,67;-2,10;0,39;-0,71;0,74;964,35
15.492;-0,57;-0,98;-0,42;-7,85;-0,67;-2,10;0,39;-0,71;0,74;964,35
15.493;-0,50;-1,09;-0,44;-7,85;-0,67;-2,10;0,39;-0,71;0,74;964,35
15.494;-0,52;-1,16;-0,48;-7,85;-0,67;-2,10;0,39;-0,71;0,74;964,35
15.526;-0,52;-1,16;-0,48;-7,85;-0,67;-2,10;0,39;-0,71;0,74;964,35
15.546;-0,52;-1,16;-0,48;-6,40;-1,90;-2,71;0,39;-0,71;0,74;964,35
15.546;-0,52;-1,16;-0,48;-6,40;-1,90;-2,71;0,02;0,12;1,59;964,35
15.553;-0,58;-1,20;-0,52;-6,40;-1,90;-2,71;0,02;0,12;1,59;964,35
15.553;-0,58;-1,20;-0,51;-6,40;-1,90;-2,71;0,02;0,12;1,59;964,35
15.553;-0,48;-1,21;-0,44;-6,40;-1,90;-2,71;0,02;0,12;1,59;964,35
15.606;-0,48;-1,21;-0,44;-4,99;-2,24;-2,27;0,02;0,12;1,59;964,35
15.608;-0,48;-1,21;-0,44;-4,99;-2,24;-2,27;-0,13;0,60;2,50;964,35
15.613;-0,46;-1,21;-0,43;-4,99;-2,24;-2,27;-0,13;0,60;2,50;964,35
15.613;-0,44;-1,16;-0,43;-4,99;-2,24;-2,27;-0,13;0,60;2,50;964,35
15.614;-0,40;-1,09;-0,40;-4,99;-2,24;-2,27;-0,13;0,60;2,50;964,35
15.625;-0,40;-1,09;-0,40;-4,99;-2,24;-2,27;-0,13;0,60;2,50;964,34
15.666;-0,40;-1,09;-0,40;-2,74;-1,17;-1,70;-0,13;0,60;2,50;964,34
15.667;-0,40;-1,09;-0,40;-2,74;-1,17;-1,70;-0,46;1,29;2,73;964,34
15.672;-0,37;-1,01;-0,35;-2,74;-1,17;-1,70;-0,46;1,29;2,73;964,34
15.673;-0,36;-0,97;-0,30;-2,74;-1,17;-1,70;-0,46;1,29;2,73;964,34
15.673;-0,37;-0,98;-0,30;-2,74;-1,17;-1,70;-0,46;1,29;2,73;964,34
15.726;-0,37;-0,98;-0,30;-1,11;-0,56;-0,17;-0,46;1,29;2,73;964,34
15.727;-0,37;-0,98;-0,30;-1,11;-0,56;-0,17;-0,95;1,50;2,64;964,34
15.727;-0,37;-0,98;-0,30;-1,11;-0,56;-0,17;-0,95;1,50;2,64;964,33
15.735;-0,36;-0,96;-0,31;-1,11;-0,56;-0,17;-0,95;1,50;2,64;964,33
15.735;-0,34;-0,94;-0,29;-1,11;-0,56;-0,17;-0,95;1,50;2,64;964,33
15.735;-0,32;-0,94;-0,27;-1,11;-0,56;-0,17;-0,95;1,50;2,64;964,33
15.785;-0,32;-0,94;-0,27;0,36;-0,81;0,96;-0,95;1,50;2,64;964,33
15.786;-0,32;-0,94;-0,27;0,36;-0,81;0,96;-1,34;1,31;2,22;964,33
15.793;-0,33;-0,96;-0,25;0,36;-0,81;0,96;-1,34;1,31;2,22;964,33
15.794;-0,36;-1,01;-0,26;0,36;-0,81;0,96;-1,34;1,31;2,22;964,33
15.794;-0,38;-1,07;-0,26;0,36;-0,81;0,96;-1,34;1,31;2,22;964,33
15.826;-0,38;-1,07;-0,26;0,36;-0,81;0,96;-1,34;1,31;2,22;964,30
15.845;-0,38;-1,07;-0,26;0,48;-2,86;1,98;-1,34;1,31;2,22;964,30
15.846;-0,38;-1,07;-0,26;0,48;-2,86;1,98;-1,51;0,63;1,98;964,30
15.852;-0,39;-1,13;-0,25;0,48;-2,86;1,98;-1,51;0,63;1,98;964,30
15.852;-0,37;-1,15;-0,21;0,48;-2,86;1,98;-1,51;0,63;1,98;964,30
15.853;-0,35;-1,14;-0,16;0,48;-2,86;1,98;-1,51;0,63;1,98;964,30
15.906;-0,35;-1,14;-0,16;1,63;-4,54;3,57;-1,51;0,63;1,98;964,30
15.907;-0,35;-1,14;-0,16;1,63;-4,54;3,57;-1,09;-0,46;1,98;964,30
15.912;-0,33;-1,11;-0,14;1,63;-4,54;3,57;-1,09;-0,46;1,98;964,30
15.915;-0,30;-1,05;-0,12;1,63;-4,54;3,57;-1,09;-0,46;1,98;964,30
15.916;-0,26;-1,00;-0,09;1,63;-4,54;3,57;-1,09;-0,46;1,98;964,30
15.926;-0,26;-1,00;-0,09;1,63;-4,54;3,57;-1,09;-0,46;1,98;964,25
15.967;-0,26;-1,00;-0,09;3,39;-3,98;4,40;-1,09;-0,46;1,98;964,25
15.968;-0,26;-1,00;-0,09;3,39;-3,98;4,40;-0,34;-0,18;1,75;964,25
15.972;-0,22;-0,97;-0,06;3,39;-3,98;4,40;-0,34;-0,18;1,75;964,25
15.972;-0,20;-0,95;-0,04;3,39;-3,98;4,40;-0,34;-0,18;1,75;964,25
15.973;-0,19;-0,96;-0,02;3,39;-3,98;4,40;-0,34;-0,18;1,75;964,25
16.026;-0,19;-0,96;-0,02;4,42;-4,08;5,10;-0,34;-0,18;1,75;964,25
16.027;-0,19;-0,96;-0,02;4,42;-4,08;5,10;0,60;0,46;0,84;964,25
16.028;-0,19;-0,96;-0,02;4,42;-4,08;5,10;0,60;0,46;0,84;964,26
16.034;-0,20;-0,94;-0,02;4,42;-4,08;5,10;0,60;0,46;0,84;964,26
16.034;-0,20;-0,88;-0,06;4,42;-4,08;5,10;0,60;0,46;0,84;964,26
16.034;-0,21;-1,03;-0,08;4,42;-4,08;5,10;0,60;0,46;0,84;964,26
16.085;-0,21;-1,03;-0,08;4,14;-4,45;4,36;0,60;0,46;0,84;964,26
16.086;-0,21;-1,03;-0,08;4,14;-4,45;4,36;1,67;0,61;-0,71;964,26
16.094;-0,18;-1,14;-0,13;4,14;-4,45;4,36;1,67;0,61;-0,71;964,26
16.095;-0,31;-0,98;-0,15;4,14;-4,45;4,36;1,67;0,61;-0,71;964,26
16.095;-0,31;-0,92;-0,23;4,14;-4,45;4,36;1,67;0,61;-0,71;964,26
16.126;-0,31;-0,92;-0,23;4,14;-4,45;4,36;1,67;0,61;-0,71;964,28
16.145;-0,31;-0,92;-0,23;2,57;-2,47;2,47;1,67;0,61;-0,71;964,28
16.146;-0,31;-0,92;-0,23;2,57;-2,47;2,47;1,94;1,17;-1,38;964,28
16.153;-0,18;-0,93;-0,31;2,57;-2,47;2,47;1,94;1,17;-1,38;964,28
16.153;-0,11;-0,94;-0,40;2,57;-2,47;2,47;1,94;1,17;-1,38;964,28
16.153;-0,18;-0,99;-0,46;2,57;-2,47;2,47;1,94;1,17;-1,38;964,28
16.208;-0,18;-0,99;-0,46;2,72;-2,13;-0,30;1,94;1,17;-1,38;964,28
16.209;-0,18;-0,99;-0,46;2,72;-2,13;-0,30;1,77;0,91;-2,23;964,28
16.212;-0,28;-1,05;-0,46;2,72;-2,13;-0,30;1,77;0,91;-2,23;964,28
16.213;-0,33;-1,07;-0,41;2,72;-2,13;-0,30;1,77;0,91;-2,23;964,28
16.214;-0,34;-1,06;-0,38;2,72;-2,13;-0,30;1,77;0,91;-2,23;964,28
16.225;-0,34;-1,06;-0,38;2,72;-2,13;-0,30;1,77;0,91;-2,23;964,26
16.266;-0,34;-1,06;-0,38;-0,12;-1,83;-0,15;1,77;0,91;-2,23;964,26
16.266;-0,34;-1,06;-0,38;-0,12;-1,83;-0,15;1,78;0,68;-2,53;964,26
16.272;-0,33;-1,03;-0,38;-0,12;-1,83;-0,15;1,78;0,68;-2,53;964,26
16.272;-0,34;-0,99;-0,42;-0,12;-1,83;-0,15;1,78;0,68;-2,53;964,26
16.272;-0,35;-0,95;-0,47;-0,12;-1,83;-0,15;1,78;0,68;-2,53;964,26
16.327;-0,35;-0,95;-0,47;-1,77;-0,09;-1,80;1,78;0,68;-2,53;964,26
16.328;-0,35;-0,95;-0,47;-1,77;-0,09;-1,80;1,58;1,16;-2,37;964,26
16.328;-0,35;-0,95;-0,47;-1,77;-0,09;-1,80;1,58;1,16;-2,37;964,25
16.333;-0,38;-0,91;-0,48;-1,77;-0,09;-1,80;1,58;1,16;-2,37;964,25
16.334;-0,41;-0,87;-0,48;-1,77;-0,09;-1,80;1,58;1,16;-2,37;964,25
16.334;-0,47;-0,89;-0,49;-1,77;-0,09;-1,80;1,58;1,16;-2,37;964,25
16.388;-0,47;-0,89;-0,49;-4,29;0,87;-2,74;1,58;1,16;-2,37;964,25
16.388;-0,47;-0,89;-0,49;-4,29;0,87;-2,74;1,21;1,59;-1,66;964,25
16.397;-0,51;-0,92;-0,52;-4,29;0,87;-2,74;1,21;1,59;-1,66;964,25
16.397;-0,55;-0,89;-0,58;-4,29;0,87;-2,74;1,21;1,59;-1,66;964,25
16.398;-0,57;-0,85;-0,61;-4,29;0,87;-2,74;1,21;1,59;-1,66;964,25
16.426;-0,57;-0,85;-0,61;-4,29;0,87;-2,74;1,21;1,59;-1,66;964,29
16.446;-0,57;-0,85;-0,61;-6,08;1,34;-4,50;1,21;1,59;-1,66;964,29
16.447;-0,57;-0,85;-0,61;-6,08;1,34;-4,50;0,63;0,90;-0,52;964,29
16.453;-0,57;-0,78;-0,61;-6,08;1,34;-4,50;0,63;0,90;-0,52;964,29
16.453;-0,54;-0,74;-0,58;-6,08;1,34;-4,50;0,63;0,90;-0,52;964,29
16.454;-0,51;-0,69;-0,53;-6,08;1,34;-4,50;0,63;0,90;-0,52;964,29
16.507;-0,51;-0,69;-0,53;-5,63;2,94;-3,96;0,63;0,90;-0,52;964,29
16.507;-0,51;-0,69;-0,53;-5,63;2,94;-3,96;0,15;0,63;0,23;964,29
16.513;-0,46;-0,71;-0,48;-5,63;2,94;-3,96;0,15;0,63;0,23;964,29
16.514;-0,46;-0,76;-0,46;-5,63;2,94;-3,96;0,15;0,63;0,23;964,29
16.515;-0,49;-0,80;-0,48;-5,63;2,94;-3,96;0,15;0,63;0,23;964,29
16.527;-0,49;-0,80;-0,48;-5,63;2,94;-3,96;0,15;0,63;0,23;964,31
16.566;-0,49;-0,80;-0,48;-5,25;1,83;-3,42;0,15;0,63;0,23;964,31
16.566;-0,49;-0,80;-0,48;-5,25;1,83;-3,42;-0,49;0,82;0,56;964,31
16.572;-0,52;-0,87;-0,49;-5,25;1,83;-3,42;-0,49;0,82;0,56;964,31
16.573;-0,55;-0,91;-0,50;-5,25;1,83;-3,42;-0,49;0,82;0,56;964,31
16.573;-0,52;-0,91;-0,46;-5,25;1,83;-3,42;-0,49;0,82;0,56;964,31
16.626;-0,52;-0,91;-0,46;-5,14;0,78;-2,88;-0,49;0,82;0,56;964,31
16.627;-0,52;-0,91;-0,46;-5,14;0,78;-2,88;-0,50;0,09;0,97;964,31
16.627;-0,52;-0,91;-0,46;-5,14;0,78;-2,88;-0,50;0,09;0,97;964,33
16.634;-0,47;-0,90;-0,39;-5,14;0,78;-2,88;-0,50;0,09;0,97;964,33
16.634;-0,41;-0,94;-0,32;-5,14;0,78;-2,88;-0,50;0,09;0,97;964,33
16.635;-0,41;-1,15;-0,29;-5,14;0,78;-2,88;-0,50;0,09;0,97;964,33
16.685;-0,41;-1,15;-0,29;-3,69;-1,69;-0,89;-0,50;0,09;0,97;964,33
16.687;-0,41;-1,15;-0,29;-3,69;-1,69;-0,89;-0,80;2,56;0,73;964,33
16.694;-0,51;-1,48;-0,35;-3,69;-1,69;-0,89;-0,80;2,56;0,73;964,33
16.694;-0,65;-1,60;-0,44;-3,69;-1,69;-0,89;-0,80;2,56;0,73;964,33
16.694;-0,69;-1,61;-0,36;-3,69;-1,69;-0,89;-0,80;2,56;0,73;964,33
16.726;-0,69;-1,61;-0,36;-3,69;-1,69;-0,89;-0,80;2,56;0,73;964,36
16.746;-0,69;-1,61;-0,36;-6,16;-6,31;-1,13;-0,80;2,56;0,73;964,36
16.746;-0,69;-1,61;-0,36;-6,16;-6,31;-1,13;-0,48;3,85;1,66;964,36
16.753;-0,53;-1,50;-0,16;-6,16;-6,31;-1,13;-0,48;3,85;1,66;964,36
16.753;-0,44;-1,42;-0,02;-6,16;-6,31;-1,13;-0,48;3,85;1,66;964,36
16.754;-0,40;-1,40;-0,01;-6,16;-6,31;-1,13;-0,48;3,85;1,66;964,36
16.807;-0,40;-1,40;-0,01;-2,95;-4,37;2,76;-0,48;3,85;1,66;964,36
16.808;-0,40;-1,40;-0,01;-2,95;-4,37;2,76;-0,53;3,90;2,08;964,36
16.813;-0,38;-1,31;-0,03;-2,95;-4,37;2,76;-0,53;3,90;2,08;964,36
16.814;-0,39;-1,14;-0,04;-2,95;-4,37;2,76;-0,53;3,90;2,08;964,36
16.814;-0,44;-0,91;-0,02;-2,95;-4,37;2,76;-0,53;3,90;2,08;964,36
16.827;-0,44;-0,91;-0,02;-2,95;-4,37;2,76;-0,53;3,90;2,08;964,36
16.865;-0,44;-0,91;-0,02;-2,70;0,13;3,19;-0,53;3,90;2,08;964,36
16.866;-0,44;-0,91;-0,02;-2,70;0,13;3,19;-0,79;1,32;2,00;964,36
16.872;-0,43;-0,74;-0,01;-2,70;0,13;3,19;-0,79;1,32;2,00;964,36
16.872;-0,38;-0,72;-0,01;-2,70;0,13;3,19;-0,79;1,32;2,00;964,36
16.872;-0,37;-0,79;0,02;-2,70;0,13;3,19;-0,79;1,32;2,00;964,36
16.927;-0,37;-0,79;0,02;-1,19;0,84;4,22;-0,79;1,32;2,00;964,36
16.928;-0,37;-0,79;0,02;-1,19;0,84;4,22;-1,28;0,35;1,54;964,36
16.928;-0,37;-0,79;0,02;-1,19;0,84;4,22;-1,28;0,35;1,54;964,34
16.933;-0,39;-0,80;0,04;-1,19;0,84;4,22;-1,28;0,35;1,54;964,34
16.933;-0,38;-0,84;0,05;-1,19;0,84;4,22;-1,28;0,35;1,54;964,34
16.933;-0,37;-0,89;0,07;-1,19;0,84;4,22;-1,28;0,35;1,54;964,34
16.985;-0,37;-0,89;0,07;-0,49;-0,65;5,34;-1,28;0,35;1,54;964,34
16.986;-0,37;-0,89;0,07;-0,49;-0,65;5,34;-1,31;-0,29;1,39;964,34
16.996;-0,37;-0,92;0,06;-0,49;-0,65;5,34;-1,31;-0,29;1,39;964,34
16.996;-0,35;-0,97;0,05;-0,49;-0,65;5,34;-1,31;-0,29;1,39;964,34
16.997;-0,33;-1,01;0,02;-0,49;-0,65;5,34;-1,31;-0,29;1,39;964,34
17.025;-0,33;-1,01;0,02;-0,49;-0,65;5,34;-1,31;-0,29;1,39;964,32
17.045;-0,33;-1,01;0,02;0,70;-2,42;5,21;-1,31;-0,29;1,39;964,32
17.046;-0,33;-1,01;0,02;0,70;-2,42;5,21;-0,62;-0,38;1,45;964,32
17.053;-0,31;-1,01;-0,02;0,70;-2,42;5,21;-0,62;-0,38;1,45;964,32
17.054;-0,28;-1,01;-0,02;0,70;-2,42;5,21;-0,62;-0,38;1,45;964,32
17.054;-0,26;-1,08;0,01;0,70;-2,42;5,21;-0,62;-0,38;1,45;964,32
17.106;-0,26;-1,08;0,01;1,89;-3,52;5,28;-0,62;-0,38;1,45;964,32
17.106;-0,26;-1,08;0,01;1,89;-3,52;5,28;0,34;0,85;1,27;964,32
17.113;-0,25;-1,11;-0,04;1,89;-3,52;5,28;0,34;0,85;1,27;964,32
17.114;-0,24;-1,13;-0,11;1,89;-3,52;5,28;0,34;0,85;1,27;964,32
17.114;-0,25;-1,13;-0,16;1,89;-3,52;5,28;0,34;0,85;1,27;964,32
17.125;-0,25;-1,13;-0,16;1,89;-3,52;5,28;0,34;0,85;1,27;964,28
17.168;-0,25;-1,13;-0,16;2,13;-4,01;3,50;0,34;0,85;1,27;964,28
17.169;-0,25;-1,13;-0,16;2,13;-4,01;3,50;0,95;0,48;0,23;964,28
17.174;-0,20;-1,05;-0,22;2,13;-4,01;3,50;0,95;0,48;0,23;964,28
17.175;-0,14;-0,97;-0,28;2,13;-4,01;3,50;0,95;0,48;0,23;964,28
17.175;-0,09;-1,10;-0,28;2,13;-4,01;3,50;0,95;0,48;0,23;964,28
17.226;-0,09;-1,10;-0,28;3,37;-3,26;1,94;0,95;0,48;0,23;964,28
17.23;-0,09;-1,10;-0,28;3,37;-3,26;1,94;1,37;0,18;-1,10;964,28
17.231;-0,09;-1,10;-0,28;3,37;-3,26;1,94;1,37;0,18;-1,10;964,26
17.232;-0,11;-1,07;-0,28;3,37;-3,26;1,94;1,37;0,18;-1,10;964,26
17.233;-0,19;-0,94;-0,35;3,37;-3,26;1,94;1,37;0,18;-1,10;964,26
17.233;-0,14;-0,86;-0,37;3,37;-3,26;1,94;1,37;0,18;-1,10;964,26
17.286;-0,14;-0,86;-0,37;2,23;-0,26;0,43;1,37;0,18;-1,10;964,26
17.288;-0,14;-0,86;-0,37;2,23;-0,26;0,43;1,38;0,70;-1,28;964,26
17.294;-0,06;-0,88;-0,40;2,23;-0,26;0,43;1,38;0,70;-1,28;964,26
17.295;-0,10;-1,00;-0,46;2,23;-0,26;0,43;1,38;0,70;-1,28;964,26
17.295;-0,18;-1,10;-0,50;2,23;-0,26;0,43;1,38;0,70;-1,28;964,26
17.325;-0,18;-1,10;-0,50;2,23;-0,26;0,43;1,38;0,70;-1,28;964,23
17.345;-0,18;-1,10;-0,50;0,97;-2,07;-1,35;1,38;0,70;-1,28;964,23
17.347;-0,18;-1,10;-0,50;0,97;-2,07;-1,35;1,20;0,97;-1,22;964,23
17.352;-0,23;-1,12;-0,49;0,97;-2,07;-1,35;1,20;0,97;-1,22;964,23
17.353;-0,21;-1,05;-0,44;0,97;-2,07;-1,35;1,20;0,97;-1,22;964,23
17.353;-0,19;-0,99;-0,42;0,97;-2,07;-1,35;1,20;0,97;-1,22;964,23
17.407;-0,19;-0,99;-0,42;0,06;-0,59;-1,05;1,20;0,97;-1,22;964,23
17.408;-0,19;-0,99;-0,42;0,06;-0,59;-1,05;1,31;1,04;-1,02;964,23
17.413;-0,20;-0,91;-0,42;0,06;-0,59;-1,05;1,31;1,04;-1,02;964,23
17.414;-0,25;-0,82;-0,45;0,06;-0,59;-1,05;1,31;1,04;-1,02;964,23
17.415;-0,28;-0,76;-0,49;0,06;-0,59;-1,05;1,31;1,04;-1,02;964,23
17.426;-0,28;-0,76;-0,49;0,06;-0,59;-1,05;1,31;1,04;-1,02;964,23
17.466;-0,28;-0,76;-0,49;-1,48;1,92;-2,32;1,31;1,04;-1,02;964,23
17.466;-0,28;-0,76;-0,49;-1,48;1,92;-2,32;1,14;1,30;-0,71;964,23
17.472;-0,30;-0,74;-0,49;-1,48;1,92;-2,32;1,14;1,30;-0,71;964,23
17.473;-0,33;-0,74;-0,47;-1,48;1,92;-2,32;1,14;1,30;-0,71;964,23
17.473;-0,36;-0,75;-0,44;-1,48;1,92;-2,32;1,14;1,30;-0,71;964,23
17.527;-0,36;-0,75;-0,44;-2,75;2,24;-2,39;1,14;1,30;-0,71;964,23
17.529;-0,36;-0,75;-0,44;-2,75;2,24;-2,39;0,92;1,06;-0,51;964,23
17.529;-0,36;-0,75;-0,44;-2,75;2,24;-2,39;0,92;1,06;-0,51;964,25
17.534;-0,38;-0,79;-0,45;-2,75;2,24;-2,39;0,92;1,06;-0,51;964,25
17.534;-0,41;-0,81;-0,46;-2,75;2,24;-2,39;0,92;1,06;-0,51;964,25
17.535;-0,43;-0,82;-0,48;-2,75;2,24;-2,39;0,92;1,06;-0,51;964,25
17.586;-0,43;-0,82;-0,48;-3,77;1,61;-3,12;0,92;1,06;-0,51;964,25
17.587;-0,43;-0,82;-0,48;-3,77;1,61;-3,12;0,44;1,24;0,03;964,25
17.596;-0,45;-0,82;-0,51;-3,77;1,61;-3,12;0,44;1,24;0,03;964,25
17.597;-0,47;-0,81;-0,52;-3,77;1,61;-3,12;0,44;1,24;0,03;964,25
17.597;-0,46;-0,82;-0,49;-3,77;1,61;-3,12;0,44;1,24;0,03;964,25
17.625;-0,46;-0,82;-0,49;-3,77;1,61;-3,12;0,44;1,24;0,03;964,27
17.647;-0,46;-0,82;-0,49;-3,94;1,66;-3,28;0,44;1,24;0,03;964,27
17.648;-0,46;-0,82;-0,49;-3,94;1,66;-3,28;0,15;0,97;0,47;964,27
17.653;-0,43;-0,85;-0,44;-3,94;1,66;-3,28;0,15;0,97;0,47;964,27
17.654;-0,42;-0,88;-0,41;-3,94;1,66;-3,28;0,15;0,97;0,47;964,27
17.654;-0,44;-0,91;-0,42;-3,94;1,66;-3,28;0,15;0,97;0,47;964,27
17.706;-0,44;-0,91;-0,42;-3,50;0,77;-2,57;0,15;0,97;0,47;964,27
17.707;-0,44;-0,91;-0,42;-3,50;0,77;-2,57;-0,31;1,21;0,67;964,27
17.713;-0,45;-0,94;-0,44;-3,50;0,77;-2,57;-0,31;1,21;0,67;964,27
17.714;-0,46;-0,96;-0,43;-3,50;0,77;-2,57;-0,31;1,21;0,67;964,27
17.714;-0,46;-0,97;-0,38;-3,50;0,77;-2,57;-0,31;1,21;0,67;964,27
17.725;-0,46;-0,97;-0,38;-3,50;0,77;-2,57;-0,31;1,21;0,67;964,29
17.765;-0,46;-0,97;-0,38;-3,47;0,05;-1,92;-0,31;1,21;0,67;964,29
17.766;-0,46;-0,97;-0,38;-3,47;0,05;-1,92;-0,44;0,86;0,49;964,29
17.772;-0,46;-1,13;-0,30;-3,47;0,05;-1,92;-0,44;0,86;0,49;964,29
17.773;-0,48;-1,27;-0,26;-3,47;0,05;-1,92;-0,44;0,86;0,49;964,29
17.773;-0,53;-1,37;-0,25;-3,47;0,05;-1,92;-0,44;0,86;0,49;964,29
17.826;-0,53;-1,37;-0,25;-4,01;-3,97;-0,28;-0,44;0,86;0,49;964,29
17.827;-0,53;-1,37;-0,25;-4,01;-3,97;-0,28;-0,39;2,33;0,97;964,29
17.827;-0,53;-1,37;-0,25;-4,01;-3,97;-0,28;-0,39;2,33;0,97;964,34
17.833;-0,54;-1,45;-0,26;-4,01;-3,97;-0,28;-0,39;2,33;0,97;964,34
17.834;-0,49;-1,37;-0,19;-4,01;-3,97;-0,28;-0,39;2,33;0,97;964,34
17.834;-0,43;-1,30;-0,10;-4,01;-3,97;-0,28;-0,39;2,33;0,97;964,34
17.885;-0,43;-1,30;-0,10;-2,72;-3,41;1,57;-0,39;2,33;0,97;964,34
17.886;-0,43;-1,30;-0,10;-2,72;-3,41;1,57;-0,24;3,54;1,56;964,34
17.892;-0,41;-1,22;-0,09;-2,72;-3,41;1,57;-0,24;3,54;1,56;964,34
17.892;-0,44;-1,15;-0,13;-2,72;-3,41;1,57;-0,24;3,54;1,56;964,34
17.892;-0,47;-1,10;-0,16;-2,72;-3,41;1,57;-0,24;3,54;1,56;964,34
17.927;-0,47;-1,10;-0,16;-2,72;-3,41;1,57;-0,24;3,54;1,56;964,37
17.947;-0,47;-1,10;-0,16;-2,80;-1,64;1,65;-0,24;3,54;1,56;964,37
17.948;-0,47;-1,10;-0,16;-2,80;-1,64;1,65;-0,76;2,89;1,64;964,37
17.952;-0,49;-1,05;-0,15;-2,80;-1,64;1,65;-0,76;2,89;1,64;964,37
17.953;-0,49;-0,99;-0,15;-2,80;-1,64;1,65;-0,76;2,89;1,64;964,37
17.953;-0,49;-0,93;-0,15;-2,80;-1,64;1,65;-0,76;2,89;1,64;964,37
18.005;-0,49;-0,93;-0,15;-2,51;-0,41;2,45;-0,76;2,89;1,64;964,37
18.006;-0,49;-0,93;-0,15;-2,51;-0,41;2,45;-1,24;0,99;1,65;964,37
18.014;-0,48;-0,89;-0,14;-2,51;-0,41;2,45;-1,24;0,99;1,65;964,37
18.015;-0,45;-0,90;-0,12;-2,51;-0,41;2,45;-1,24;0,99;1,65;964,37
18.015;-0,43;-0,93;-0,10;-2,51;-0,41;2,45;-1,24;0,99;1,65;964,37
18.025;-0,43;-0,93;-0,10;-2,51;-0,41;2,45;-1,24;0,99;1,65;964,35
18.07;-0,43;-0,93;-0,10;-1,22;-1,00;3,73;-1,24;0,99;1,65;964,35
18.071;-0,43;-0,93;-0,10;-1,22;-1,00;3,73;-1,46;0,24;1,63;964,35
18.078;-0,42;-0,94;-0,09;-1,22;-1,00;3,73;-1,46;0,24;1,63;964,35
18.079;-0,40;-0,97;-0,06;-1,22;-1,00;3,73;-1,46;0,24;1,63;964,35
18.079;-0,39;-1,02;-0,03;-1,22;-1,00;3,73;-1,46;0,24;1,63;964,35
18.126;-0,39;-1,02;-0,03;-0,04;-2,66;5,01;-1,46;0,24;1,63;964,35
18.127;-0,39;-1,02;-0,03;-0,04;-2,66;5,01;-1,14;-0,60;1,67;964,35
18.127;-0,39;-1,02;-0,03;-0,04;-2,66;5,01;-1,14;-0,60;1,67;964,32
18.134;-0,38;-1,05;-0,02;-0,04;-2,66;5,01;-1,14;-0,60;1,67;964,32
18.135;-0,37;-1,08;-0,03;-0,04;-2,66;5,01;-1,14;-0,60;1,67;964,32
18.135;-0,34;-1,08;0,00;-0,04;-2,66;5,01;-1,14;-0,60;1,67;964,32
18.185;-0,34;-1,08;0,00;1,39;-3,84;5,45;-1,14;-0,60;1,67;964,32
18.186;-0,34;-1,08;0,00;1,39;-3,84;5,45;-0,25;-0,67;1,65;964,32
18.193;-0,30;-1,07;0,04;1,39;-3,84;5,45;-0,25;-0,67;1,65;964,32
18.193;-0,28;-1,04;0,01;1,39;-3,84;5,45;-0,25;-0,67;1,65;964,32
18.194;-0,29;-1,03;-0,05;1,39;-3,84;5,45;-0,25;-0,67;1,65;964,32
18.227;-0,29;-1,03;-0,05;1,39;-3,84;5,45;-0,25;-0,67;1,65;964,29
18.248;-0,29;-1,03;-0,05;2,71;-3,81;4,62;-0,25;-0,67;1,65;964,29
18.249;-0,29;-1,03;-0,05;2,71;-3,81;4,62;0,37;-0,84;1,51;964,29
18.253;-0,29;-1,00;-0,11;2,71;-3,81;4,62;0,37;-0,84;1,51;964,29
18.253;-0,26;-0,97;-0,08;2,71;-3,81;4,62;0,37;-0,84;1,51;964,29
18.253;-0,22;-1,01;-0,07;2,71;-3,81;4,62;0,37;-0,84;1,51;964,29
18.305;-0,22;-1,01;-0,07;3,97;-3,89;4,04;0,37;-0,84;1,51;964,29
18.307;-0,22;-1,01;-0,07;3,97;-3,89;4,04;0,92;0,19;0,74;964,29
18.313;-0,18;-1,01;-0,12;3,97;-3,89;4,04;0,92;0,19;0,74;964,29
18.314;-0,16;-0,99;-0,22;3,97;-3,89;4,04;0,92;0,19;0,74;964,29
18.314;-0,14;-1,08;-0,23;3,97;-3,89;4,04;0,92;0,19;0,74;964,29
18.325;-0,14;-1,08;-0,23;3,97;-3,89;4,04;0,92;0,19;0,74;964,28
18.366;-0,14;-1,08;-0,23;4,63;-4,22;2,18;0,92;0,19;0,74;964,28
18.367;-0,14;-1,08;-0,23;4,63;-4,22;2,18;1,43;0,29;-0,91;964,28
18.372;-0,18;-1,05;-0,22;4,63;-4,22;2,18;1,43;0,29;-0,91;964,28
18.373;-0,24;-0,93;-0,32;4,63;-4,22;2,18;1,43;0,29;-0,91;964,28
18.373;-0,24;-0,87;-0,44;4,63;-4,22;2,18;1,43;0,29;-0,91;964,28
18.427;-0,24;-0,87;-0,44;3,16;-1,48;-0,33;1,43;0,29;-0,91;964,28
18.429;-0,24;-0,87;-0,44;3,16;-1,48;-0,33;1,22;0,56;-1,27;964,28
18.43;-0,24;-0,87;-0,44;3,16;-1,48;-0,33;1,22;0,56;-1,27;964,24
18.433;-0,18;-0,87;-0,52;3,16;-1,48;-0,33;1,22;0,56;-1,27;964,24
18.434;-0,16;-0,92;-0,55;3,16;-1,48;-0,33;1,22;0,56;-1,27;964,24
18.434;-0,20;-0,96;-0,53;3,16;-1,48;-0,33;1,22;0,56;-1,27;964,24
18.486;-0,20;-0,96;-0,53;2,80;-1,59;-1,50;1,22;0,56;-1,27;964,24
18.487;-0,20;-0,96;-0,53;2,80;-1,59;-1,50;1,08;0,66;-1,42;964,24
18.493;-0,22;-0,97;-0,47;2,80;-1,59;-1,50;1,08;0,66;-1,42;964,24
18.493;-0,20;-0,97;-0,41;2,80;-1,59;-1,50;1,08;0,66;-1,42;964,24
18.493;-0,21;-0,94;-0,38;2,80;-1,59;-1,50;1,08;0,66;-1,42;964,24
18.526;-0,21;-0,94;-0,38;2,80;-1,59;-1,50;1,08;0,66;-1,42;964,23
18.547;-0,21;-0,94;-0,38;1,73;-0,85;-0,40;1,08;0,66;-1,42;964,23
18.549;-0,21;-0,94;-0,38;1,73;-0,85;-0,40;1,11;0,85;-1,56;964,23
18.552;-0,25;-0,91;-0,38;1,73;-0,85;-0,40;1,11;0,85;-1,56;964,23
18.553;-0,30;-0,87;-0,41;1,73;-0,85;-0,40;1,11;0,85;-1,56;964,23
18.553;-0,34;-0,83;-0,44;1,73;-0,85;-0,40;1,11;0,85;-1,56;964,23
18.606;-0,34;-0,83;-0,44;-0,45;0,80;-1,34;1,11;0,85;-1,56;964,23
18.607;-0,34;-0,83;-0,44;-0,45;0,80;-1,34;1,04;1,00;-1,43;964,23
18.613;-0,37;-0,80;-0,44;-0,45;0,80;-1,34;1,04;1,00;-1,43;964,23
18.613;-0,38;-0,79;-0,42;-0,45;0,80;-1,34;1,04;1,00;-1,43;964,23
18.614;-0,40;-0,81;-0,38;-0,45;0,80;-1,34;1,04;1,00;-1,43;964,23
18.625;-0,40;-0,81;-0,38;-0,45;0,80;-1,34;1,04;1,00;-1,43;964,25
18.671;-0,40;-0,81;-0,38;-1,92;1,38;-1,23;1,04;1,00;-1,43;964,25
18.672;-0,40;-0,81;-0,38;-1,92;1,38;-1,23;0,98;1,14;-1,18;964,25
18.673;-0,41;-0,82;-0,37;-1,92;1,38;-1,23;0,98;1,14;-1,18;964,25
18.674;-0,44;-0,83;-0,39;-1,92;1,38;-1,23;0,98;1,14;-1,18;964,25
18.674;-0,47;-0,82;-0,42;-1,92;1,38;-1,23;0,98;1,14;-1,18;964,25
18.726;-0,47;-0,82;-0,42;-3,32;1,49;-1,97;0,98;1,14;-1,18;964,25
18.727;-0,47;-0,82;-0,42;-3,32;1,49;-1,97;0,73;1,02;-0,66;964,25
18.728;-0,47;-0,82;-0,42;-3,32;1,49;-1,97;0,73;1,02;-0,66;964,26
18.738;-0,49;-0,81;-0,44;-3,32;1,49;-1,97;0,73;1,02;-0,66;964,26
18.739;-0,50;-0,82;-0,45;-3,32;1,49;-1,97;0,73;1,02;-0,66;964,26
18.739;-0,50;-0,82;-0,45;-3,32;1,49;-1,97;0,73;1,02;-0,66;964,26
18.79;-0,50;-0,82;-0,45;-3,89;1,50;-2,57;0,73;1,02;-0,66;964,26
18.791;-0,50;-0,82;-0,45;-3,89;1,50;-2,57;0,37;0,62;-0,06;964,26
18.792;-0,50;-0,84;-0,46;-3,89;1,50;-2,57;0,37;0,62;-0,06;964,26
18.793;-0,50;-0,86;-0,46;-3,89;1,50;-2,57;0,37;0,62;-0,06;964,26
18.793;-0,51;-0,89;-0,47;-3,89;1,50;-2,57;0,37;0,62;-0,06;964,26
18.829;-0,51;-0,89;-0,47;-3,89;1,50;-2,57;0,37;0,62;-0,06;964,28
18.845;-0,51;-0,89;-0,47;-3,95;0,84;-2,77;0,37;0,62;-0,06;964,28
18.845;-0,51;-0,89;-0,47;-3,95;0,84;-2,77;-0,02;0,05;0,59;964,28
18.853;-0,51;-0,93;-0,46;-3,95;0,84;-2,77;-0,02;0,05;0,59;964,28
18.853;-0,49;-0,95;-0,44;-3,95;0,84;-2,77;-0,02;0,05;0,59;964,28
18.853;-0,48;-0,95;-0,42;-3,95;0,84;-2,77;-0,02;0,05;0,59;964,28
18.906;-0,48;-0,95;-0,42;-3,14;0,23;-2,24;-0,02;0,05;0,59;964,28
18.906;-0,48;-0,95;-0,42;-3,14;0,23;-2,24;-0,26;-0,07;0,82;964,28
18.913;-0,46;-0,99;-0,41;-3,14;0,23;-2,24;-0,26;-0,07;0,82;964,28
18.914;-0,44;-1,11;-0,38;-3,14;0,23;-2,24;-0,26;-0,07;0,82;964,28
18.914;-0,47;-1,19;-0,38;-3,14;0,23;-2,24;-0,26;-0,07;0,82;964,28
18.928;-0,47;-1,19;-0,38;-3,14;0,23;-2,24;-0,26;-0,07;0,82;964,29
18.967;-0,47;-1,19;-0,38;-2,67;-2,27;-1,61;-0,26;-0,07;0,82;964,29
18.968;-0,47;-1,19;-0,38;-2,67;-2,27;-1,61;-0,69;0,40;0,76;964,29
18.972;-0,55;-1,22;-0,39;-2,67;-2,27;-1,61;-0,69;0,40;0,76;964,29
18.973;-0,55;-1,20;-0,35;-2,67;-2,27;-1,61;-0,69;0,40;0,76;964,29
18.973;-0,50;-1,20;-0,26;-2,67;-2,27;-1,61;-0,69;0,40;0,76;964,29
19.027;-0,50;-1,20;-0,26;-2,46;-2,60;-0,02;-0,69;0,40;0,76;964,29
19.029;-0,50;-1,20;-0,26;-2,46;-2,60;-0,02;-0,65;0,04;1,30;964,29
19.029;-0,50;-1,20;-0,26;-2,46;-2,60;-0,02;-0,65;0,04;1,30;964,30
19.032;-0,50;-1,23;-0,23;-2,46;-2,60;-0,02;-0,65;0,04;1,30;964,30
19.033;-0,54;-1,24;-0,21;-2,46;-2,60;-0,02;-0,65;0,04;1,30;964,30
19.033;-0,57;-1,23;-0,21;-2,46;-2,60;-0,02;-0,65;0,04;1,30;964,30
19.085;-0,57;-1,23;-0,21;-2,21;-3,26;0,79;-0,65;0,04;1,30;964,30
19.085;-0,57;-1,23;-0,21;-2,21;-3,26;0,79;-0,49;0,12;2,22;964,30
19.093;-0,53;-1,24;-0,19;-2,21;-3,26;0,79;-0,49;0,12;2,22;964,30
19.094;-0,48;-1,26;-0,16;-2,21;-3,26;0,79;-0,49;0,12;2,22;964,30
19.094;-0,44;-1,21;-0,13;-2,21;-3,26;0,79;-0,49;0,12;2,22;964,30
19.125;-0,44;-1,21;-0,13;-2,21;-3,26;0,79;-0,49;0,12;2,22;964,30
19.145;-0,44;-1,21;-0,13;0,28;-3,79;1,78;-0,49;0,12;2,22;964,30
19.146;-0,44;-1,21;-0,13;0,28;-3,79;1,78;-0,22;-0,22;2,80;964,30
19.153;-0,47;-1,15;-0,14;0,28;-3,79;1,78;-0,22;-0,22;2,80;964,30
19.154;-0,41;-1,08;-0,12;0,28;-3,79;1,78;-0,22;-0,22;2,80;964,30
19.154;-0,37;-1,04;-0,13;0,28;-3,79;1,78;-0,22;-0,22;2,80;964,30
19.205;-0,37;-1,04;-0,13;2,41;-3,04;1,79;-0,22;-0,22;2,80;964,30
19.206;-0,37;-1,04;-0,13;2,41;-3,04;1,79;-0,07;-0,33;3,03;964,30
19.215;-0,33;-1,00;-0,14;2,41;-3,04;1,79;-0,07;-0,33;3,03;964,30
19.215;-0,30;-0,97;-0,14;2,41;-3,04;1,79;-0,07;-0,33;3,03;964,30
19.216;-0,27;-0,92;-0,12;2,41;-3,04;1,79;-0,07;-0,33;3,03;964,30
19.225;-0,27;-0,92;-0,12;2,41;-3,04;1,79;-0,07;-0,33;3,03;964,33
19.266;-0,27;-0,92;-0,12;4,46;-3,02;1,82;-0,07;-0,33;3,03;964,33
19.266;-0,27;-0,92;-0,12;4,46;-3,02;1,82;-0,07;0,23;2,68;964,33
19.274;-0,25;-0,87;-0,11;4,46;-3,02;1,82;-0,07;0,23;2,68;964,33
19.274;-0,23;-0,80;-0,09;4,46;-3,02;1,82;-0,07;0,23;2,68;964,33
19.274;-0,23;-0,75;-0,07;4,46;-3,02;1,82;-0,07;0,23;2,68;964,33
19.327;-0,23;-0,75;-0,07;5,56;-2,45;2,45;-0,07;0,23;2,68;964,33
19.328;-0,23;-0,75;-0,07;5,56;-2,45;2,45;0,03;0,47;1,91;964,33
19.328;-0,23;-0,75;-0,07;5,56;-2,45;2,45;0,03;0,47;1,91;964,28
19.332;-0,23;-0,72;-0,07;5,56;-2,45;2,45;0,03;0,47;1,91;964,28
19.333;-0,20;-0,68;-0,06;5,56;-2,45;2,45;0,03;0,47;1,91;964,28
19.333;-0,19;-0,68;-0,07;5,56;-2,45;2,45;0,03;0,47;1,91;964,28
19.386;-0,19;-0,68;-0,07;6,30;-2,39;2,82;0,03;0,47;1,91;964,28
19.387;-0,19;-0,68;-0,07;6,30;-2,39;2,82;0,27;0,64;0,73;964,28
19.393;-0,20;-0,69;-0,10;6,30;-2,39;2,82;0,27;0,64;0,73;964,28
19.394;-0,23;-0,70;-0,13;6,30;-2,39;2,82;0,27;0,64;0,73;964,28
19.394;-0,24;-0,73;-0,16;6,30;-2,39;2,82;0,27;0,64;0,73;964,28
19.425;-0,24;-0,73;-0,16;6,30;-2,39;2,82;0,27;0,64;0,73;964,26
19.446;-0,24;-0,73;-0,16;5,73;-2,82;2,05;0,27;0,64;0,73;964,26
19.447;-0,24;-0,73;-0,16;5,73;-2,82;2,05;0,62;0,37;-0,83;964,26
19.453;-0,21;-0,75;-0,18;5,73;-2,82;2,05;0,62;0,37;-0,83;964,26
19.453;-0,22;-0,75;-0,22;5,73;-2,82;2,05;0,62;0,37;-0,83;964,26
19.453;-0,23;-0,85;-0,23;5,73;-2,82;2,05;0,62;0,37;-0,83;964,26
19.506;-0,23;-0,85;-0,23;5,21;-3,04;1,31;0,62;0,37;-0,83;964,26
19.506;-0,23;-0,85;-0,23;5,21;-3,04;1,31;0,99;0,65;-2,84;964,26
19.513;-0,22;-1,02;-0,21;5,21;-3,04;1,31;0,99;0,65;-2,84;964,26
19.514;-0,29;-1,09;-0,21;5,21;-3,04;1,31;0,99;0,65;-2,84;964,26
19.514;-0,40;-1,12;-0,28;5,21;-3,04;1,31;0,99;0,65;-2,84;964,26
19.526;-0,40;-1,12;-0,28;5,21;-3,04;1,31;0,99;0,65;-2,84;964,29
19.565;-0,40;-1,12;-0,28;2,30;-4,13;0,68;0,99;0,65;-2,84;964,29
19.567;-0,40;-1,12;-0,28;2,30;-4,13;0,68;0,83;0,21;-3,34;964,29
19.573;-0,43;-1,08;-0,36;2,30;-4,13;0,68;0,83;0,21;-3,34;964,29
19.573;-0,41;-1,10;-0,40;2,30;-4,13;0,68;0,83;0,21;-3,34;964,29
19.573;-0,40;-1,18;-0,42;2,30;-4,13;0,68;0,83;0,21;-3,34;964,29
19.625;-0,40;-1,18;-0,42;0,86;-3,57;-0,95;0,83;0,21;-3,34;964,29
19.626;-0,40;-1,18;-0,42;0,86;-3,57;-0,95;0,36;-0,52;-3,13;964,29
19.627;-0,40;-1,18;-0,42;0,86;-3,57;-0,95;0,36;-0,52;-3,13;964,28
19.633;-0,41;-1,24;-0,38;0,86;-3,57;-0,95;0,36;-0,52;-3,13;964,28
19.634;-0,42;-1,30;-0,30;0,86;-3,57;-0,95;0,36;-0,52;-3,13;964,28
19.635;-0,43;-1,29;-0,24;0,86;-3,57;-0,95;0,36;-0,52;-3,13;964,28
19.688;-0,43;-1,29;-0,24;-0,79;-3,83;0,42;0,36;-0,52;-3,13;964,28
19.689;-0,43;-1,29;-0,24;-0,79;-3,83;0,42;0,27;-1,06;-2,60;964,28
19.693;-0,46;-1,23;-0,24;-0,79;-3,83;0,42;0,27;-1,06;-2,60;964,28
19.693;-0,52;-1,14;-0,27;-0,79;-3,83;0,42;0,27;-1,06;-2,60;964,28
19.694;-0,55;-1,02;-0,29;-0,79;-3,83;0,42;0,27;-1,06;-2,60;964,28
19.726;-0,55;-1,02;-0,29;-0,79;-3,83;0,42;0,27;-1,06;-2,60;964,30
19.748;-0,55;-1,02;-0,29;-3,00;-0,77;-0,43;0,27;-1,06;-2,60;964,30
19.749;-0,55;-1,02;-0,29;-3,00;-0,77;-0,43;0,40;-1,41;-1,74;964,30
19.753;-0,52;-0,92;-0,29;-3,00;-0,77;-0,43;0,40;-1,41;-1,74;964,30
19.753;-0,48;-0,86;-0,27;-3,00;-0,77;-0,43;0,40;-1,41;-1,74;964,30
19.753;-0,47;-0,82;-0,24;-3,00;-0,77;-0,43;0,40;-1,41;-1,74;964,30
19.806;-0,47;-0,82;-0,24;-2,90;1,39;-0,34;0,40;-1,41;-1,74;964,30
19.807;-0,47;-0,82;-0,24;-2,90;1,39;-0,34;0,53;-0,90;-1,23;964,30
19.816;-0,47;-0,81;-0,22;-2,90;1,39;-0,34;0,53;-0,90;-1,23;964,30
19.817;-0,47;-0,80;-0,24;-2,90;1,39;-0,34;0,53;-0,90;-1,23;964,30
19.817;-0,48;-0,80;-0,26;-2,90;1,39;-0,34;0,53;-0,90;-1,23;964,30
19.825;-0,48;-0,80;-0,26;-2,90;1,39;-0,34;0,53;-0,90;-1,23;964,31
19.867;-0,48;-0,80;-0,26;-2,90;1,39;-0,34;0,42;-0,59;-1,04;964,31
19.868;-0,48;-0,80;-0,26;-3,58;1,74;-0,85;0,42;-0,59;-1,04;964,31
19.881;-0,51;-0,80;-0,29;-3,58;1,74;-0,85;0,42;-0,59;-1,04;964,31
19.881;-0,52;-0,80;-0,30;-3,58;1,74;-0,85;0,42;-0,59;-1,04;964,31
19.881;-0,52;-0,80;-0,31;-3,58;1,74;-0,85;0,42;-0,59;-1,04;964,31
