time;gFx;gFy;gFz;ax;ay;az;wx;wy;wz;P
0.006;-0,04;0,72;0,66;0,06;0,15;-0,48;-0,10;0,12;-0,24;964,23
0.006;-0,04;0,72;0,66;0,06;0,15;-0,48;-0,04;0,12;-0,34;964,23
0.014;-0,03;0,74;0,68;0,06;0,15;-0,48;-0,04;0,12;-0,34;964,23
0.014;0,03;0,73;0,65;0,06;0,15;-0,48;-0,04;0,12;-0,34;964,23
0.015;0,06;0,77;0,63;0,06;0,15;-0,48;-0,04;0,12;-0,34;964,23
0.027;0,06;0,77;0,63;0,06;0,15;-0,48;-0,04;0,12;-0,34;964,24
0.066;0,06;0,77;0,63;1,29;0,69;-0,83;-0,04;0,12;-0,34;964,24
0.067;0,06;0,77;0,63;1,29;0,69;-0,83;-0,09;0,15;-0,44;964,24
0.074;0,06;0,78;0,63;1,29;0,69;-0,83;-0,09;0,15;-0,44;964,24
0.074;0,07;0,78;0,62;1,29;0,69;-0,83;-0,09;0,15;-0,44;964,24
0.074;0,07;0,76;0,64;1,29;0,69;-0,83;-0,09;0,15;-0,44;964,24
0.128;0,07;0,76;0,64;1,29;0,69;-0,83;-0,09;0,15;-0,44;964,24
0.128;0,07;0,76;0,64;1,64;0,64;-0,73;-0,09;0,15;-0,44;964,24
0.128;0,07;0,76;0,64;1,64;0,64;-0,73;-0,03;-0,09;-0,73;964,24
0.133;0,10;0,74;0,65;1,64;0,64;-0,73;-0,03;-0,09;-0,73;964,24
0.134;0,08;0,73;0,66;1,64;0,64;-0,73;-0,03;-0,09;-0,73;964,24
0.134;0,09;0,71;0,67;1,64;0,64;-0,73;-0,03;-0,09;-0,73;964,24
0.187;0,09;0,71;0,67;2,18;0,17;-0,45;-0,03;-0,09;-0,73;964,24
0.187;0,09;0,71;0,67;2,18;0,17;-0,45;0,06;0,26;-0,92;964,24
0.194;0,10;0,70;0,68;2,18;0,17;-0,45;0,06;0,26;-0,92;964,24
0.195;0,01;0,65;0,67;2,18;0,17;-0,45;0,06;0,26;-0,92;964,24
0.195;-0,02;0,67;0,62;2,18;0,17;-0,45;0,06;0,26;-0,92;964,24
0.226;-0,02;0,67;0,62;2,18;0,17;-0,45;0,06;0,26;-0,92;964,22
0.247;-0,02;0,67;0,62;1,54;-0,10;-0,92;0,06;0,26;-0,92;964,22
0.248;-0,02;0,67;0,62;1,54;-0,10;-0,92;-0,04;0,43;-1,05;964,22
0.255;-0,01;0,68;0,59;1,54;-0,10;-0,92;-0,04;0,43;-1,05;964,22
0.255;0,01;0,67;0,58;1,54;-0,10;-0,92;-0,04;0,43;-1,05;964,22
0.256;-0,02;0,64;0,56;1,54;-0,10;-0,92;-0,04;0,43;-1,05;964,22
0.307;-0,02;0,64;0,56;2,29;-0,26;-1,38;-0,04;0,43;-1,05;964,22
0.307;-0,02;0,64;0,56;2,29;-0,26;-1,38;0,28;1,24;-1,81;964,22
0.315;-0,01;0,61;0,53;2,29;-0,26;-1,38;0,28;1,24;-1,81;964,22
0.315;-0,00;0,56;0,47;2,29;-0,26;-1,38;0,28;1,24;-1,81;964,22
0.316;-0,05;0,46;0,48;2,29;-0,26;-1,38;0,28;1,24;-1,81;964,22
0.327;-0,05;0,46;0,48;2,29;-0,26;-1,38;0,28;1,24;-1,81;964,20
0.367;-0,05;0,46;0,48;3,68;-1,83;-1,59;0,28;1,24;-1,81;964,20
0.367;-0,05;0,46;0,48;3,68;-1,83;-1,59;0,80;3,02;-2,91;964,20
0.373;-0,11;0,36;0,46;3,68;-1,83;-1,59;0,80;3,02;-2,91;964,20
0.374;-0,23;0,29;0,43;3,68;-1,83;-1,59;0,80;3,02;-2,91;964,20
0.374;-0,36;0,23;0,38;3,68;-1,83;-1,59;0,80;3,02;-2,91;964,20
0.426;-0,36;0,23;0,38;3,68;-1,83;-1,59;0,80;3,02;-2,91;964,17
0.427;-0,36;0,23;0,38;2,98;-3,24;-1,06;0,80;3,02;-2,91;964,17
0.427;-0,36;0,23;0,38;2,98;-3,24;-1,06;1,08;3,58;-4,08;964,17
0.434;-0,55;0,18;0,37;2,98;-3,24;-1,06;1,08;3,58;-4,08;964,17
0.434;-0,61;0,13;0,36;2,98;-3,24;-1,06;1,08;3,58;-4,08;964,17
0.435;-0,72;0,04;0,41;2,98;-3,24;-1,06;1,08;3,58;-4,08;964,17
0.488;-0,72;0,04;0,41;1,54;-3,25;0,93;1,08;3,58;-4,08;964,17
0.488;-0,72;0,04;0,41;1,54;-3,25;0,93;1,39;2,33;-5,53;964,17
0.495;-0,79;-0,06;0,47;1,54;-3,25;0,93;1,39;2,33;-5,53;964,17
0.495;-0,92;-0,17;0,41;1,54;-3,25;0,93;1,39;2,33;-5,53;964,17
0.495;-1,17;-0,28;0,27;1,54;-3,25;0,93;1,39;2,33;-5,53;964,17
0.526;-1,17;-0,28;0,27;1,54;-3,25;0,93;1,39;2,33;-5,53;964,18
0.548;-1,17;-0,28;0,27;-1,84;-3,35;1,03;1,39;2,33;-5,53;964,18
0.549;-1,17;-0,28;0,27;-1,84;-3,35;1,03;0,58;2,66;-6,48;964,18
0.553;-1,32;-0,38;0,18;-1,84;-3,35;1,03;0,58;2,66;-6,48;964,18
0.554;-1,25;-0,51;0,32;-1,84;-3,35;1,03;0,58;2,66;-6,48;964,18
0.554;-1,06;-0,77;0,39;-1,84;-3,35;1,03;0,58;2,66;-6,48;964,18
0.609;-1,06;-0,77;0,39;-1,15;-4,14;3,66;0,58;2,66;-6,48;964,18
0.61;-1,06;-0,77;0,39;-1,15;-4,14;3,66;0,57;1,75;-7,16;964,18
0.614;-1,25;-0,96;0,09;-1,15;-4,14;3,66;0,57;1,75;-7,16;964,18
0.614;-1,30;-1,18;-0,27;-1,15;-4,14;3,66;0,57;1,75;-7,16;964,18
0.615;-1,25;-1,40;-0,43;-1,15;-4,14;3,66;0,57;1,75;-7,16;964,18
0.627;-1,25;-1,40;-0,43;-1,15;-4,14;3,66;0,57;1,75;-7,16;964,17
0.668;-1,25;-1,40;-0,43;-5,18;-6,96;-3,63;0,57;1,75;-7,16;964,17
0.669;-1,25;-1,40;-0,43;-5,18;-6,96;-3,63;-0,09;1,33;-5,74;964,17
0.676;-1,18;-1,33;-0,43;-5,18;-6,96;-3,63;-0,09;1,33;-5,74;964,17
0.676;-1,22;-1,28;-0,29;-5,18;-6,96;-3,63;-0,09;1,33;-5,74;964,17
0.676;-1,45;-1,30;-0,25;-5,18;-6,96;-3,63;-0,09;1,33;-5,74;964,17
0.728;-1,45;-1,30;-0,25;-5,18;-6,96;-3,63;-0,09;1,33;-5,74;964,18
0.729;-1,45;-1,30;-0,25;-9,37;-4,20;-1,83;-0,09;1,33;-5,74;964,18
0.729;-1,45;-1,30;-0,25;-9,37;-4,20;-1,83;-0,66;-0,90;-4,07;964,18
0.736;-1,34;-1,18;-0,32;-9,37;-4,20;-1,83;-0,66;-0,90;-4,07;964,18
0.736;-1,08;-1,10;-0,31;-9,37;-4,20;-1,83;-0,66;-0,90;-4,07;964,18
0.736;-1,04;-1,06;-0,19;-9,37;-4,20;-1,83;-0,66;-0,90;-4,07;964,18
0.79;-1,04;-1,06;-0,19;-7,06;-1,11;-0,89;-0,66;-0,90;-4,07;964,18
0.791;-1,04;-1,06;-0,19;-7,06;-1,11;-0,89;-0,94;-0,71;-2,14;964,18
0.794;-1,17;-0,98;-0,15;-7,06;-1,11;-0,89;-0,94;-0,71;-2,14;964,18
0.795;-1,26;-0,87;-0,23;-7,06;-1,11;-0,89;-0,94;-0,71;-2,14;964,18
0.795;-1,19;-0,69;-0,33;-7,06;-1,11;-0,89;-0,94;-0,71;-2,14;964,18
0.829;-1,19;-0,69;-0,33;-7,06;-1,11;-0,89;-0,94;-0,71;-2,14;964,21
0.847;-1,19;-0,69;-0,33;-9,31;2,66;-1,80;-0,94;-0,71;-2,14;964,21
0.848;-1,19;-0,69;-0,33;-9,31;2,66;-1,80;-0,99;-0,28;-0,65;964,21
0.854;-1,04;-0,57;-0,30;-9,31;2,66;-1,80;-0,99;-0,28;-0,65;964,21
0.855;-0,93;-0,48;-0,23;-9,31;2,66;-1,80;-0,99;-0,28;-0,65;964,21
0.855;-0,88;-0,39;-0,20;-9,31;2,66;-1,80;-0,99;-0,28;-0,65;964,21
0.909;-0,88;-0,39;-0,20;-6,29;5,50;-0,05;-0,99;-0,28;-0,65;964,21
0.91;-0,88;-0,39;-0,20;-6,29;5,50;-0,05;-0,85;0,22;0,73;964,21
0.914;-0,93;-0,31;-0,28;-6,29;5,50;-0,05;-0,85;0,22;0,73;964,21
0.914;-0,88;-0,17;-0,34;-6,29;5,50;-0,05;-0,85;0,22;0,73;964,21
0.914;-0,86;-0,03;-0,41;-6,29;5,50;-0,05;-0,85;0,22;0,73;964,21
0.927;-0,86;-0,03;-0,41;-6,29;5,50;-0,05;-0,85;0,22;0,73;964,19
0.968;-0,86;-0,03;-0,41;-5,41;8,69;-1,49;-0,85;0,22;0,73;964,19
0.969;-0,86;-0,03;-0,41;-5,41;8,69;-1,49;-0,89;-0,34;1,83;964,19
0.974;-0,88;0,04;-0,35;-5,41;8,69;-1,49;-0,89;-0,34;1,83;964,19
0.974;-0,96;-0,01;-0,27;-5,41;8,69;-1,49;-0,89;-0,34;1,83;964,19
0.975;-1,04;-0,05;-0,31;-5,41;8,69;-1,49;-0,89;-0,34;1,83;964,19
1.03;-1,04;-0,05;-0,31;-5,41;8,69;-1,49;-0,89;-0,34;1,83;964,22
1.03;-1,04;-0,05;-0,31;-5,73;7,79;-0,40;-0,89;-0,34;1,83;964,22
1.031;-1,04;-0,05;-0,31;-5,73;7,79;-0,40;-0,66;-1,64;3,12;964,22
1.037;-1,07;-0,08;-0,39;-5,73;7,79;-0,40;-0,66;-1,64;3,12;964,22
1.037;-0,96;-0,10;-0,40;-5,73;7,79;-0,40;-0,66;-1,64;3,12;964,22
1.037;-0,98;-0,20;-0,37;-5,73;7,79;-0,40;-0,66;-1,64;3,12;964,22
1.089;-0,98;-0,20;-0,37;-3,28;5,02;-0,95;-0,66;-1,64;3,12;964,22
1.09;-0,98;-0,20;-0,37;-3,28;5,02;-0,95;-0,32;0,15;4,42;964,22
1.096;-0,98;-0,30;-0,34;-3,28;5,02;-0,95;-0,32;0,15;4,42;964,22
1.097;-1,15;-0,44;-0,33;-3,28;5,02;-0,95;-0,32;0,15;4,42;964,22
1.097;-1,53;-0,57;-0,35;-3,28;5,02;-0,95;-0,32;0,15;4,42;964,22
1.127;-1,53;-0,57;-0,35;-3,28;5,02;-0,95;-0,32;0,15;4,42;964,24
1.148;-1,53;-0,57;-0,35;-6,83;-0,78;-0,86;-0,32;0,15;4,42;964,24
1.148;-1,53;-0,57;-0,35;-6,83;-0,78;-0,86;0,33;-0,58;5,71;964,24
1.155;-2,14;-0,84;-0,38;-6,83;-0,78;-0,86;0,33;-0,58;5,71;964,24
1.155;-2,65;-1,24;-0,44;-6,83;-0,78;-0,86;0,33;-0,58;5,71;964,24
1.155;-2,65;-1,48;-0,34;-6,83;-0,78;-0,86;0,33;-0,58;5,71;964,24
1.208;-2,65;-1,48;-0,34;-16,61;-12,64;-0,91;0,33;-0,58;5,71;964,24
1.208;-2,65;-1,48;-0,34;-16,61;-12,64;-0,91;0,71;-0,17;5,04;964,24
1.214;-2,46;-1,40;-0,28;-16,61;-12,64;-0,91;0,71;-0,17;5,04;964,24
1.214;-2,25;-1,44;-0,32;-16,61;-12,64;-0,91;0,71;-0,17;5,04;964,24
1.214;-2,01;-1,49;-0,38;-16,61;-12,64;-0,91;0,71;-0,17;5,04;964,24
1.228;-2,01;-1,49;-0,38;-16,61;-12,64;-0,91;0,71;-0,17;5,04;964,30
1.268;-2,01;-1,49;-0,38;-16,61;-12,64;-0,91;1,28;-0,67;2,40;964,30
1.269;-2,01;-1,49;-0,38;-10,16;-14,82;-1,65;1,28;-0,67;2,40;964,30
1.275;-1,61;-1,32;-0,35;-10,16;-14,82;-1,65;1,28;-0,67;2,40;964,30
1.275;-1,18;-1,08;-0,30;-10,16;-14,82;-1,65;1,28;-0,67;2,40;964,30
1.276;-0,84;-0,85;-0,24;-10,16;-14,82;-1,65;1,28;-0,67;2,40;964,30
1.33;-0,84;-0,85;-0,24;-10,16;-14,82;-1,65;1,28;-0,67;2,40;964,23
1.33;-0,84;-0,85;-0,24;1,32;-9,26;-0,38;1,28;-0,67;2,40;964,23
1.331;-0,84;-0,85;-0,24;1,32;-9,26;-0,38;1,70;-0,16;0,40;964,23
1.337;-0,56;-0,62;-0,18;1,32;-9,26;-0,38;1,70;-0,16;0,40;964,23
1.338;-0,30;-0,46;-0,18;1,32;-9,26;-0,38;1,70;-0,16;0,40;964,23
1.338;-0,10;-0,39;-0,18;1,32;-9,26;-0,38;1,70;-0,16;0,40;964,23
1.39;-0,10;-0,39;-0,18;8,65;-4,59;0,09;1,70;-0,16;0,40;964,23
1.391;-0,10;-0,39;-0,18;8,65;-4,59;0,09;2,05;-0,31;-0,15;964,23
1.394;0,07;-0,37;-0,17;8,65;-4,59;0,09;2,05;-0,31;-0,15;964,23
1.395;0,22;-0,34;-0,21;8,65;-4,59;0,09;2,05;-0,31;-0,15;964,23
1.395;0,36;-0,38;-0,18;8,65;-4,59;0,09;2,05;-0,31;-0,15;964,23
1.428;0,36;-0,38;-0,18;8,65;-4,59;0,09;2,05;-0,31;-0,15;964,19
1.451;0,36;-0,38;-0,18;13,12;-3,94;0,25;2,05;-0,31;-0,15;964,19
1.452;0,36;-0,38;-0,18;13,12;-3,94;0,25;1,71;0,58;-1,16;964,19
1.455;0,42;-0,39;-0,08;13,12;-3,94;0,25;1,71;0,58;-1,16;964,19
1.456;0,39;-0,45;-0,03;13,12;-3,94;0,25;1,71;0,58;-1,16;964,19
1.456;0,37;-0,56;-0,04;13,12;-3,94;0,25;1,71;0,58;-1,16;964,19
1.508;0,37;-0,56;-0,04;13,17;-4,63;1,85;1,71;0,58;-1,16;964,19
1.509;0,37;-0,56;-0,04;13,17;-4,63;1,85;0,51;-0,38;-2,36;964,19
1.515;0,33;-0,65;-0,02;13,17;-4,63;1,85;0,51;-0,38;-2,36;964,19
1.516;0,24;-0,71;0,01;13,17;-4,63;1,85;0,51;-0,38;-2,36;964,19
1.517;0,06;-0,85;-0,02;13,17;-4,63;1,85;0,51;-0,38;-2,36;964,19
1.526;0,06;-0,85;-0,02;13,17;-4,63;1,85;0,51;-0,38;-2,36;964,20
1.568;0,06;-0,85;-0,02;9,91;-5,89;1,66;0,51;-0,38;-2,36;964,20
1.569;0,06;-0,85;-0,02;9,91;-5,89;1,66;-1,28;0,41;-3,62;964,20
1.575;-0,18;-0,98;-0,26;9,91;-5,89;1,66;-1,28;0,41;-3,62;964,20
1.576;-0,75;-1,41;-0,12;9,91;-5,89;1,66;-1,28;0,41;-3,62;964,20
1.576;-1,71;-1,61;-0,23;9,91;-5,89;1,66;-1,28;0,41;-3,62;964,20
1.627;-1,71;-1,61;-0,23;9,91;-5,89;1,66;-1,28;0,41;-3,62;964,25
1.627;-1,71;-1,61;-0,23;-8,32;-11,55;0,39;-1,28;0,41;-3,62;964,25
1.627;-1,71;-1,61;-0,23;-8,32;-11,55;0,39;-2,18;-0,55;-3,68;964,25
1.636;-2,60;-1,67;-0,71;-8,32;-11,55;0,39;-2,18;-0,55;-3,68;964,25
1.636;-3,00;-1,45;-0,97;-8,32;-11,55;0,39;-2,18;-0,55;-3,68;964,25
1.636;-2,92;-1,32;-0,73;-8,32;-11,55;0,39;-2,18;-0,55;-3,68;964,25
1.688;-2,92;-1,32;-0,73;-21,03;-7,65;-4,01;-2,18;-0,55;-3,68;964,25
1.69;-2,92;-1,32;-0,73;-21,03;-7,65;-4,01;-2,56;0,18;-2,27;964,25
1.696;-2,73;-0,97;-0,58;-21,03;-7,65;-4,01;-2,56;0,18;-2,27;964,25
1.696;-2,24;-0,62;-0,55;-21,03;-7,65;-4,01;-2,56;0,18;-2,27;964,25
1.696;-1,77;-0,27;-0,39;-21,03;-7,65;-4,01;-2,56;0,18;-2,27;964,25
1.726;-1,77;-0,27;-0,39;-21,03;-7,65;-4,01;-2,56;0,18;-2,27;964,28
1.747;-1,77;-0,27;-0,39;-10,45;3,07;0,08;-2,56;0,18;-2,27;964,28
1.747;-1,77;-0,27;-0,39;-10,45;3,07;0,08;-1,81;-0,05;-1,49;964,28
1.755;-1,39;-0,02;-0,22;-10,45;3,07;0,08;-1,81;-0,05;-1,49;964,28
1.756;-1,08;0,22;-0,05;-10,45;3,07;0,08;-1,81;-0,05;-1,49;964,28
1.756;-0,87;0,30;-0,01;-10,45;3,07;0,08;-1,81;-0,05;-1,49;964,28
1.808;-0,87;0,30;-0,01;-1,82;8,75;4,13;-1,81;-0,05;-1,49;964,28
1.809;-0,87;0,30;-0,01;-1,82;8,75;4,13;-0,80;-1,35;-0,24;964,28
1.814;-0,68;0,35;-0,13;-1,82;8,75;4,13;-0,80;-1,35;-0,24;964,28
1.815;-0,44;0,45;-0,23;-1,82;8,75;4,13;-0,80;-1,35;-0,24;964,28
1.815;-0,14;0,71;-0,24;-1,82;8,75;4,13;-0,80;-1,35;-0,24;964,28
1.826;-0,14;0,71;-0,24;-1,82;8,75;4,13;-0,80;-1,35;-0,24;964,25
1.869;-0,14;0,71;-0,24;5,84;12,31;1,58;-0,80;-1,35;-0,24;964,25
1.869;-0,14;0,71;-0,24;5,84;12,31;1,58;-0,31;-0,61;1,51;964,25
1.875;-0,06;0,79;-0,09;5,84;12,31;1,58;-0,31;-0,61;1,51;964,25
1.876;-0,15;0,70;0,03;5,84;12,31;1,58;-0,31;-0,61;1,51;964,25
1.876;-0,25;0,61;0,05;5,84;12,31;1,58;-0,31;-0,61;1,51;964,25
1.928;-0,25;0,61;0,05;5,84;12,31;1,58;-0,31;-0,61;1,51;964,25
1.928;-0,25;0,61;0,05;5,47;10,49;4,25;-0,31;-0,61;1,51;964,25
1.929;-0,25;0,61;0,05;5,47;10,49;4,25;0,21;-0,31;2,61;964,25
1.934;-0,36;0,54;-0,02;5,47;10,49;4,25;0,21;-0,31;2,61;964,25
1.935;-0,48;0,48;-0,05;5,47;10,49;4,25;0,21;-0,31;2,61;964,25
1.935;-0,74;0,36;-0,11;5,47;10,49;4,25;0,21;-0,31;2,61;964,25
1.989;-0,74;0,36;-0,11;1,40;6,47;2,40;0,21;-0,31;2,61;964,25
1.99;-0,74;0,36;-0,11;1,40;6,47;2,40;0,47;-0,46;3,86;964,25
1.996;-0,89;0,32;-0,08;1,40;6,47;2,40;0,47;-0,46;3,86;964,25
1.996;-1,16;0,25;-0,08;1,40;6,47;2,40;0,47;-0,46;3,86;964,25
1.996;-1,84;0,21;-0,03;1,40;6,47;2,40;0,47;-0,46;3,86;964,25
2.027;-1,84;0,21;-0,03;1,40;6,47;2,40;0,47;-0,46;3,86;964,28
2.048;-1,84;0,21;-0,03;-8,86;2,96;3,16;0,47;-0,46;3,86;964,28
2.049;-1,84;0,21;-0,03;-8,86;2,96;3,16;0,27;0,64;4,49;964,28
2.059;-3,10;-0,18;-0,24;-8,86;2,96;3,16;0,27;0,64;4,49;964,28
2.06;-3,58;-0,33;-0,52;-8,86;2,96;3,16;0,27;0,64;4,49;964,28
2.06;-3,50;-0,63;-0,53;-8,86;2,96;3,16;0,27;0,64;4,49;964,28
2.107;-3,50;-0,63;-0,53;-25,24;-7,56;-1,83;0,27;0,64;4,49;964,28
2.108;-3,50;-0,63;-0,53;-25,24;-7,56;-1,83;1,22;-1,33;3,70;964,28
2.115;-3,16;-0,69;-0,49;-25,24;-7,56;-1,83;1,22;-1,33;3,70;964,28
2.115;-2,60;-0,68;-0,48;-25,24;-7,56;-1,83;1,22;-1,33;3,70;964,28
2.115;-2,12;-0,76;-0,42;-25,24;-7,56;-1,83;1,22;-1,33;3,70;964,28
2.127;-2,12;-0,76;-0,42;-25,24;-7,56;-1,83;1,22;-1,33;3,70;964,36
2.168;-2,12;-0,76;-0,42;-11,82;-10,03;-1,25;1,22;-1,33;3,70;964,36
2.169;-2,12;-0,76;-0,42;-11,82;-10,03;-1,25;1,63;-1,08;1,51;964,36
2.174;-1,64;-0,73;-0,37;-11,82;-10,03;-1,25;1,63;-1,08;1,51;964,36
2.174;-1,17;-0,64;-0,23;-11,82;-10,03;-1,25;1,63;-1,08;1,51;964,36
2.175;-0,69;-0,56;-0,14;-11,82;-10,03;-1,25;1,63;-1,08;1,51;964,36
2.227;-0,69;-0,56;-0,14;-11,82;-10,03;-1,25;1,63;-1,08;1,51;964,30
2.227;-0,69;-0,56;-0,14;2,21;-8,21;1,35;1,63;-1,08;1,51;964,30
2.228;-0,69;-0,56;-0,14;2,21;-8,21;1,35;2,21;-0,65;0,21;964,30
2.236;-0,25;-0,51;-0,11;2,21;-8,21;1,35;2,21;-0,65;0,21;964,30
2.237;0,12;-0,43;-0,10;2,21;-8,21;1,35;2,21;-0,65;0,21;964,30
2.237;0,37;-0,44;-0,14;2,21;-8,21;1,35;2,21;-0,65;0,21;964,30
2.289;0,37;-0,44;-0,14;12,71;-6,69;1,55;2,21;-0,65;0,21;964,30
2.29;0,37;-0,44;-0,14;12,71;-6,69;1,55;1,78;0,08;-0,69;964,30
2.293;0,54;-0,41;-0,14;12,71;-6,69;1,55;1,78;0,08;-0,69;964,30
2.294;0,62;-0,46;-0,14;12,71;-6,69;1,55;1,78;0,08;-0,69;964,30
2.294;0,53;-0,47;-0,17;12,71;-6,69;1,55;1,78;0,08;-0,69;964,30
2.327;0,53;-0,47;-0,17;12,71;-6,69;1,55;1,78;0,08;-0,69;964,23
2.347;0,53;-0,47;-0,17;14,40;-6,03;1,45;1,78;0,08;-0,69;964,23
2.348;0,53;-0,47;-0,17;14,40;-6,03;1,45;0,61;0,59;-1,96;964,23
2.36;0,42;-0,56;-0,17;14,40;-6,03;1,45;0,61;0,59;-1,96;964,23
2.361;0,23;-0,75;-0,21;14,40;-6,03;1,45;0,61;0,59;-1,96;964,23
2.362;-0,02;-0,85;-0,28;14,40;-6,03;1,45;0,61;0,59;-1,96;964,23
2.408;-0,02;-0,85;-0,28;8,96;-8,37;0,82;0,61;0,59;-1,96;964,23
2.409;-0,02;-0,85;-0,28;8,96;-8,37;0,82;-0,42;1,27;-3,23;964,23
2.413;-0,40;-1,03;-0,24;8,96;-8,37;0,82;-0,42;1,27;-3,23;964,23
2.414;-0,95;-1,16;-0,36;8,96;-8,37;0,82;-0,42;1,27;-3,23;964,23
2.414;-1,71;-1,27;-0,57;8,96;-8,37;0,82;-0,42;1,27;-3,23;964,23
2.426;-1,71;-1,27;-0,57;8,96;-8,37;0,82;-0,42;1,27;-3,23;964,24
2.467;-1,71;-1,27;-0,57;-7,99;-10,56;-1,67;-0,42;1,27;-3,23;964,24
2.468;-1,71;-1,27;-0,57;-7,99;-10,56;-1,67;-1,23;-0,61;-4,49;964,24
2.476;-2,32;-1,21;-0,75;-7,99;-10,56;-1,67;-1,23;-0,61;-4,49;964,24
2.477;-2,62;-1,04;-0,88;-7,99;-10,56;-1,67;-1,23;-0,61;-4,49;964,24
2.477;-2,66;-0,89;-0,85;-7,99;-10,56;-1,67;-1,23;-0,61;-4,49;964,24
2.527;-2,66;-0,89;-0,85;-7,99;-10,56;-1,67;-1,23;-0,61;-4,49;964,34
2.527;-2,66;-0,89;-0,85;-17,95;-5,13;-4,17;-1,23;-0,61;-4,49;964,34
2.527;-2,66;-0,89;-0,85;-17,95;-5,13;-4,17;-1,44;0,41;-3,30;964,34
2.534;-2,49;-0,67;-0,75;-17,95;-5,13;-4,17;-1,44;0,41;-3,30;964,34
2.535;-2,21;-0,40;-0,68;-17,95;-5,13;-4,17;-1,44;0,41;-3,30;964,34
2.535;-1,93;-0,13;-0,56;-17,95;-5,13;-4,17;-1,44;0,41;-3,30;964,34
2.589;-1,93;-0,13;-0,56;-11,43;3,32;-1,13;-1,44;0,41;-3,30;964,34
2.59;-1,93;-0,13;-0,56;-11,43;3,32;-1,13;-0,88;-0,81;-1,99;964,34
2.594;-1,60;0,09;-0,42;-11,43;3,32;-1,13;-0,88;-0,81;-1,99;964,34
2.595;-1,27;0,22;-0,28;-11,43;3,32;-1,13;-0,88;-0,81;-1,99;964,34
2.595;-0,94;0,33;-0,29;-11,43;3,32;-1,13;-0,88;-0,81;-1,99;964,34
2.627;-0,94;0,33;-0,29;-11,43;3,32;-1,13;-0,88;-0,81;-1,99;964,31
2.647;-0,94;0,33;-0,29;-1,99;8,11;1,71;-0,88;-0,81;-1,99;964,31
2.647;-0,94;0,33;-0,29;-1,99;8,11;1,71;-0,63;0,82;-0,12;964,31
2.66;-0,71;0,46;-0,39;-1,99;8,11;1,71;-0,63;0,82;-0,12;964,31
2.66;-0,48;0,63;-0,42;-1,99;8,11;1,71;-0,63;0,82;-0,12;964,31
2.661;-0,33;0,75;-0,29;-1,99;8,11;1,71;-0,63;0,82;-0,12;964,31
2.707;-0,33;0,75;-0,29;3,84;11,95;2,07;-0,63;0,82;-0,12;964,31
2.709;-0,33;0,75;-0,29;3,84;11,95;2,07;0,39;1,10;1,33;964,31
2.717;-0,26;0,83;-0,10;3,84;11,95;2,07;0,39;1,10;1,33;964,31
2.717;-0,35;0,84;0,07;3,84;11,95;2,07;0,39;1,10;1,33;964,31
2.718;-0,46;0,74;0,11;3,84;11,95;2,07;0,39;1,10;1,33;964,31
2.728;-0,46;0,74;0,11;3,84;11,95;2,07;0,39;1,10;1,33;964,29
2.767;-0,46;0,74;0,11;2,68;11,11;6,49;0,39;1,10;1,33;964,29
2.768;-0,46;0,74;0,11;2,68;11,11;6,49;1,50;1,61;3,20;964,29
2.776;-0,70;0,62;0,09;2,68;11,11;6,49;1,50;1,61;3,20;964,29
2.776;-0,93;0,48;0,21;2,68;11,11;6,49;1,50;1,61;3,20;964,29
2.776;-1,26;0,35;0,33;2,68;11,11;6,49;1,50;1,61;3,20;964,29
2.829;-1,26;0,35;0,33;2,68;11,11;6,49;1,50;1,61;3,20;964,30
2.83;-1,26;0,35;0,33;-4,90;6,43;8,90;1,50;1,61;3,20;964,30
2.83;-1,26;0,35;0,33;-4,90;6,43;8,90;2,32;2,74;3,83;964,30
2.834;-1,92;0,29;0,40;-4,90;6,43;8,90;2,32;2,74;3,83;964,30
2.835;-2,87;-0,02;0,36;-4,90;6,43;8,90;2,32;2,74;3,83;964,30
2.836;-3,48;-0,67;0,09;-4,90;6,43;8,90;2,32;2,74;3,83;964,30
2.888;-3,48;-0,67;0,09;-26,73;-4,68;7,09;2,32;2,74;3,83;964,30
2.889;-3,48;-0,67;0,09;-26,73;-4,68;7,09;2,27;-0,23;4,90;964,30
2.894;-3,66;-1,00;-0,09;-26,73;-4,68;7,09;2,27;-0,23;4,90;964,30
2.894;-3,28;-1,01;-0,01;-26,73;-4,68;7,09;2,27;-0,23;4,90;964,30
2.895;-2,76;-0,99;-0,00;-26,73;-4,68;7,09;2,27;-0,23;4,90;964,30
2.928;-2,76;-0,99;-0,00;-26,73;-4,68;7,09;2,27;-0,23;4,90;964,36
2.947;-2,76;-0,99;-0,00;-19,19;-9,07;5,80;2,27;-0,23;4,90;964,36
2.95;-2,76;-0,99;-0,00;-19,19;-9,07;5,80;1,62;-0,97;3,62;964,36
2.955;-2,25;-1,03;-0,08;-19,19;-9,07;5,80;1,62;-0,97;3,62;964,36
2.955;-1,73;-0,94;-0,03;-19,19;-9,07;5,80;1,62;-0,97;3,62;964,36
2.955;-1,23;-0,82;0,04;-19,19;-9,07;5,80;1,62;-0,97;3,62;964,36
3.008;-1,23;-0,82;0,04;-3,79;-8,44;5,59;1,62;-0,97;3,62;964,36
3.009;-1,23;-0,82;0,04;-3,79;-8,44;5,59;1,65;-1,30;2,72;964,36
3.015;-0,80;-0,72;0,06;-3,79;-8,44;5,59;1,65;-1,30;2,72;964,36
3.016;-0,48;-0,73;0,09;-3,79;-8,44;5,59;1,65;-1,30;2,72;964,36
3.016;-0,12;-0,78;0,01;-3,79;-8,44;5,59;1,65;-1,30;2,72;964,36
3.026;-0,12;-0,78;0,01;-3,79;-8,44;5,59;1,65;-1,30;2,72;964,29
3.066;-0,12;-0,78;0,01;7,19;-8,88;5,14;1,65;-1,30;2,72;964,29
3.067;-0,12;-0,78;0,01;7,19;-8,88;5,14;1,62;0,52;2,64;964,29
3.077;0,16;-0,82;0,00;7,19;-8,88;5,14;1,62;0,52;2,64;964,29
3.077;0,36;-0,92;0,02;7,19;-8,88;5,14;1,62;0,52;2,64;964,29
3.077;0,35;-0,97;-0,05;7,19;-8,88;5,14;1,62;0,52;2,64;964,29
3.127;0,35;-0,97;-0,05;7,19;-8,88;5,14;1,62;0,52;2,64;964,18
3.128;0,35;-0,97;-0,05;11,46;-11,00;4,94;1,62;0,52;2,64;964,18
3.129;0,35;-0,97;-0,05;11,46;-11,00;4,94;1,22;0,07;0,14;964,18
3.134;0,24;-1,08;-0,10;11,46;-11,00;4,94;1,22;0,07;0,14;964,18
3.134;0,14;-1,12;-0,11;11,46;-11,00;4,94;1,22;0,07;0,14;964,18
3.135;0,09;-1,06;-0,20;11,46;-11,00;4,94;1,22;0,07;0,14;964,18
3.187;0,09;-1,06;-0,20;8,88;-11,37;3,64;1,22;0,07;0,14;964,18
3.188;0,09;-1,06;-0,20;8,88;-11,37;3,64;0,70;-0,03;-1,60;964,18
3.194;-0,14;-0,95;-0,30;8,88;-11,37;3,64;0,70;-0,03;-1,60;964,18
3.195;-0,53;-0,74;-0,36;8,88;-11,37;3,64;0,70;-0,03;-1,60;964,18
3.196;-1,15;-0,59;-0,33;8,88;-11,37;3,64;0,70;-0,03;-1,60;964,18
3.226;-1,15;-0,59;-0,33;8,88;-11,37;3,64;0,70;-0,03;-1,60;964,19
3.246;-1,15;-0,59;-0,33;-3,05;-5,05;2,07;0,70;-0,03;-1,60;964,19
3.247;-1,15;-0,59;-0,33;-3,05;-5,05;2,07;0,36;-0,41;-4,05;964,19
3.254;-1,64;-0,55;-0,48;-3,05;-5,05;2,07;0,36;-0,41;-4,05;964,19
3.254;-1,99;-0,41;-0,75;-3,05;-5,05;2,07;0,36;-0,41;-4,05;964,19
3.255;-2,43;-0,37;-0,79;-3,05;-5,05;2,07;0,36;-0,41;-4,05;964,19
3.308;-2,43;-0,37;-0,79;-16,29;-0,92;-2,07;0,36;-0,41;-4,05;964,19
3.309;-2,43;-0,37;-0,79;-16,29;-0,92;-2,07;-0,28;0,99;-4,09;964,19
3.316;-2,59;-0,35;-0,71;-16,29;-0,92;-2,07;-0,28;0,99;-4,09;964,19
3.316;-2,54;-0,28;-0,79;-16,29;-0,92;-2,07;-0,28;0,99;-4,09;964,19
3.317;-2,37;-0,28;-0,83;-16,29;-0,92;-2,07;-0,28;0,99;-4,09;964,19
3.338;-2,37;-0,28;-0,83;-16,29;-0,92;-2,07;-0,28;0,99;-4,09;964,26
3.367;-2,37;-0,28;-0,83;-16,52;1,53;-2,34;-0,28;0,99;-4,09;964,26
3.368;-2,37;-0,28;-0,83;-16,52;1,53;-2,34;-0,79;-0,20;-3,70;964,26
3.383;-2,01;-0,27;-0,67;-16,52;1,53;-2,34;-0,79;-0,20;-3,70;964,26
3.384;-1,54;-0,18;-0,60;-16,52;1,53;-2,34;-0,79;-0,20;-3,70;964,26
3.384;-1,35;-0,05;-0,53;-16,52;1,53;-2,34;-0,79;-0,20;-3,70;964,26
3.428;-1,35;-0,05;-0,53;-16,52;1,53;-2,34;-0,79;-0,20;-3,70;964,26
3.429;-1,35;-0,05;-0,53;-7,18;4,50;0,67;-0,79;-0,20;-3,70;964,26
3.429;-1,35;-0,05;-0,53;-7,18;4,50;0,67;-0,92;-1,02;-1,36;964,26
3.433;-1,24;0,08;-0,44;-7,18;4,50;0,67;-0,92;-1,02;-1,36;964,26
3.434;-1,05;0,26;-0,32;-7,18;4,50;0,67;-0,92;-1,02;-1,36;964,26
3.434;-0,94;0,50;-0,18;-7,18;4,50;0,67;-0,92;-1,02;-1,36;964,26
3.488;-0,94;0,50;-0,18;-3,37;9,77;4,38;-0,92;-1,02;-1,36;964,26
3.489;-0,94;0,50;-0,18;-3,37;9,77;4,38;0,07;2,08;0,94;964,26
3.496;-0,69;0,76;0,07;-3,37;9,77;4,38;0,07;2,08;0,94;964,26
3.496;-0,44;1,04;0,33;-3,37;9,77;4,38;0,07;2,08;0,94;964,26
3.496;-0,33;1,11;0,45;-3,37;9,77;4,38;0,07;2,08;0,94;964,26
3.526;-0,33;1,11;0,45;-3,37;9,77;4,38;0,07;2,08;0,94;964,28
3.548;-0,33;1,11;0,45;2,77;15,47;10,60;0,07;2,08;0,94;964,28
3.548;-0,33;1,11;0,45;2,77;15,47;10,60;2,41;-0,17;2,36;964,28
3.555;-0,22;1,00;0,48;2,77;15,47;10,60;2,41;-0,17;2,36;964,28
3.555;-0,34;0,77;0,48;2,77;15,47;10,60;2,41;-0,17;2,36;964,28
3.556;-0,59;0,41;0,43;2,77;15,47;10,60;2,41;-0,17;2,36;964,28
3.607;-0,59;0,41;0,43;0,96;8,65;9,66;2,41;-0,17;2,36;964,28
3.608;-0,59;0,41;0,43;0,96;8,65;9,66;3,76;1,30;3,15;964,28
3.613;-1,01;0,25;0,43;0,96;8,65;9,66;3,76;1,30;3,15;964,28
3.614;-1,70;0,12;0,50;0,96;8,65;9,66;3,76;1,30;3,15;964,28
3.614;-2,55;-0,35;0,46;0,96;8,65;9,66;3,76;1,30;3,15;964,28
3.627;-2,55;-0,35;0,46;0,96;8,65;9,66;3,76;1,30;3,15;964,30
3.669;-2,55;-0,35;0,46;-17,74;0,94;9,46;3,76;1,30;3,15;964,30
3.669;-2,55;-0,35;0,46;-17,74;0,94;9,46;3,83;1,02;4,38;964,30
3.673;-3,24;-0,82;0,20;-17,74;0,94;9,46;3,83;1,02;4,38;964,30
3.674;-3,50;-0,92;0,04;-17,74;0,94;9,46;3,83;1,02;4,38;964,30
3.674;-3,32;-0,86;0,18;-17,74;0,94;9,46;3,83;1,02;4,38;964,30
3.727;-3,32;-0,86;0,18;-17,74;0,94;9,46;3,83;1,02;4,38;964,35
3.728;-3,32;-0,86;0,18;-24,56;-5,12;6,47;3,83;1,02;4,38;964,35
3.729;-3,32;-0,86;0,18;-24,56;-5,12;6,47;2,66;0,74;4,22;964,35
3.734;-3,08;-0,84;0,16;-24,56;-5,12;6,47;2,66;0,74;4,22;964,35
3.734;-2,74;-0,99;0,09;-24,56;-5,12;6,47;2,66;0,74;4,22;964,35
3.734;-2,32;-0,95;0,08;-24,56;-5,12;6,47;2,66;0,74;4,22;964,35
3.787;-2,32;-0,95;0,08;-14,21;-7,45;5,24;2,66;0,74;4,22;964,35
3.788;-2,32;-0,95;0,08;-14,21;-7,45;5,24;2,54;0,35;4,03;964,35
3.794;-1,77;-0,81;0,20;-14,21;-7,45;5,24;2,54;0,35;4,03;964,35
3.795;-1,27;-0,68;0,28;-14,21;-7,45;5,24;2,54;0,35;4,03;964,35
3.796;-0,85;-0,68;0,27;-14,21;-7,45;5,24;2,54;0,35;4,03;964,35
3.827;-0,85;-0,68;0,27;-14,21;-7,45;5,24;2,54;0,35;4,03;964,29
3.847;-0,85;-0,68;0,27;0,34;-5,98;7,17;2,54;0,35;4,03;964,29
3.848;-0,85;-0,68;0,27;0,34;-5,98;7,17;2,08;0,60;3,25;964,29
3.853;-0,46;-0,68;0,19;0,34;-5,98;7,17;2,08;0,60;3,25;964,29
3.854;-0,15;-0,67;0,20;0,34;-5,98;7,17;2,08;0,60;3,25;964,29
3.854;0,07;-0,72;0,28;0,34;-5,98;7,17;2,08;0,60;3,25;964,29
3.909;0,07;-0,72;0,28;9,14;-7,35;7,65;2,08;0,60;3,25;964,29
3.91;0,07;-0,72;0,28;9,14;-7,35;7,65;1,63;0,86;2,14;964,29
3.915;0,17;-0,77;0,31;9,14;-7,35;7,65;1,63;0,86;2,14;964,29
3.916;0,17;-0,80;0,29;9,14;-7,35;7,65;1,63;0,86;2,14;964,29
3.916;0,18;-0,90;0,29;9,14;-7,35;7,65;1,63;0,86;2,14;964,29
3.929;0,18;-0,90;0,29;9,14;-7,35;7,65;1,63;0,86;2,14;964,19
3.967;0,18;-0,90;0,29;10,00;-9,38;8,10;1,63;0,86;2,14;964,19
3.968;0,18;-0,90;0,29;10,00;-9,38;8,10;1,27;0,54;0,42;964,19
3.976;0,18;-0,89;0,20;10,00;-9,38;8,10;1,27;0,54;0,42;964,19
3.977;0,02;-0,93;0,16;10,00;-9,38;8,10;1,27;0,54;0,42;964,19
3.977;-0,32;-0,94;0,08;10,00;-9,38;8,10;1,27;0,54;0,42;964,19
4.028;-0,32;-0,94;0,08;10,00;-9,38;8,10;1,27;0,54;0,42;964,19
4.03;-0,32;-0,94;0,08;5,02;-8,90;6,19;1,27;0,54;0,42;964,19
4.03;-0,32;-0,94;0,08;5,02;-8,90;6,19;1,22;-0,05;-2,31;964,19
4.034;-0,71;-0,89;-0,07;5,02;-8,90;6,19;1,22;-0,05;-2,31;964,19
4.035;-1,11;-0,89;-0,20;5,02;-8,90;6,19;1,22;-0,05;-2,31;964,19
4.035;-1,52;-0,97;-0,36;5,02;-8,90;6,19;1,22;-0,05;-2,31;964,19
4.087;-1,52;-0,97;-0,36;-6,90;-7,10;1,65;1,22;-0,05;-2,31;964,19
4.088;-1,52;-0,97;-0,36;-6,90;-7,10;1,65;1,28;-0,22;-4,81;964,19
4.096;-1,91;-1,02;-0,67;-6,90;-7,10;1,65;1,28;-0,22;-4,81;964,19
4.098;-2,23;-1,01;-0,87;-6,90;-7,10;1,65;1,28;-0,22;-4,81;964,19
4.098;-2,28;-1,07;-0,93;-6,90;-7,10;1,65;1,28;-0,22;-4,81;964,19
4.129;-2,28;-1,07;-0,93;-6,90;-7,10;1,65;1,28;-0,22;-4,81;964,27
4.146;-2,28;-1,07;-0,93;-15,80;-5,45;-3,78;1,28;-0,22;-4,81;964,27
4.147;-2,28;-1,07;-0,93;-15,80;-5,45;-3,78;0,41;0,29;-5,69;964,27
4.155;-2,31;-1,20;-1,09;-15,80;-5,45;-3,78;0,41;0,29;-5,69;964,27
4.155;-2,60;-1,16;-1,31;-15,80;-5,45;-3,78;0,41;0,29;-5,69;964,27
4.155;-2,46;-0,92;-1,33;-15,80;-5,45;-3,78;0,41;0,29;-5,69;964,27
4.208;-2,46;-0,92;-1,33;-19,45;-2,25;-7,66;0,41;0,29;-5,69;964,27
4.209;-2,46;-0,92;-1,33;-19,45;-2,25;-7,66;-0,80;1,37;-4,29;964,27
4.219;-2,06;-0,54;-0,97;-19,45;-2,25;-7,66;-0,80;1,37;-4,29;964,27
4.219;-1,66;0,01;-0,61;-19,45;-2,25;-7,66;-0,80;1,37;-4,29;964,27
4.219;-1,26;0,67;-0,43;-19,45;-2,25;-7,66;-0,80;1,37;-4,29;964,27
4.227;-1,26;0,67;-0,43;-19,45;-2,25;-7,66;-0,80;1,37;-4,29;964,31
4.267;-1,26;0,67;-0,43;-9,42;13,89;1,58;-0,80;1,37;-4,29;964,31
4.267;-1,26;0,67;-0,43;-9,42;13,89;1,58;0,10;-0,74;-1,47;964,31
4.274;-1,21;1,04;-0,17;-9,42;13,89;1,58;0,10;-0,74;-1,47;964,31
4.274;-1,21;1,36;0,05;-9,42;13,89;1,58;0,10;-0,74;-1,47;964,31
4.275;-1,13;1,50;0,24;-9,42;13,89;1,58;0,10;-0,74;-1,47;964,31
4.329;-1,13;1,50;0,24;-9,42;13,89;1,58;0,10;-0,74;-1,47;964,33
4.33;-1,13;1,50;0,24;-7,89;22,22;7,76;0,10;-0,74;-1,47;964,33
4.33;-1,13;1,50;0,24;-7,89;22,22;7,76;1,48;0,14;2,53;964,33
4.334;-0,99;1,51;0,25;-7,89;22,22;7,76;1,48;0,14;2,53;964,33
4.335;-0,77;1,41;0,14;-7,89;22,22;7,76;1,48;0,14;2,53;964,33
4.335;-0,64;1,14;0,07;-7,89;22,22;7,76;1,48;0,14;2,53;964,33
4.387;-0,64;1,14;0,07;-1,47;18,39;5,23;1,48;0,14;2,53;964,33
4.388;-0,64;1,14;0,07;-1,47;18,39;5,23;2,17;-0,02;4,57;964,33
4.396;-0,64;0,77;0,04;-1,47;18,39;5,23;2,17;-0,02;4,57;964,33
4.397;-0,82;0,39;0,01;-1,47;18,39;5,23;2,17;-0,02;4,57;964,33
4.397;-1,14;0,11;0,03;-1,47;18,39;5,23;2,17;-0,02;4,57;964,33
4.426;-1,14;0,11;0,03;-1,47;18,39;5,23;2,17;-0,02;4,57;964,28
4.447;-1,14;0,11;0,03;-4,56;7,29;4,11;2,17;-0,02;4,57;964,28
4.447;-1,14;0,11;0,03;-4,56;7,29;4,11;2,50;1,36;5,10;964,28
4.455;-1,68;-0,06;0,24;-4,56;7,29;4,11;2,50;1,36;5,10;964,28
4.455;-2,39;-0,20;0,31;-4,56;7,29;4,11;2,50;1,36;5,10;964,28
4.456;-3,10;-0,49;0,28;-4,56;7,29;4,11;2,50;1,36;5,10;964,28
4.508;-3,10;-0,49;0,28;-22,36;-0,50;6,48;2,50;1,36;5,10;964,28
4.509;-3,10;-0,49;0,28;-22,36;-0,50;6,48;1,75;-0,21;5,19;964,28
4.515;-3,69;-0,80;0,18;-22,36;-0,50;6,48;1,75;-0,21;5,19;964,28
4.515;-3,78;-1,18;0,06;-22,36;-0,50;6,48;1,75;-0,21;5,19;964,28
4.516;-3,41;-1,19;0,16;-22,36;-0,50;6,48;1,75;-0,21;5,19;964,28
4.527;-3,41;-1,19;0,16;-22,36;-0,50;6,48;1,75;-0,21;5,19;964,37
4.569;-3,41;-1,19;0,16;-24,34;-9,62;4,59;1,75;-0,21;5,19;964,37
4.57;-3,41;-1,19;0,16;-24,34;-9,62;4,59;1,57;-0,41;4,62;964,37
4.574;-2,85;-0,94;0,26;-24,34;-9,62;4,59;1,57;-0,41;4,62;964,37
4.574;-2,28;-0,75;0,33;-24,34;-9,62;4,59;1,57;-0,41;4,62;964,37
4.575;-1,77;-0,87;0,25;-24,34;-9,62;4,59;1,57;-0,41;4,62;964,37
4.629;-1,77;-0,87;0,25;-24,34;-9,62;4,59;1,57;-0,41;4,62;964,32
4.63;-1,77;-0,87;0,25;-7,89;-8,30;4,96;1,57;-0,41;4,62;964,32
4.63;-1,77;-0,87;0,25;-7,89;-8,30;4,96;1,61;-1,15;2,70;964,32
4.633;-1,16;-0,84;0,02;-7,89;-8,30;4,96;1,61;-1,15;2,70;964,32
4.634;-0,55;-0,74;-0,04;-7,89;-8,30;4,96;1,61;-1,15;2,70;964,32
4.634;-0,06;-0,64;-0,15;-7,89;-8,30;4,96;1,61;-1,15;2,70;964,32
4.687;-0,06;-0,64;-0,15;8,99;-7,16;0,66;1,61;-1,15;2,70;964,32
4.688;-0,06;-0,64;-0,15;8,99;-7,16;0,66;1,10;-0,20;1,49;964,32
4.694;0,25;-0,69;-0,12;8,99;-7,16;0,66;1,10;-0,20;1,49;964,32
4.694;0,42;-0,67;-0,13;8,99;-7,16;0,66;1,10;-0,20;1,49;964,32
4.694;0,55;-0,73;-0,18;8,99;-7,16;0,66;1,10;-0,20;1,49;964,32
4.727;0,55;-0,73;-0,18;8,99;-7,16;0,66;1,10;-0,20;1,49;964,20
4.747;0,55;-0,73;-0,18;14,95;-8,13;0,38;1,10;-0,20;1,49;964,20
4.748;0,55;-0,73;-0,18;14,95;-8,13;0,38;0,43;0,10;-1,15;964,20
4.754;0,55;-0,83;-0,21;14,95;-8,13;0,38;0,43;0,10;-1,15;964,20
4.755;0,48;-0,97;-0,17;14,95;-8,13;0,38;0,43;0,10;-1,15;964,20
4.755;0,24;-1,10;-0,24;14,95;-8,13;0,38;0,43;0,10;-1,15;964,20
4.807;0,24;-1,10;-0,24;14,95;-8,13;0,38;-0,39;-0,11;-2,75;964,20
4.808;0,24;-1,10;-0,24;11,94;-10,63;-0,21;-0,39;-0,11;-2,75;964,20
4.814;-0,10;-1,11;-0,34;11,94;-10,63;-0,21;-0,39;-0,11;-2,75;964,20
4.815;-0,52;-1,16;-0,26;11,94;-10,63;-0,21;-0,39;-0,11;-2,75;964,20
4.815;-0,89;-1,16;-0,26;11,94;-10,63;-0,21;-0,39;-0,11;-2,75;964,20
4.827;-0,89;-1,16;-0,26;11,94;-10,63;-0,21;-0,39;-0,11;-2,75;964,20
4.867;-0,89;-1,16;-0,26;0,60;-9,23;-0,23;-0,39;-0,11;-2,75;964,20
4.867;-0,89;-1,16;-0,26;0,60;-9,23;-0,23;-0,68;0,83;-4,22;964,20
4.875;-1,38;-1,25;-0,28;0,60;-9,23;-0,23;-0,68;0,83;-4,22;964,20
4.875;-2,21;-1,37;-0,50;0,60;-9,23;-0,23;-0,68;0,83;-4,22;964,20
4.875;-2,82;-1,21;-0,84;0,60;-9,23;-0,23;-0,68;0,83;-4,22;964,20
4.929;-2,82;-1,21;-0,84;0,60;-9,23;-0,23;-0,68;0,83;-4,22;964,28
4.93;-2,82;-1,21;-0,84;-19,22;-7,56;-5,68;-0,68;0,83;-4,22;964,28
4.931;-2,82;-1,21;-0,84;-19,22;-7,56;-5,68;-1,05;0,37;-3,76;964,28
4.934;-3,08;-1,03;-0,79;-19,22;-7,56;-5,68;-1,05;0,37;-3,76;964,28
4.934;-2,97;-0,89;-0,58;-19,22;-7,56;-5,68;-1,05;0,37;-3,76;964,28
4.934;-2,63;-0,62;-0,47;-19,22;-7,56;-5,68;-1,05;0,37;-3,76;964,28
4.987;-2,63;-0,62;-0,47;-18,41;-0,48;-1,55;-1,05;0,37;-3,76;964,28
4.988;-2,63;-0,62;-0,47;-18,41;-0,48;-1,55;-1,32;-0,26;-2,96;964,28
4.994;-2,14;-0,31;-0,40;-18,41;-0,48;-1,55;-1,32;-0,26;-2,96;964,28
4.994;-1,67;-0,08;-0,23;-18,41;-0,48;-1,55;-1,32;-0,26;-2,96;964,28
4.994;-1,23;0,08;-0,11;-18,41;-0,48;-1,55;-1,32;-0,26;-2,96;964,28
5.029;-1,23;0,08;-0,11;-18,41;-0,48;-1,55;-1,32;-0,26;-2,96;964,27
5.046;-1,23;0,08;-0,11;-18,41;-0,48;-1,55;-1,34;-1,12;-2,46;964,27
5.047;-1,23;0,08;-0,11;-5,54;7,33;2,15;-1,34;-1,12;-2,46;964,27
5.054;-0,89;0,20;-0,06;-5,54;7,33;2,15;-1,34;-1,12;-2,46;964,27
5.055;-0,58;0,24;0,02;-5,54;7,33;2,15;-1,34;-1,12;-2,46;964,27
5.055;-0,33;0,26;0,08;-5,54;7,33;2,15;-1,34;-1,12;-2,46;964,27
5.108;-0,33;0,26;0,08;2,73;9,65;4,08;-1,34;-1,12;-2,46;964,27
5.109;-0,33;0,26;0,08;2,73;9,65;4,08;-0,72;-1,19;-1,20;964,27
5.116;-0,15;0,37;0,14;2,73;9,65;4,08;-0,72;-1,19;-1,20;964,27
5.117;-0,07;0,60;0,11;2,73;9,65;4,08;-0,72;-1,19;-1,20;964,27
5.117;-0,21;0,78;0,02;2,73;9,65;4,08;-0,72;-1,19;-1,20;964,27
5.127;-0,21;0,78;0,02;2,73;9,65;4,08;-0,72;-1,19;-1,20;964,21
5.168;-0,21;0,78;0,02;3,87;14,71;3,43;-0,72;-1,19;-1,20;964,21
5.169;-0,21;0,78;0,02;3,87;14,71;3,43;-0,29;-0,46;0,71;964,21
5.175;-0,38;0,87;-0,01;3,87;14,71;3,43;-0,29;-0,46;0,71;964,21
5.175;-0,55;0,80;-0,01;3,87;14,71;3,43;-0,29;-0,46;0,71;964,21
5.175;-0,51;0,75;-0,01;3,87;14,71;3,43;-0,29;-0,46;0,71;964,21
5.228;-0,51;0,75;-0,01;3,87;14,71;3,43;-0,29;-0,46;0,71;964,22
5.229;-0,51;0,75;-0,01;1,68;13,80;3,00;-0,29;-0,46;0,71;964,22
5.23;-0,51;0,75;-0,01;1,68;13,80;3,00;0,52;-0,46;2,76;964,22
5.233;-0,88;0,59;-0,10;1,68;13,80;3,00;0,52;-0,46;2,76;964,22
5.234;-0,90;0,43;-0,20;1,68;13,80;3,00;0,52;-0,46;2,76;964,22
5.234;-1,15;0,28;-0,26;1,68;13,80;3,00;0,52;-0,46;2,76;964,22
5.288;-1,15;0,28;-0,26;-3,34;7,68;0,42;0,52;-0,46;2,76;964,22
5.289;-1,15;0,28;-0,26;-3,34;7,68;0,42;0,96;3,39;4,78;964,22
5.293;-1,59;0,12;-0,20;-3,34;7,68;0,42;0,96;3,39;4,78;964,22
5.294;-2,62;-0,22;-0,30;-3,34;7,68;0,42;0,96;3,39;4,78;964,22
5.294;-3,23;-0,44;-0,82;-3,34;7,68;0,42;0,96;3,39;4,78;964,22
5.328;-3,23;-0,44;-0,82;-3,34;7,68;0,42;0,96;3,39;4,78;964,26
5.347;-3,23;-0,44;-0,82;-22,94;-1,79;-4,22;0,96;3,39;4,78;964,26
5.348;-3,23;-0,44;-0,82;-22,94;-1,79;-4,22;1,22;-0,06;5,30;964,26
5.355;-3,36;-0,75;-0,94;-22,94;-1,79;-4,22;1,22;-0,06;5,30;964,26
5.356;-3,11;-0,95;-0,75;-22,94;-1,79;-4,22;1,22;-0,06;5,30;964,26
5.356;-2,69;-1,02;-0,59;-22,94;-1,79;-4,22;1,22;-0,06;5,30;964,26
5.408;-2,69;-1,02;-0,59;-17,45;-9,55;-1,63;1,22;-0,06;5,30;964,26
5.408;-2,69;-1,02;-0,59;-17,45;-9,55;-1,63;0,92;0,75;2,92;964,26
5.415;-2,29;-1,04;-0,58;-17,45;-9,55;-1,63;0,92;0,75;2,92;964,26
5.415;-1,76;-0,94;-0,70;-17,45;-9,55;-1,63;0,92;0,75;2,92;964,26
5.416;-1,31;-0,88;-0,48;-17,45;-9,55;-1,63;0,92;0,75;2,92;964,26
5.426;-1,31;-0,88;-0,48;-17,45;-9,55;-1,63;0,92;0,75;2,92;964,31
5.468;-1,31;-0,88;-0,48;-3,87;-8,96;-0,72;0,92;0,75;2,92;964,31
5.468;-1,31;-0,88;-0,48;-3,87;-8,96;-0,72;1,49;-0,97;1,08;964,31
5.475;-0,89;-0,75;-0,21;-3,87;-8,96;-0,72;1,49;-0,97;1,08;964,31
5.475;-0,47;-0,62;-0,07;-3,87;-8,96;-0,72;1,49;-0,97;1,08;964,31
5.475;-0,15;-0,53;-0,08;-3,87;-8,96;-0,72;1,49;-0,97;1,08;964,31
5.529;-0,15;-0,53;-0,08;-3,87;-8,96;-0,72;1,49;-0,97;1,08;964,22
5.531;-0,15;-0,53;-0,08;7,62;-5,69;2,81;1,49;-0,97;1,08;964,22
5.531;-0,15;-0,53;-0,08;7,62;-5,69;2,81;1,40;-0,68;0,71;964,22
5.536;0,09;-0,49;-0,11;7,62;-5,69;2,81;1,40;-0,68;0,71;964,22
5.537;0,31;-0,48;-0,09;7,62;-5,69;2,81;1,40;-0,68;0,71;964,22
5.537;0,46;-0,48;-0,05;7,62;-5,69;2,81;1,40;-0,68;0,71;964,22
5.587;0,46;-0,48;-0,05;13,75;-5,08;2,80;1,40;-0,68;0,71;964,22
5.588;0,46;-0,48;-0,05;13,75;-5,08;2,80;0,69;-0,79;-0,55;964,22
5.594;0,55;-0,46;-0,06;13,75;-5,08;2,80;0,69;-0,79;-0,55;964,22
5.595;0,57;-0,42;-0,09;13,75;-5,08;2,80;0,69;-0,79;-0,55;964,22
5.596;0,43;-0,38;-0,05;13,75;-5,08;2,80;0,69;-0,79;-0,55;964,22
5.628;0,43;-0,38;-0,05;13,75;-5,08;2,80;0,69;-0,79;-0,55;964,19
5.647;0,43;-0,38;-0,05;13,61;-3,33;2,35;0,69;-0,79;-0,55;964,19
5.648;0,43;-0,38;-0,05;13,61;-3,33;2,35;0,01;-0,53;-1,93;964,19
5.655;0,29;-0,40;-0,01;13,61;-3,33;2,35;0,01;-0,53;-1,93;964,19
5.655;0,13;-0,61;-0,04;13,61;-3,33;2,35;0,01;-0,53;-1,93;964,19
5.656;-0,20;-0,74;-0,24;13,61;-3,33;2,35;0,01;-0,53;-1,93;964,19
5.708;-0,20;-0,74;-0,24;7,34;-5,41;0,21;0,01;-0,53;-1,93;964,19
5.709;-0,20;-0,74;-0,24;7,34;-5,41;0,21;-0,87;-0,30;-3,85;964,19
5.716;-0,63;-0,94;-0,33;7,34;-5,41;0,21;-0,87;-0,30;-3,85;964,19
5.717;-1,26;-1,17;-0,45;7,34;-5,41;0,21;-0,87;-0,30;-3,85;964,19
5.717;-2,11;-1,33;-0,48;7,34;-5,41;0,21;-0,87;-0,30;-3,85;964,19
5.727;-2,11;-1,33;-0,48;7,34;-5,41;0,21;-0,87;-0,30;-3,85;964,20
5.771;-2,11;-1,33;-0,48;-12,06;-9,29;-2,09;-0,87;-0,30;-3,85;964,20
5.772;-2,11;-1,33;-0,48;-12,06;-9,29;-2,09;-1,91;-1,21;-3,95;964,20
5.774;-2,65;-1,32;-0,75;-12,06;-9,29;-2,09;-1,91;-1,21;-3,95;964,20
5.774;-2,95;-1,22;-0,95;-12,06;-9,29;-2,09;-1,91;-1,21;-3,95;964,20
5.774;-2,78;-0,98;-0,72;-12,06;-9,29;-2,09;-1,91;-1,21;-3,95;964,20
5.828;-2,78;-0,98;-0,72;-12,06;-9,29;-2,09;-1,91;-1,21;-3,95;964,29
5.829;-2,78;-0,98;-0,72;-19,32;-4,47;-4,35;-1,91;-1,21;-3,95;964,29
5.829;-2,78;-0,98;-0,72;-19,32;-4,47;-4,35;-1,99;-0,64;-2,72;964,29
5.833;-2,35;-0,62;-0,51;-19,32;-4,47;-4,35;-1,99;-0,64;-2,72;964,29
5.834;-1,99;-0,30;-0,37;-19,32;-4,47;-4,35;-1,99;-0,64;-2,72;964,29
5.834;-1,53;-0,05;-0,30;-19,32;-4,47;-4,35;-1,99;-0,64;-2,72;964,29
5.888;-1,53;-0,05;-0,30;-7,75;5,47;0,07;-1,99;-0,64;-2,72;964,29
5.889;-1,53;-0,05;-0,30;-7,75;5,47;0,07;-1,62;-1,33;-1,94;964,29
5.893;-1,14;0,14;-0,22;-7,75;5,47;0,07;-1,62;-1,33;-1,94;964,29
5.894;-0,81;0,30;-0,17;-7,75;5,47;0,07;-1,62;-1,33;-1,94;964,29
5.894;-0,55;0,52;-0,14;-7,75;5,47;0,07;-1,62;-1,33;-1,94;964,29
5.929;-0,55;0,52;-0,14;-7,75;5,47;0,07;-1,62;-1,33;-1,94;964,23
5.947;-0,55;0,52;-0,14;1,62;11,21;1,72;-1,62;-1,33;-1,94;964,23
5.948;-0,55;0,52;-0,14;1,62;11,21;1,72;-1,32;-0,02;0,01;964,23
5.956;-0,40;0,72;-0,07;1,62;11,21;1,72;-1,32;-0,02;0,01;964,23
5.956;-0,43;0,82;-0,00;1,62;11,21;1,72;-1,32;-0,02;0,01;964,23
5.956;-0,50;0,89;0,01;1,62;11,21;1,72;-1,32;-0,02;0,01;964,23
6.007;-0,50;0,89;0,01;2,40;14,33;3,54;-1,32;-0,02;0,01;964,23
6.008;-0,50;0,89;0,01;2,40;14,33;3,54;-0,11;-0,40;1,72;964,23
6.014;-0,60;0,82;0,06;2,40;14,33;3,54;-0,11;-0,40;1,72;964,23
6.014;-0,61;0,62;0,09;2,40;14,33;3,54;-0,11;-0,40;1,72;964,23
6.014;-0,60;0,38;0,03;2,40;14,33;3,54;-0,11;-0,40;1,72;964,23
6.026;-0,60;0,38;0,03;2,40;14,33;3,54;-0,11;-0,40;1,72;964,23
6.068;-0,60;0,38;0,03;2,11;8,32;3,61;-0,11;-0,40;1,72;964,23
6.069;-0,60;0,38;0,03;2,11;8,32;3,61;0,91;0,32;3,06;964,23
6.075;-0,68;0,25;-0,06;2,11;8,32;3,61;0,91;0,32;3,06;964,23
6.075;-0,88;0,09;-0,09;2,11;8,32;3,61;0,91;0,32;3,06;964,23
6.075;-1,14;-0,02;-0,05;2,11;8,32;3,61;0,91;0,32;3,06;964,23
6.129;-1,14;-0,02;-0,05;2,11;8,32;3,61;0,91;0,32;3,06;964,25
6.13;-1,14;-0,02;-0,05;-2,58;3,03;2,88;0,91;0,32;3,06;964,25
6.13;-1,14;-0,02;-0,05;-2,58;3,03;2,88;1,58;1,22;3,26;964,25
6.136;-1,69;-0,12;-0,10;-2,58;3,03;2,88;1,58;1,22;3,26;964,25
6.136;-2,33;-0,31;-0,31;-2,58;3,03;2,88;1,58;1,22;3,26;964,25
6.136;-2,90;-0,47;-0,37;-2,58;3,03;2,88;1,58;1,22;3,26;964,25
6.187;-2,90;-0,47;-0,37;-19,52;-2,93;0,12;1,58;1,22;3,26;964,25
6.188;-2,90;-0,47;-0,37;-19,52;-2,93;0,12;1,45;0,65;3,77;964,25
6.195;-3,06;-0,69;-0,41;-19,52;-2,93;0,12;1,45;0,65;3,77;964,25
6.195;-2,93;-0,71;-0,43;-19,52;-2,93;0,12;1,45;0,65;3,77;964,25
6.195;-2,59;-0,72;-0,44;-19,52;-2,93;0,12;1,45;0,65;3,77;964,25
6.226;-2,59;-0,72;-0,44;-19,52;-2,93;0,12;1,45;0,65;3,77;964,31
6.248;-2,59;-0,72;-0,44;-16,31;-6,85;-0,52;1,45;0,65;3,77;964,31
6.249;-2,59;-0,72;-0,44;-16,31;-6,85;-0,52;1,33;-0,18;2,60;964,31
6.254;-2,19;-0,78;-0,42;-16,31;-6,85;-0,52;1,33;-0,18;2,60;964,31
6.254;-1,69;-0,73;-0,29;-16,31;-6,85;-0,52;1,33;-0,18;2,60;964,31
6.255;-1,12;-0,63;-0,16;-16,31;-6,85;-0,52;1,33;-0,18;2,60;964,31
6.307;-1,12;-0,63;-0,16;-1,94;-6,80;2,33;1,33;-0,18;2,60;964,31
6.307;-1,12;-0,63;-0,16;-1,94;-6,80;2,33;1,94;0,27;1,52;964,31
6.315;-0,59;-0,56;-0,06;-1,94;-6,80;2,33;1,94;0,27;1,52;964,31
6.316;-0,19;-0,50;-0,02;-1,94;-6,80;2,33;1,94;0,27;1,52;964,31
6.316;0,07;-0,48;0,07;-1,94;-6,80;2,33;1,94;0,27;1,52;964,31
6.327;0,07;-0,48;0,07;-1,94;-6,80;2,33;1,94;0,27;1,52;964,26
6.374;0,07;-0,48;0,07;9,47;-5,32;4,98;1,94;0,27;1,52;964,26
6.375;0,07;-0,48;0,07;9,47;-5,32;4,98;2,22;0,72;0,32;964,26
6.375;0,31;-0,52;0,13;9,47;-5,32;4,98;2,22;0,72;0,32;964,26
6.375;0,48;-0,56;0,11;9,47;-5,32;4,98;2,22;0,72;0,32;964,26
6.376;0,63;-0,61;0,04;9,47;-5,32;4,98;2,22;0,72;0,32;964,26
6.427;0,63;-0,61;0,04;9,47;-5,32;4,98;2,22;0,72;0,32;964,21
6.428;0,63;-0,61;0,04;14,84;-5,92;4,91;2,22;0,72;0,32;964,21
6.429;0,63;-0,61;0,04;14,84;-5,92;4,91;1,60;0,43;-1,30;964,21
6.436;0,58;-0,62;0,03;14,84;-5,92;4,91;1,60;0,43;-1,30;964,21
6.436;0,46;-0,63;-0,00;14,84;-5,92;4,91;1,60;0,43;-1,30;964,21
6.436;0,28;-0,72;-0,08;14,84;-5,92;4,91;1,60;0,43;-1,30;964,21
6.488;0,28;-0,72;-0,08;11,15;-5,77;4,02;1,60;0,43;-1,30;964,21
6.489;0,28;-0,72;-0,08;11,15;-5,77;4,02;0,58;0,71;-2,36;964,21
6.494;0,11;-0,74;-0,25;11,15;-5,77;4,02;0,58;0,71;-2,36;964,21
6.494;-0,11;-0,76;-0,33;11,15;-5,77;4,02;0,58;0,71;-2,36;964,21
6.494;-0,51;-0,80;-0,31;11,15;-5,77;4,02;0,58;0,71;-2,36;964,21
6.527;-0,51;-0,80;-0,31;11,15;-5,77;4,02;0,58;0,71;-2,36;964,20
6.548;-0,51;-0,80;-0,31;2,93;-4,74;1,85;0,58;0,71;-2,36;964,20
6.548;-0,51;-0,80;-0,31;2,93;-4,74;1,85;0,24;0,28;-4,23;964,20
6.555;-1,28;-1,00;-0,42;2,93;-4,74;1,85;0,24;0,28;-4,23;964,20
6.555;-2,02;-1,30;-0,86;2,93;-4,74;1,85;0,24;0,28;-4,23;964,20
6.556;-2,50;-1,25;-1,24;2,93;-4,74;1,85;0,24;0,28;-4,23;964,20
6.607;-2,50;-1,25;-1,24;-17,61;-7,45;-7,16;0,24;0,28;-4,23;964,20
6.608;-2,50;-1,25;-1,24;-17,61;-7,45;-7,16;-0,32;-0,08;-3,46;964,20
6.614;-2,73;-1,12;-1,15;-17,61;-7,45;-7,16;-0,32;-0,08;-3,46;964,20
6.615;-2,60;-0,92;-1,04;-17,61;-7,45;-7,16;-0,32;-0,08;-3,46;964,20
6.615;-2,47;-0,69;-1,00;-17,61;-7,45;-7,16;-0,32;-0,08;-3,46;964,20
6.625;-2,47;-0,69;-1,00;-17,61;-7,45;-7,16;-0,32;-0,08;-3,46;964,29
6.668;-2,47;-0,69;-1,00;-18,06;-0,99;-4,94;-0,32;-0,08;-3,46;964,29
6.669;-2,47;-0,69;-1,00;-18,06;-0,99;-4,94;-0,40;-0,89;-1,89;964,29
6.675;-2,25;-0,45;-0,92;-18,06;-0,99;-4,94;-0,40;-0,89;-1,89;964,29
6.676;-1,92;-0,22;-0,75;-18,06;-0,99;-4,94;-0,40;-0,89;-1,89;964,29
6.676;-1,52;-0,02;-0,59;-18,06;-0,99;-4,94;-0,40;-0,89;-1,89;964,29
6.728;-1,52;-0,02;-0,59;-18,06;-0,99;-4,94;-0,40;-0,89;-1,89;964,29
6.729;-1,52;-0,02;-0,59;-9,09;5,99;-0,89;-0,40;-0,89;-1,89;964,29
6.73;-1,52;-0,02;-0,59;-9,09;5,99;-0,89;0,02;0,29;-0,66;964,29
6.736;-1,11;0,15;-0,44;-9,09;5,99;-0,89;0,02;0,29;-0,66;964,29
6.737;-0,78;0,29;-0,36;-9,09;5,99;-0,89;0,02;0,29;-0,66;964,29
6.737;-0,51;0,47;-0,34;-9,09;5,99;-0,89;0,02;0,29;-0,66;964,29
6.787;-0,51;0,47;-0,34;0,73;10,92;1,50;0,02;0,29;-0,66;964,29
6.789;-0,51;0,47;-0,34;0,73;10,92;1,50;1,24;0,89;1,08;964,29
6.796;-0,38;0,65;-0,32;0,73;10,92;1,50;1,24;0,89;1,08;964,29
6.797;-0,33;0,90;-0,23;0,73;10,92;1,50;1,24;0,89;1,08;964,29
6.797;-0,39;1,10;-0,09;0,73;10,92;1,50;1,24;0,89;1,08;964,29
6.827;-0,39;1,10;-0,09;0,73;10,92;1,50;1,24;0,89;1,08;964,23
6.847;-0,39;1,10;-0,09;2,15;16,94;3,90;1,24;0,89;1,08;964,23
6.848;-0,39;1,10;-0,09;2,15;16,94;3,90;2,21;2,50;2,93;964,23
6.856;-0,59;1,01;0,02;2,15;16,94;3,90;2,21;2,50;2,93;964,23
6.856;-0,76;0,72;0,03;2,15;16,94;3,90;2,21;2,50;2,93;964,23
6.857;-0,99;0,46;0,04;2,15;16,94;3,90;2,21;2,50;2,93;964,23
6.907;-0,99;0,46;0,04;-3,08;10,04;5,09;2,21;2,50;2,93;964,23
6.908;-0,99;0,46;0,04;-3,08;10,04;5,09;2,54;2,73;3,69;964,23
6.915;-1,18;0,30;0,13;-3,08;10,04;5,09;2,54;2,73;3,69;964,23
6.915;-1,47;0,19;0,25;-3,08;10,04;5,09;2,54;2,73;3,69;964,23
6.915;-2,02;-0,12;0,35;-3,08;10,04;5,09;2,54;2,73;3,69;964,23
6.926;-2,02;-0,12;0,35;-3,08;10,04;5,09;2,54;2,73;3,69;964,25
6.969;-2,02;-0,12;0,35;-13,33;3,30;9,25;2,54;2,73;3,69;964,25
6.97;-2,02;-0,12;0,35;-13,33;3,30;9,25;1,58;3,49;4,61;964,25
6.975;-2,62;-0,48;0,15;-13,33;3,30;9,25;1,58;3,49;4,61;964,25
6.975;-3,32;-0,79;0,03;-13,33;3,30;9,25;1,58;3,49;4,61;964,25
6.976;-3,65;-1,14;0,06;-13,33;3,30;9,25;1,58;3,49;4,61;964,25
7.028;-3,65;-1,14;0,06;-13,33;3,30;9,25;1,58;3,49;4,61;964,32
7.029;-3,65;-1,14;0,06;-28,56;-7,92;6,41;1,58;3,49;4,61;964,32
7.029;-3,65;-1,14;0,06;-28,56;-7,92;6,41;1,67;-0,36;4,47;964,32
7.034;-3,39;-1,33;0,07;-28,56;-7,92;6,41;1,67;-0,36;4,47;964,32
7.034;-2,93;-1,50;-0,07;-28,56;-7,92;6,41;1,67;-0,36;4,47;964,32
7.034;-2,14;-1,32;-0,06;-28,56;-7,92;6,41;1,67;-0,36;4,47;964,32
7.086;-2,14;-1,32;-0,06;-13,07;-11,00;4,81;1,67;-0,36;4,47;964,32
7.087;-2,14;-1,32;-0,06;-13,07;-11,00;4,81;1,86;-0,22;3,69;964,32
7.095;-1,44;-1,10;0,00;-13,07;-11,00;4,81;1,86;-0,22;3,69;964,32
7.095;-0,92;-0,93;0,04;-13,07;-11,00;4,81;1,86;-0,22;3,69;964,32
7.095;-0,54;-0,85;0,07;-13,07;-11,00;4,81;1,86;-0,22;3,69;964,32
7.127;-0,54;-0,85;0,07;-13,07;-11,00;4,81;1,86;-0,22;3,69;964,25
7.147;-0,54;-0,85;0,07;2,97;-7,36;5,85;1,86;-0,22;3,69;964,25
7.148;-0,54;-0,85;0,07;2,97;-7,36;5,85;2,17;0,12;2,69;964,25
7.156;-0,25;-0,83;0,11;2,97;-7,36;5,85;2,17;0,12;2,69;964,25
7.157;-0,00;-0,79;0,10;2,97;-7,36;5,85;2,17;0,12;2,69;964,25
7.158;0,22;-0,78;0,08;2,97;-7,36;5,85;2,17;0,12;2,69;964,25
7.207;0,22;-0,78;0,08;10,43;-7,05;6,00;2,17;0,12;2,69;964,25
7.207;0,22;-0,78;0,08;10,43;-7,05;6,00;1,64;0,01;1,11;964,25
7.214;0,36;-0,74;0,12;10,43;-7,05;6,00;1,64;0,01;1,11;964,25
7.214;0,38;-0,76;0,16;10,43;-7,05;6,00;1,64;0,01;1,11;964,25
7.214;0,35;-0,82;0,13;10,43;-7,05;6,00;1,64;0,01;1,11;964,25
7.227;0,35;-0,82;0,13;10,43;-7,05;6,00;1,64;0,01;1,11;964,19
7.267;0,35;-0,82;0,13;11,77;-7,26;6,45;1,64;0,01;1,11;964,19
7.268;0,35;-0,82;0,13;11,77;-7,26;6,45;1,15;0,07;-0,09;964,19
7.277;0,22;-0,86;0,06;11,77;-7,26;6,45;1,15;0,07;-0,09;964,19
7.279;-0,02;-0,86;-0,01;11,77;-7,26;6,45;1,15;0,07;-0,09;964,19
7.28;-0,29;-0,88;-0,04;11,77;-7,26;6,45;1,15;0,07;-0,09;964,19
7.328;-0,29;-0,88;-0,04;11,77;-7,26;6,45;1,15;0,07;-0,09;964,17
7.329;-0,29;-0,88;-0,04;5,42;-6,94;4,57;1,15;0,07;-0,09;964,17
7.329;-0,29;-0,88;-0,04;5,42;-6,94;4,57;0,98;-0,60;-2,15;964,17
7.335;-0,80;-0,96;-0,21;5,42;-6,94;4,57;0,98;-0,60;-2,15;964,17
7.336;-1,28;-1,03;-0,55;5,42;-6,94;4,57;0,98;-0,60;-2,15;964,17
7.336;-1,66;-1,04;-0,66;5,42;-6,94;4,57;0,98;-0,60;-2,15;964,17
7.387;-1,66;-1,04;-0,66;-8,21;-6,90;-2,04;0,98;-0,60;-2,15;964,17
7.387;-1,66;-1,04;-0,66;-8,21;-6,90;-2,04;0,64;-0,90;-3,36;964,17
7.396;-2,01;-0,98;-0,72;-8,21;-6,90;-2,04;0,64;-0,90;-3,36;964,17
7.396;-2,36;-0,96;-0,96;-8,21;-6,90;-2,04;0,64;-0,90;-3,36;964,17
7.397;-2,50;-0,89;-1,06;-8,21;-6,90;-2,04;0,64;-0,90;-3,36;964,17
7.426;-2,50;-0,89;-1,06;-8,21;-6,90;-2,04;0,64;-0,90;-3,36;964,24
7.448;-2,50;-0,89;-1,06;-17,19;-3,96;-5,87;0,64;-0,90;-3,36;964,24
7.449;-2,50;-0,89;-1,06;-17,19;-3,96;-5,87;-0,14;0,68;-2,72;964,24
7.457;-2,46;-0,87;-0,91;-17,19;-3,96;-5,87;-0,14;0,68;-2,72;964,24
7.458;-2,37;-0,76;-0,85;-17,19;-3,96;-5,87;-0,14;0,68;-2,72;964,24
7.458;-2,21;-0,58;-0,76;-17,19;-3,96;-5,87;-0,14;0,68;-2,72;964,24
7.507;-2,21;-0,58;-0,76;-14,99;0,10;-3,07;-0,14;0,68;-2,72;964,24
7.513;-2,21;-0,58;-0,76;-14,99;0,10;-3,07;-0,31;-0,77;-1,90;964,24
7.514;-1,85;-0,37;-0,64;-14,99;0,10;-3,07;-0,31;-0,77;-1,90;964,24
7.515;-1,41;-0,16;-0,50;-14,99;0,10;-3,07;-0,31;-0,77;-1,90;964,24
7.515;-0,96;0,08;-0,46;-14,99;0,10;-3,07;-0,31;-0,77;-1,90;964,24
7.527;-0,96;0,08;-0,46;-14,99;0,10;-3,07;-0,31;-0,77;-1,90;964,24
7.568;-0,96;0,08;-0,46;-3,25;6,96;0,03;-0,31;-0,77;-1,90;964,24
7.569;-0,96;0,08;-0,46;-3,25;6,96;0,03;-0,90;0,46;-0,71;964,24
7.578;-0,66;0,44;-0,46;-3,25;6,96;0,03;-0,90;0,46;-0,71;964,24
7.579;-0,45;0,79;-0,27;-3,25;6,96;0,03;-0,90;0,46;-0,71;964,24
7.579;-0,26;0,96;0,01;-3,25;6,96;0,03;-0,90;0,46;-0,71;964,24
7.629;-0,26;0,96;0,01;-3,25;6,96;0,03;-0,90;0,46;-0,71;964,21
7.63;-0,26;0,96;0,01;3,47;15,37;4,97;-0,90;0,46;-0,71;964,21
7.63;-0,26;0,96;0,01;3,47;15,37;4,97;0,73;0,63;1,19;964,21
7.635;-0,20;1,09;0,18;3,47;15,37;4,97;0,73;0,63;1,19;964,21
7.636;-0,29;1,07;0,25;3,47;15,37;4,97;0,73;0,63;1,19;964,21
7.636;-0,45;0,99;0,24;3,47;15,37;4,97;0,73;0,63;1,19;964,21
7.688;-0,45;0,99;0,24;2,19;15,28;6,92;0,73;0,63;1,19;964,21
7.689;-0,45;0,99;0,24;2,19;15,28;6,92;2,96;0,88;3,15;964,21
7.694;-0,56;0,91;0,26;2,19;15,28;6,92;2,96;0,88;3,15;964,21
7.695;-0,67;0,67;0,33;2,19;15,28;6,92;2,96;0,88;3,15;964,21
7.695;-0,93;0,27;0,28;2,19;15,28;6,92;2,96;0,88;3,15;964,21
7.727;-0,93;0,27;0,28;2,19;15,28;6,92;2,96;0,88;3,15;964,23
7.747;-0,93;0,27;0,28;-1,69;7,59;6,76;2,96;0,88;3,15;964,23
7.748;-0,93;0,27;0,28;-1,69;7,59;6,76;3,92;3,02;3,81;964,23
7.754;-1,36;-0,03;0,23;-1,69;7,59;6,76;3,92;3,02;3,81;964,23
7.754;-1,97;-0,21;0,29;-1,69;7,59;6,76;3,92;3,02;3,81;964,23
7.754;-2,67;-0,69;0,32;-1,69;7,59;6,76;3,92;3,02;3,81;964,23
7.808;-2,67;-0,69;0,32;-18,34;-2,75;7,51;3,92;3,02;3,81;964,23
7.809;-2,67;-0,69;0,32;-18,34;-2,75;7,51;3,57;1,28;4,38;964,23
7.814;-3,02;-0,95;0,26;-18,34;-2,75;7,51;3,57;1,28;4,38;964,23
7.815;-3,20;-1,01;0,26;-18,34;-2,75;7,51;3,57;1,28;4,38;964,23
7.815;-3,05;-0,97;0,34;-18,34;-2,75;7,51;3,57;1,28;4,38;964,23
7.827;-3,05;-0,97;0,34;-18,34;-2,75;7,51;3,57;1,28;4,38;964,29
7.868;-3,05;-0,97;0,34;-21,54;-6,76;7,68;3,57;1,28;4,38;964,29
7.869;-3,05;-0,97;0,34;-21,54;-6,76;7,68;2,22;1,24;3,82;964,29
7.874;-2,77;-0,85;0,32;-21,54;-6,76;7,68;2,22;1,24;3,82;964,29
7.875;-2,49;-0,78;0,25;-21,54;-6,76;7,68;2,22;1,24;3,82;964,29
7.875;-2,12;-0,74;0,21;-21,54;-6,76;7,68;2,22;1,24;3,82;964,29
7.927;-2,12;-0,74;0,21;-21,54;-6,76;7,68;2,22;1,24;3,82;964,31
7.928;-2,12;-0,74;0,21;-12,08;-5,67;6,39;2,22;1,24;3,82;964,31
7.928;-2,12;-0,74;0,21;-12,08;-5,67;6,39;1,95;-0,07;3,13;964,31
7.934;-1,64;-0,68;0,24;-12,08;-5,67;6,39;1,95;-0,07;3,13;964,31
7.934;-1,22;-0,67;0,27;-12,08;-5,67;6,39;1,95;-0,07;3,13;964,31
7.934;-0,92;-0,58;0,24;-12,08;-5,67;6,39;1,95;-0,07;3,13;964,31
7.991;-0,92;-0,58;0,24;-0,23;-5,18;6,63;1,95;-0,07;3,13;964,31
7.992;-0,92;-0,58;0,24;-0,23;-5,18;6,63;1,50;0,22;2,42;964,31
7.996;-0,62;-0,56;0,20;-0,23;-5,18;6,63;1,50;0,22;2,42;964,31
7.996;-0,37;-0,57;0,15;-0,23;-5,18;6,63;1,50;0,22;2,42;964,31
7.996;-0,08;-0,61;0,18;-0,23;-5,18;6,63;1,50;0,22;2,42;964,31
8.027;-0,08;-0,61;0,18;-0,23;-5,18;6,63;1,50;0,22;2,42;964,23
8.048;-0,08;-0,61;0,18;8,12;-6,20;5,90;1,50;0,22;2,42;964,23
8.049;-0,08;-0,61;0,18;8,12;-6,20;5,90;0,97;-0,70;1,43;964,23
8.055;0,16;-0,72;0,24;8,12;-6,20;5,90;0,97;-0,70;1,43;964,23
8.055;0,24;-0,76;0,21;8,12;-6,20;5,90;0,97;-0,70;1,43;964,23
8.055;0,30;-0,85;0,13;8,12;-6,20;5,90;0,97;-0,70;1,43;964,23
8.109;0,30;-0,85;0,13;11,86;-8,64;5,28;0,97;-0,70;1,43;964,23
8.111;0,30;-0,85;0,13;11,86;-8,64;5,28;0,43;0,01;-0,38;964,23
8.113;0,27;-0,96;0,09;11,86;-8,64;5,28;0,43;0,01;-0,38;964,23
8.114;0,18;-1,07;0,02;11,86;-8,64;5,28;0,43;0,01;-0,38;964,23
8.114;-0,01;-1,10;-0,15;11,86;-8,64;5,28;0,43;0,01;-0,38;964,23
8.127;-0,01;-1,10;-0,15;11,86;-8,64;5,28;0,43;0,01;-0,38;964,22
8.168;-0,01;-1,10;-0,15;8,94;-10,47;2,30;0,43;0,01;-0,38;964,22
8.17;-0,01;-1,10;-0,15;8,94;-10,47;2,30;-0,38;-0,71;-2,30;964,22
8.175;-0,50;-1,13;-0,29;8,94;-10,47;2,30;-0,38;-0,71;-2,30;964,22
8.176;-1,11;-1,09;-0,42;8,94;-10,47;2,30;-0,38;-0,71;-2,30;964,22
8.176;-1,67;-1,03;-0,45;8,94;-10,47;2,30;-0,38;-0,71;-2,30;964,22
8.227;-1,67;-1,03;-0,45;8,94;-10,47;2,30;-0,38;-0,71;-2,30;964,28
8.228;-1,67;-1,03;-0,45;-7,26;-8,41;-1,08;-0,38;-0,71;-2,30;964,28
8.228;-1,67;-1,03;-0,45;-7,26;-8,41;-1,08;-1,03;-1,06;-3,19;964,28
8.233;-1,96;-0,87;-0,54;-7,26;-8,41;-1,08;-1,03;-1,06;-3,19;964,28
8.234;-2,26;-0,56;-0,63;-7,26;-8,41;-1,08;-1,03;-1,06;-3,19;964,28
8.234;-2,44;-0,35;-0,57;-7,26;-8,41;-1,08;-1,03;-1,06;-3,19;964,28
8.287;-2,44;-0,35;-0,57;-15,15;-0,35;-2,60;-1,03;-1,06;-3,19;964,28
8.288;-2,44;-0,35;-0,57;-15,15;-0,35;-2,60;-1,73;-0,64;-2,91;964,28
8.294;-2,44;-0,16;-0,43;-15,15;-0,35;-2,60;-1,73;-0,64;-2,91;964,28
8.295;-2,36;0,07;-0,33;-15,15;-0,35;-2,60;-1,73;-0,64;-2,91;964,28
8.295;-2,14;0,19;-0,24;-15,15;-0,35;-2,60;-1,73;-0,64;-2,91;964,28
8.326;-2,14;0,19;-0,24;-15,15;-0,35;-2,60;-1,73;-0,64;-2,91;964,31
8.346;-2,14;0,19;-0,24;-12,50;5,74;0,63;-1,73;-0,64;-2,91;964,31
8.347;-2,14;0,19;-0,24;-12,50;5,74;0,63;-2,35;-0,70;-1,36;964,31
8.355;-1,85;0,30;-0,17;-12,50;5,74;0,63;-2,35;-0,70;-1,36;964,31
8.355;-1,31;0,47;-0,15;-12,50;5,74;0,63;-2,35;-0,70;-1,36;964,31
8.355;-1,12;0,45;-0,15;-12,50;5,74;0,63;-2,35;-0,70;-1,36;964,31
8.409;-1,12;0,45;-0,15;-2,55;8,46;1,57;-2,35;-0,70;-1,36;964,31
8.41;-1,12;0,45;-0,15;-2,55;8,46;1,57;-2,43;-0,94;-0,44;964,31
8.414;-0,76;0,40;-0,07;-2,55;8,46;1,57;-2,43;-0,94;-0,44;964,31
8.414;-0,34;0,34;-0,11;-2,55;8,46;1,57;-2,43;-0,94;-0,44;964,31
8.415;-0,14;0,32;-0,11;-2,55;8,46;1,57;-2,43;-0,94;-0,44;964,31
8.432;-0,14;0,32;-0,11;-2,55;8,46;1,57;-2,43;-0,94;-0,44;964,29
8.468;-0,14;0,32;-0,11;7,25;6,83;1,97;-2,43;-0,94;-0,44;964,29
8.469;-0,14;0,32;-0,11;7,25;6,83;1,97;-1,59;-1,10;-0,06;964,29
8.476;-0,02;0,31;-0,04;7,25;6,83;1,97;-1,59;-1,10;-0,06;964,29
8.476;0,04;0,31;-0,03;7,25;6,83;1,97;-1,59;-1,10;-0,06;964,29
8.476;-0,14;0,27;-0,10;7,25;6,83;1,97;-1,59;-1,10;-0,06;964,29
8.528;-0,14;0,27;-0,10;7,25;6,83;1,97;-1,59;-1,10;-0,06;964,30
8.529;-0,14;0,27;-0,10;7,52;5,93;1,62;-1,59;-1,10;-0,06;964,30
8.53;-0,14;0,27;-0,10;7,52;5,93;1,62;-0,28;-0,95;1,06;964,30
8.535;-0,08;0,11;-0,14;7,52;5,93;1,62;-0,28;-0,95;1,06;964,30
8.535;-0,39;0,02;-0,18;7,52;5,93;1,62;-0,28;-0,95;1,06;964,30
8.535;-0,64;-0,05;-0,26;7,52;5,93;1,62;-0,28;-0,95;1,06;964,30
8.587;-0,64;-0,05;-0,26;2,94;1,97;-0,27;-0,28;-0,95;1,06;964,30
8.587;-0,64;-0,05;-0,26;2,94;1,97;-0,27;0,83;-0,02;2,29;964,30
8.594;-0,90;-0,06;-0,33;2,94;1,97;-0,27;0,83;-0,02;2,29;964,30
8.595;-1,51;0,01;-0,41;2,94;1,97;-0,27;0,83;-0,02;2,29;964,30
8.595;-2,09;-0,15;-0,51;2,94;1,97;-0,27;0,83;-0,02;2,29;964,30
8.627;-2,09;-0,15;-0,51;2,94;1,97;-0,27;0,83;-0,02;2,29;964,30
8.648;-2,09;-0,15;-0,51;-11,08;-0,07;-2,51;0,83;-0,02;2,29;964,30
8.649;-2,09;-0,15;-0,51;-11,08;-0,07;-2,51;1,28;0,84;2,35;964,30
8.653;-2,59;-0,39;-0,63;-11,08;-0,07;-2,51;1,28;0,84;2,35;964,30
8.654;-2,67;-0,45;-0,73;-11,08;-0,07;-2,51;1,28;0,84;2,35;964,30
8.654;-2,47;-0,45;-0,71;-11,08;-0,07;-2,51;1,28;0,84;2,35;964,30
8.708;-2,47;-0,45;-0,71;-14,77;-3,95;-4,28;1,28;0,84;2,35;964,30
8.709;-2,47;-0,45;-0,71;-14,77;-3,95;-4,28;1,96;0,58;1,61;964,30
8.714;-2,36;-0,40;-0,59;-14,77;-3,95;-4,28;1,96;0,58;1,61;964,30
8.714;-2,10;-0,35;-0,45;-14,77;-3,95;-4,28;1,96;0,58;1,61;964,30
8.715;-1,73;-0,30;-0,40;-14,77;-3,95;-4,28;1,96;0,58;1,61;964,30
8.726;-1,73;-0,30;-0,40;-14,77;-3,95;-4,28;1,96;0,58;1,61;964,30
8.766;-1,73;-0,30;-0,40;-7,69;-2,87;-0,68;1,96;0,58;1,61;964,30
8.767;-1,73;-0,30;-0,40;-7,69;-2,87;-0,68;1,94;0,69;0,74;964,30
8.775;-1,39;-0,27;-0,38;-7,69;-2,87;-0,68;1,94;0,69;0,74;964,30
8.775;-0,97;-0,28;-0,32;-7,69;-2,87;-0,68;1,94;0,69;0,74;964,30
8.776;-0,50;-0,26;-0,23;-7,69;-2,87;-0,68;1,94;0,69;0,74;964,30
8.829;-0,50;-0,26;-0,23;-7,69;-2,87;-0,68;1,94;0,69;0,74;964,25
8.83;-0,50;-0,26;-0,23;4,36;-2,52;1,05;1,94;0,69;0,74;964,25
8.83;-0,50;-0,26;-0,23;4,36;-2,52;1,05;1,36;0,19;1,02;964,25
8.834;-0,20;-0,31;-0,14;4,36;-2,52;1,05;1,36;0,19;1,02;964,25
8.835;0,10;-0,38;-0,10;4,36;-2,52;1,05;1,36;0,19;1,02;964,25
8.835;0,26;-0,37;-0,01;4,36;-2,52;1,05;1,36;0,19;1,02;964,25
8.889;0,26;-0,37;-0,01;11,60;-3,74;3,57;1,36;0,19;1,02;964,25
8.89;0,26;-0,37;-0,01;11,60;-3,74;3,57;0,43;0,78;-0,08;964,25
8.898;0,39;-0,39;0,04;11,60;-3,74;3,57;0,43;0,78;-0,08;964,25
8.899;0,45;-0,48;0,02;11,60;-3,74;3,57;0,43;0,78;-0,08;964,25
8.899;0,49;-0,58;0,07;11,60;-3,74;3,57;0,43;0,78;-0,08;964,25
8.928;0,49;-0,58;0,07;11,60;-3,74;3,57;0,43;0,78;-0,08;964,21
8.947;0,49;-0,58;0,07;13,88;-5,27;4,47;0,43;0,78;-0,08;964,21
8.948;0,49;-0,58;0,07;13,88;-5,27;4,47;0,09;0,02;-2,03;964,21
8.955;0,44;-0,70;0,12;13,88;-5,27;4,47;0,09;0,02;-2,03;964,21
8.955;0,25;-0,85;0,10;13,88;-5,27;4,47;0,09;0,02;-2,03;964,21
8.956;0,06;-0,90;-0,11;13,88;-5,27;4,47;0,09;0,02;-2,03;964,21
9.008;0,06;-0,90;-0,11;9,30;-7,09;2,93;0,09;0,02;-2,03;964,21
9.008;0,06;-0,90;-0,11;9,30;-7,09;2,93;0,39;0,34;-3,92;964,21
9.016;-0,16;-1,07;-0,08;9,30;-7,09;2,93;0,39;0,34;-3,92;964,21
9.016;-0,64;-1,25;-0,19;9,30;-7,09;2,93;0,39;0,34;-3,92;964,21
9.017;-1,50;-1,32;-0,74;9,30;-7,09;2,93;0,39;0,34;-3,92;964,21
9.029;-1,50;-1,32;-0,74;9,30;-7,09;2,93;0,39;0,34;-3,92;964,21
9.067;-1,50;-1,32;-0,74;9,30;-7,09;2,93;-0,62;1,04;-3,92;964,21
9.068;-1,50;-1,32;-0,74;-6,74;-9,04;-2,99;-0,62;1,04;-3,92;964,21
9.074;-1,95;-1,39;-1,02;-6,74;-9,04;-2,99;-0,62;1,04;-3,92;964,21
9.074;-2,35;-1,33;-1,08;-6,74;-9,04;-2,99;-0,62;1,04;-3,92;964,21
9.075;-2,46;-1,15;-1,15;-6,74;-9,04;-2,99;-0,62;1,04;-3,92;964,21
9.126;-2,46;-1,15;-1,15;-6,74;-9,04;-2,99;-0,62;1,04;-3,92;964,27
9.126;-2,46;-1,15;-1,15;-17,14;-6,04;-6,79;-0,62;1,04;-3,92;964,27
9.127;-2,46;-1,15;-1,15;-17,14;-6,04;-6,79;-0,84;-1,78;-2,90;964,27
9.133;-2,40;-0,87;-1,11;-17,14;-6,04;-6,79;-0,84;-1,78;-2,90;964,27
9.134;-2,15;-0,59;-1,01;-17,14;-6,04;-6,79;-0,84;-1,78;-2,90;964,27
9.134;-1,76;-0,29;-0,78;-17,14;-6,04;-6,79;-0,84;-1,78;-2,90;964,27
9.19;-1,76;-0,29;-0,78;-10,59;3,17;-3,54;-0,84;-1,78;-2,90;964,27
9.191;-1,76;-0,29;-0,78;-10,59;3,17;-3,54;-0,98;-1,25;-1,63;964,27
9.193;-1,39;-0,04;-0,56;-10,59;3,17;-3,54;-0,98;-1,25;-1,63;964,27
9.193;-1,05;0,17;-0,36;-10,59;3,17;-3,54;-0,98;-1,25;-1,63;964,27
9.193;-0,79;0,26;-0,23;-10,59;3,17;-3,54;-0,98;-1,25;-1,63;964,27
9.227;-0,79;0,26;-0,23;-10,59;3,17;-3,54;-0,98;-1,25;-1,63;964,25
9.247;-0,79;0,26;-0,23;-1,25;8,81;1,70;-0,98;-1,25;-1,63;964,25
9.248;-0,79;0,26;-0,23;-1,25;8,81;1,70;-0,87;-1,29;-0,77;964,25
9.254;-0,60;0,28;-0,18;-1,25;8,81;1,70;-0,87;-1,29;-0,77;964,25
9.254;-0,46;0,31;-0,18;-1,25;8,81;1,70;-0,87;-1,29;-0,77;964,25
9.255;-0,37;0,43;-0,20;-1,25;8,81;1,70;-0,87;-1,29;-0,77;964,25
9.31;-0,37;0,43;-0,20;3,07;10,32;1,80;-0,87;-1,29;-0,77;964,25
9.311;-0,37;0,43;-0,20;3,07;10,32;1,80;-0,24;-0,46;1,02;964,25
9.313;-0,31;0,64;-0,16;3,07;10,32;1,80;-0,24;-0,46;1,02;964,25
9.313;-0,35;0,69;-0,06;3,07;10,32;1,80;-0,24;-0,46;1,02;964,25
9.313;-0,45;0,65;-0,02;3,07;10,32;1,80;-0,24;-0,46;1,02;964,25
9.326;-0,45;0,65;-0,02;3,07;10,32;1,80;-0,24;-0,46;1,02;964,20
9.367;-0,45;0,65;-0,02;2,91;11,72;3,57;-0,24;-0,46;1,02;964,20
9.368;-0,45;0,65;-0,02;2,91;11,72;3,57;0,39;0,58;2,74;964,20
9.375;-0,56;0,52;-0,07;2,91;11,72;3,57;0,39;0,58;2,74;964,20
9.375;-0,74;0,40;-0,10;2,91;11,72;3,57;0,39;0,58;2,74;964,20
9.375;-0,93;0,17;-0,07;2,91;11,72;3,57;0,39;0,58;2,74;964,20
9.427;-0,93;0,17;-0,07;-1,03;5,71;3,10;0,39;0,58;2,74;964,20
9.428;-0,93;0,17;-0,07;-1,03;5,71;3,10;1,13;0,39;3,75;964,20
9.429;-0,93;0,17;-0,07;-1,03;5,71;3,10;1,13;0,39;3,75;964,21
9.434;-1,23;-0,04;-0,09;-1,03;5,71;3,10;1,13;0,39;3,75;964,21
9.434;-1,72;-0,19;-0,18;-1,03;5,71;3,10;1,13;0,39;3,75;964,21
9.434;-2,21;-0,44;-0,38;-1,03;5,71;3,10;1,13;0,39;3,75;964,21
9.489;-2,21;-0,44;-0,38;-13,01;-2,06;0,31;1,13;0,39;3,75;964,21
9.49;-2,21;-0,44;-0,38;-13,01;-2,06;0,31;1,41;1,32;4,34;964,21
9.493;-2,68;-0,71;-0,62;-13,01;-2,06;0,31;1,41;1,32;4,34;964,21
9.494;-2,81;-1,01;-0,70;-13,01;-2,06;0,31;1,41;1,32;4,34;964,21
9.494;-2,81;-1,11;-0,74;-13,01;-2,06;0,31;1,41;1,32;4,34;964,21
9.526;-2,81;-1,11;-0,74;-13,01;-2,06;0,31;1,41;1,32;4,34;964,30
9.547;-2,81;-1,11;-0,74;-18,80;-10,28;-2,81;1,41;1,32;4,34;964,30
9.548;-2,81;-1,11;-0,74;-18,80;-10,28;-2,81;1,17;0,39;3,14;964,30
9.553;-2,62;-1,17;-0,73;-18,80;-10,28;-2,81;1,17;0,39;3,14;964,30
9.553;-2,26;-1,24;-0,70;-18,80;-10,28;-2,81;1,17;0,39;3,14;964,30
9.554;-1,75;-1,07;-0,57;-18,80;-10,28;-2,81;1,17;0,39;3,14;964,30
9.606;-1,75;-1,07;-0,57;-8,38;-10,89;-1,13;1,17;0,39;3,14;964,30
9.606;-1,75;-1,07;-0,57;-8,38;-10,89;-1,13;1,41;0,24;1,75;964,30
9.62;-1,16;-0,84;-0,38;-8,38;-10,89;-1,13;1,41;0,24;1,75;964,30
9.62;-0,64;-0,59;-0,22;-8,38;-10,89;-1,13;1,41;0,24;1,75;964,30
9.62;-0,25;-0,41;-0,13;-8,38;-10,89;-1,13;1,41;0,24;1,75;964,30
9.625;-0,25;-0,41;-0,13;-8,38;-10,89;-1,13;1,41;0,24;1,75;964,30
9.666;-0,25;-0,41;-0,13;6,04;-4,74;3,56;1,41;0,24;1,75;964,30
9.667;-0,25;-0,41;-0,13;6,04;-4,74;3,56;1,48;0,97;0,80;964,30
9.674;0,02;-0,35;-0,07;6,04;-4,74;3,56;1,48;0,97;0,80;964,30
9.674;0,31;-0,42;0,02;6,04;-4,74;3,56;1,48;0,97;0,80;964,30
9.675;0,50;-0,46;0,06;6,04;-4,74;3,56;1,48;0,97;0,80;964,30
9.726;0,50;-0,46;0,06;13,24;-5,05;5,75;1,48;0,97;0,80;964,30
9.727;0,50;-0,46;0,06;13,24;-5,05;5,75;1,09;0,28;-0,48;964,30
9.728;0,50;-0,46;0,06;13,24;-5,05;5,75;1,09;0,28;-0,48;964,24
9.733;0,58;-0,45;0,10;13,24;-5,05;5,75;1,09;0,28;-0,48;964,24
9.734;0,61;-0,48;0,12;13,24;-5,05;5,75;1,09;0,28;-0,48;964,24
9.734;0,53;-0,52;0,12;13,24;-5,05;5,75;1,09;0,28;-0,48;964,24
9.787;0,53;-0,52;0,12;13,35;-4,78;6,64;1,09;0,28;-0,48;964,24
9.788;0,53;-0,52;0,12;13,35;-4,78;6,64;0,61;0,57;-1,61;964,24
9.795;0,37;-0,63;0,10;13,35;-4,78;6,64;0,61;0,57;-1,61;964,24
9.795;0,19;-0,77;-0,01;13,35;-4,78;6,64;0,61;0,57;-1,61;964,24
9.795;-0,12;-0,91;-0,15;13,35;-4,78;6,64;0,61;0,57;-1,61;964,24
9.826;-0,12;-0,91;-0,15;13,35;-4,78;6,64;0,61;0,57;-1,61;964,19
9.846;-0,12;-0,91;-0,15;6,78;-7,48;4,09;0,61;0,57;-1,61;964,19
9.847;-0,12;-0,91;-0,15;6,78;-7,48;4,09;0,14;-0,24;-3,14;964,19
9.852;-0,61;-1,09;-0,29;6,78;-7,48;4,09;0,14;-0,24;-3,14;964,19
9.854;-1,30;-1,26;-0,53;6,78;-7,48;4,09;0,14;-0,24;-3,14;964,19
9.854;-1,87;-1,39;-0,84;6,78;-7,48;4,09;0,14;-0,24;-3,14;964,19
9.909;-1,87;-1,39;-0,84;-10,55;-10,74;-2,98;0,14;-0,24;-3,14;964,19
9.91;-1,87;-1,39;-0,84;-10,55;-10,74;-2,98;-0,35;-0,83;-3,12;964,19
9.913;-2,14;-1,32;-1,07;-10,55;-10,74;-2,98;-0,35;-0,83;-3,12;964,19
9.913;-2,31;-1,12;-1,22;-10,55;-10,74;-2,98;-0,35;-0,83;-3,12;964,19
9.913;-2,21;-0,94;-1,19;-10,55;-10,74;-2,98;-0,35;-0,83;-3,12;964,19
9.927;-2,21;-0,94;-1,19;-10,55;-10,74;-2,98;-0,35;-0,83;-3,12;964,27
9.966;-2,21;-0,94;-1,19;-14,32;-5,21;-6,64;-0,35;-0,83;-3,12;964,27
9.967;-2,21;-0,94;-1,19;-14,32;-5,21;-6,64;-0,72;-0,86;-2,46;964,27
9.973;-2,01;-0,70;-1,11;-14,32;-5,21;-6,64;-0,72;-0,86;-2,46;964,27
9.974;-1,88;-0,49;-1,01;-14,32;-5,21;-6,64;-0,72;-0,86;-2,46;964,27
9.974;-1,68;-0,29;-0,88;-14,32;-5,21;-6,64;-0,72;-0,86;-2,46;964,27
10.027;-1,68;-0,29;-0,88;-9,48;1,86;-3,64;-0,72;-0,86;-2,46;964,27
10.027;-1,68;-0,29;-0,88;-9,48;1,86;-3,64;-0,80;-0,08;-1,39;964,27
10.028;-1,68;-0,29;-0,88;-9,48;1,86;-3,64;-0,80;-0,08;-1,39;964,29
10.033;-1,40;-0,09;-0,73;-9,48;1,86;-3,64;-0,80;-0,08;-1,39;964,29
10.034;-1,08;0,14;-0,63;-9,48;1,86;-3,64;-0,80;-0,08;-1,39;964,29
10.034;-0,82;0,34;-0,53;-9,48;1,86;-3,64;-0,80;-0,08;-1,39;964,29
10.086;-0,82;0,34;-0,53;-1,29;8,15;0,04;-0,80;-0,08;-1,39;964,29
10.087;-0,82;0,34;-0,53;-1,29;8,15;0,04;-0,62;0,26;0,00;964,29
10.093;-0,62;0,52;-0,47;-1,29;8,15;0,04;-0,62;0,26;0,00;964,29
10.094;-0,53;0,66;-0,35;-1,29;8,15;0,04;-0,62;0,26;0,00;964,29
10.095;-0,49;0,76;-0,26;-1,29;8,15;0,04;-0,62;0,26;0,00;964,29
10.127;-0,49;0,76;-0,26;-1,29;8,15;0,04;-0,62;0,26;0,00;964,24
10.146;-0,49;0,76;-0,26;2,03;11,79;3,04;-0,62;0,26;0,00;964,24
10.146;-0,49;0,76;-0,26;2,03;11,79;3,04;0,43;1,21;2,02;964,24
10.153;-0,49;0,88;-0,15;2,03;11,79;3,04;0,43;1,21;2,02;964,24
10.153;-0,52;0,86;-0,04;2,03;11,79;3,04;0,43;1,21;2,02;964,24
10.153;-0,66;0,75;0,05;2,03;11,79;3,04;0,43;1,21;2,02;964,24
10.206;-0,66;0,75;0,05;0,53;10,78;6,47;0,43;1,21;2,02;964,24
10.206;-0,66;0,75;0,05;0,53;10,78;6,47;1,47;1,65;3,66;964,24
10.213;-0,84;0,55;0,12;0,53;10,78;6,47;1,47;1,65;3,66;964,24
10.214;-1,06;0,34;0,16;0,53;10,78;6,47;1,47;1,65;3,66;964,24
10.214;-1,29;0,22;0,15;0,53;10,78;6,47;1,47;1,65;3,66;964,24
10.226;-1,29;0,22;0,15;0,53;10,78;6,47;1,47;1,65;3,66;964,23
10.267;-1,29;0,22;0,15;-5,61;4,66;7,87;1,47;1,65;3,66;964,23
10.268;-1,29;0,22;0,15;-5,61;4,66;7,87;1,97;1,97;4,04;964,23
10.274;-1,82;0,11;0,11;-5,61;4,66;7,87;1,97;1,97;4,04;964,23
10.274;-2,35;-0,11;0,10;-5,61;4,66;7,87;1,97;1,97;4,04;964,23
10.275;-2,75;-0,34;0,07;-5,61;4,66;7,87;1,97;1,97;4,04;964,23
10.326;-2,75;-0,34;0,07;-20,23;-1,89;7,63;1,97;1,97;4,04;964,23
10.327;-2,75;-0,34;0,07;-20,23;-1,89;7,63;2,01;0,81;4,42;964,23
10.328;-2,75;-0,34;0,07;-20,23;-1,89;7,63;2,01;0,81;4,42;964,30
10.337;-3,08;-0,64;-0,06;-20,23;-1,89;7,63;2,01;0,81;4,42;964,30
10.337;-3,17;-0,80;-0,17;-20,23;-1,89;7,63;2,01;0,81;4,42;964,30
10.338;-2,87;-0,88;-0,14;-20,23;-1,89;7,63;2,01;0,81;4,42;964,30
10.389;-2,87;-0,88;-0,14;-21,09;-7,98;5,45;2,01;0,81;4,42;964,30
10.39;-2,87;-0,88;-0,14;-21,09;-7,98;5,45;2,22;-0,48;3,47;964,30
10.394;-2,44;-0,88;-0,15;-21,09;-7,98;5,45;2,22;-0,48;3,47;964,30
10.394;-1,96;-0,83;-0,09;-21,09;-7,98;5,45;2,22;-0,48;3,47;964,30
10.394;-1,47;-0,77;-0,07;-21,09;-7,98;5,45;2,22;-0,48;3,47;964,30
10.427;-1,47;-0,77;-0,07;-21,09;-7,98;5,45;2,22;-0,48;3,47;964,32
10.445;-1,47;-0,77;-0,07;-7,22;-7,19;5,96;2,22;-0,48;3,47;964,32
10.446;-1,47;-0,77;-0,07;-7,22;-7,19;5,96;2,30;0,10;2,42;964,32
10.455;-0,95;-0,71;-0,06;-7,22;-7,19;5,96;2,30;0,10;2,42;964,32
10.456;-0,56;-0,67;-0,04;-7,22;-7,19;5,96;2,30;0,10;2,42;964,32
10.457;-0,25;-0,67;-0,01;-7,22;-7,19;5,96;2,30;0,10;2,42;964,32
10.506;-0,25;-0,67;-0,01;4,78;-6,27;6,56;2,30;0,10;2,42;964,32
10.507;-0,25;-0,67;-0,01;4,78;-6,27;6,56;2,22;0,17;2,01;964,32
10.513;0,04;-0,72;-0,01;4,78;-6,27;6,56;2,22;0,17;2,01;964,32
10.513;0,29;-0,74;-0,05;4,78;-6,27;6,56;2,22;0,17;2,01;964,32
10.513;0,46;-0,75;-0,09;4,78;-6,27;6,56;2,22;0,17;2,01;964,32
10.529;0,46;-0,75;-0,09;4,78;-6,27;6,56;2,22;0,17;2,01;964,23
10.568;0,46;-0,75;-0,09;11,63;-6,91;5,82;2,22;0,17;2,01;964,23
10.569;0,46;-0,75;-0,09;11,63;-6,91;5,82;1,37;0,35;0,14;964,23
10.574;0,51;-0,80;-0,08;11,63;-6,91;5,82;1,37;0,35;0,14;964,23
10.575;0,39;-0,91;-0,04;11,63;-6,91;5,82;1,37;0,35;0,14;964,23
10.575;0,34;-0,88;-0,09;11,63;-6,91;5,82;1,37;0,35;0,14;964,23
10.627;0,34;-0,88;-0,09;10,24;-7,45;5,91;1,37;0,35;0,14;964,23
10.628;0,34;-0,88;-0,09;10,24;-7,45;5,91;0,92;0,35;-1,63;964,23
10.628;0,34;-0,88;-0,09;10,24;-7,45;5,91;0,92;0,35;-1,63;964,27
10.642;0,19;-0,85;-0,13;10,24;-7,45;5,91;0,92;0,35;-1,63;964,27
10.643;-0,12;-0,85;-0,18;10,24;-7,45;5,91;0,92;0,35;-1,63;964,27
10.643;-0,70;-0,98;-0,30;10,24;-7,45;5,91;0,92;0,35;-1,63;964,27
10.687;-0,70;-0,98;-0,30;-0,30;-6,92;3,84;0,92;0,35;-1,63;964,27
10.688;-0,70;-0,98;-0,30;-0,30;-6,92;3,84;1,18;-0,53;-3,28;964,27
10.693;-1,37;-1,09;-0,56;-0,30;-6,92;3,84;1,18;-0,53;-3,28;964,27
10.693;-1,81;-1,10;-0,78;-0,30;-6,92;3,84;1,18;-0,53;-3,28;964,27
10.693;-2,18;-1,09;-0,87;-0,30;-6,92;3,84;1,18;-0,53;-3,28;964,27
10.727;-2,18;-1,09;-0,87;-0,30;-6,92;3,84;1,18;-0,53;-3,28;964,27
10.746;-2,18;-1,09;-0,87;-15,37;-6,31;-2,13;1,18;-0,53;-3,28;964,27
10.747;-2,18;-1,09;-0,87;-15,37;-6,31;-2,13;0,72;0,20;-3,47;964,27
10.753;-2,41;-1,10;-1,00;-15,37;-6,31;-2,13;0,72;0,20;-3,47;964,27
10.754;-2,39;-0,97;-1,09;-15,37;-6,31;-2,13;0,72;0,20;-3,47;964,27
10.754;-2,30;-0,82;-1,06;-15,37;-6,31;-2,13;0,72;0,20;-3,47;964,27
10.805;-2,30;-0,82;-1,06;-17,44;-2,38;-4,22;0,72;0,20;-3,47;964,27
10.807;-2,30;-0,82;-1,06;-17,44;-2,38;-4,22;0,21;-1,33;-2,90;964,27
10.815;-2,09;-0,64;-1,01;-17,44;-2,38;-4,22;0,21;-1,33;-2,90;964,27
10.815;-1,78;-0,44;-0,88;-17,44;-2,38;-4,22;0,21;-1,33;-2,90;964,27
10.816;-1,42;-0,16;-0,84;-17,44;-2,38;-4,22;0,21;-1,33;-2,90;964,27
10.826;-1,42;-0,16;-0,84;-17,44;-2,38;-4,22;0,21;-1,33;-2,90;964,32
10.866;-1,42;-0,16;-0,84;-9,42;4,76;-2,24;0,21;-1,33;-2,90;964,32
10.868;-1,42;-0,16;-0,84;-9,42;4,76;-2,24;-0,78;0,08;-1,77;964,32
10.874;-1,10;0,14;-0,72;-9,42;4,76;-2,24;-0,78;0,08;-1,77;964,32
10.874;-0,86;0,47;-0,59;-9,42;4,76;-2,24;-0,78;0,08;-1,77;964,32
10.874;-0,74;0,69;-0,38;-9,42;4,76;-2,24;-0,78;0,08;-1,77;964,32
10.926;-0,74;0,69;-0,38;-2,99;13,07;2,54;-0,78;0,08;-1,77;964,32
10.927;-0,74;0,69;-0,38;-2,99;13,07;2,54;-0,02;-0,59;0,33;964,32
10.927;-0,74;0,69;-0,38;-2,99;13,07;2,54;-0,02;-0,59;0,33;964,25
10.933;-0,64;0,77;-0,20;-2,99;13,07;2,54;-0,02;-0,59;0,33;964,25
10.934;-0,55;0,82;-0,10;-2,99;13,07;2,54;-0,02;-0,59;0,33;964,25
10.934;-0,44;0,89;-0,06;-2,99;13,07;2,54;-0,02;-0,59;0,33;964,25
10.989;-0,44;0,89;-0,06;0,39;14,81;5,51;-0,02;-0,59;0,33;964,25
10.99;-0,44;0,89;-0,06;0,39;14,81;5,51;1,35;1,31;2,46;964,25
10.994;-0,47;0,86;-0,09;0,39;14,81;5,51;1,35;1,31;2,46;964,25
10.994;-0,53;0,74;-0,10;0,39;14,81;5,51;1,35;1,31;2,46;964,25
10.994;-0,67;0,57;-0,11;0,39;14,81;5,51;1,35;1,31;2,46;964,25
11.028;-0,67;0,57;-0,11;0,39;14,81;5,51;1,35;1,31;2,46;964,25
11.045;-0,67;0,57;-0,11;-1,28;11,35;4,84;1,35;1,31;2,46;964,25
11.046;-0,67;0,57;-0,11;-1,28;11,35;4,84;1,94;1,72;3,18;964,25
11.053;-0,93;0,29;-0,07;-1,28;11,35;4,84;1,94;1,72;3,18;964,25
11.053;-1,33;-0,07;-0,04;-1,28;11,35;4,84;1,94;1,72;3,18;964,25
11.053;-1,86;-0,39;0,02;-1,28;11,35;4,84;1,94;1,72;3,18;964,25
11.106;-1,86;-0,39;0,02;-12,70;1,52;6,25;1,94;1,72;3,18;964,25
11.107;-1,86;-0,39;0,02;-12,70;1,52;6,25;2,22;2,47;4,16;964,25
11.113;-2,45;-0,81;-0,01;-12,70;1,52;6,25;2,22;2,47;4,16;964,25
11.113;-2,82;-1,21;-0,12;-12,70;1,52;6,25;2,22;2,47;4,16;964,25
11.114;-3,09;-1,33;-0,17;-12,70;1,52;6,25;2,22;2,47;4,16;964,25
11.125;-3,09;-1,33;-0,17;-12,70;1,52;6,25;2,22;2,47;4,16;964,26
11.166;-3,09;-1,33;-0,17;-24,00;-8,32;4,21;2,22;2,47;4,16;964,26
11.166;-3,09;-1,33;-0,17;-24,00;-8,32;4,21;1,70;0,76;3,67;964,26
11.172;-3,11;-1,43;-0,07;-24,00;-8,32;4,21;1,70;0,76;3,67;964,26
11.173;-2,87;-1,53;-0,01;-24,00;-8,32;4,21;1,70;0,76;3,67;964,26
11.173;-2,42;-1,43;0,05;-24,00;-8,32;4,21;1,70;0,76;3,67;964,26
11.226;-2,42;-1,43;0,05;-16,64;-10,11;6,10;1,70;0,76;3,67;964,26
11.227;-2,42;-1,43;0,05;-16,64;-10,11;6,10;2,04;-0,17;3,21;964,26
11.227;-2,42;-1,43;0,05;-16,64;-10,11;6,10;2,04;-0,17;3,21;964,25
11.234;-1,87;-1,22;0,06;-16,64;-10,11;6,10;2,04;-0,17;3,21;964,25
11.234;-1,43;-1,08;0,06;-16,64;-10,11;6,10;2,04;-0,17;3,21;964,25
11.235;-0,93;-0,94;0,08;-16,64;-10,11;6,10;2,04;-0,17;3,21;964,25
11.285;-0,93;-0,94;0,08;-1,55;-5,87;6,00;2,04;-0,17;3,21;964,25
11.286;-0,93;-0,94;0,08;-1,55;-5,87;6,00;2,18;0,74;2,21;964,25
11.293;-0,53;-0,77;0,08;-1,55;-5,87;6,00;2,18;0,74;2,21;964,25
11.294;-0,16;-0,69;0,16;-1,55;-5,87;6,00;2,18;0,74;2,21;964,25
11.294;0,14;-0,66;0,14;-1,55;-5,87;6,00;2,18;0,74;2,21;964,25
11.326;0,14;-0,66;0,14;-1,55;-5,87;6,00;2,18;0,74;2,21;964,25
11.346;0,14;-0,66;0,14;9,16;-3,28;6,51;2,18;0,74;2,21;964,25
11.346;0,14;-0,66;0,14;9,16;-3,28;6,51;1,80;0,57;1,18;964,25
11.355;0,40;-0,62;0,08;9,16;-3,28;6,51;1,80;0,57;1,18;964,25
11.355;0,57;-0,57;0,08;9,16;-3,28;6,51;1,80;0,57;1,18;964,25
11.355;0,63;-0,58;0,09;9,16;-3,28;6,51;1,80;0,57;1,18;964,25
11.407;0,63;-0,58;0,09;13,79;-2,25;5,96;1,80;0,57;1,18;964,25
11.408;0,63;-0,58;0,09;13,79;-2,25;5,96;1,43;0,62;-0,61;964,25
11.413;0,62;-0,62;0,05;13,79;-2,25;5,96;1,43;0,62;-0,61;964,25
11.413;0,55;-0,70;-0,03;13,79;-2,25;5,96;1,43;0,62;-0,61;964,25
11.414;0,37;-0,77;-0,15;13,79;-2,25;5,96;1,43;0,62;-0,61;964,25
11.425;0,37;-0,77;-0,15;13,79;-2,25;5,96;1,43;0,62;-0,61;964,20
11.467;0,37;-0,77;-0,15;10,81;-3,10;3,44;1,43;0,62;-0,61;964,20
11.468;0,37;-0,77;-0,15;10,81;-3,10;3,44;1,12;0,59;-2,33;964,20
11.473;0,12;-0,86;-0,27;10,81;-3,10;3,44;1,12;0,59;-2,33;964,20
11.474;-0,34;-1,04;-0,31;10,81;-3,10;3,44;1,12;0,59;-2,33;964,20
11.474;-1,10;-1,40;-0,47;10,81;-3,10;3,44;1,12;0,59;-2,33;964,20
11.525;-1,10;-1,40;-0,47;-4,64;-7,87;0,44;1,12;0,59;-2,33;964,20
11.526;-1,10;-1,40;-0,47;-4,64;-7,87;0,44;0,72;-0,35;-2,67;964,20
11.527;-1,10;-1,40;-0,47;-4,64;-7,87;0,44;0,72;-0,35;-2,67;964,27
11.533;-1,92;-1,54;-0,95;-4,64;-7,87;0,44;0,72;-0,35;-2,67;964,27
11.534;-2,35;-1,38;-1,17;-4,64;-7,87;0,44;0,72;-0,35;-2,67;964,27
11.534;-2,32;-1,14;-0,95;-4,64;-7,87;0,44;0,72;-0,35;-2,67;964,27
11.587;-2,32;-1,14;-0,95;-17,38;-4,34;-4,74;0,72;-0,35;-2,67;964,27
11.588;-2,32;-1,14;-0,95;-17,38;-4,34;-4,74;0,18;-0,04;-1,91;964,27
11.595;-2,18;-0,88;-0,79;-17,38;-4,34;-4,74;0,18;-0,04;-1,91;964,27
11.595;-1,99;-0,62;-0,73;-17,38;-4,34;-4,74;0,18;-0,04;-1,91;964,27
11.595;-1,77;-0,37;-0,67;-17,38;-4,34;-4,74;0,18;-0,04;-1,91;964,27
11.626;-1,77;-0,37;-0,67;-17,38;-4,34;-4,74;0,18;-0,04;-1,91;964,27
11.646;-1,77;-0,37;-0,67;-12,67;3,64;-1,98;0,18;-0,04;-1,91;964,27
11.646;-1,77;-0,37;-0,67;-12,67;3,64;-1,98;0,07;-0,65;-0,95;964,27
11.653;-1,60;-0,17;-0,54;-12,67;3,64;-1,98;0,07;-0,65;-0,95;964,27
11.654;-1,49;-0,07;-0,32;-12,67;3,64;-1,98;0,07;-0,65;-0,95;964,27
11.654;-1,34;-0,00;-0,19;-12,67;3,64;-1,98;0,07;-0,65;-0,95;964,27
11.707;-1,34;-0,00;-0,19;-8,34;7,30;2,54;0,07;-0,65;-0,95;964,27
11.708;-1,34;-0,00;-0,19;-8,34;7,30;2,54;0,25;-0,22;0,99;964,27
11.713;-1,19;0,10;-0,20;-8,34;7,30;2,54;0,25;-0,22;0,99;964,27
11.713;-0,91;0,28;-0,20;-8,34;7,30;2,54;0,25;-0,22;0,99;964,27
11.713;-0,62;0,46;-0,13;-8,34;7,30;2,54;0,25;-0,22;0,99;964,27
11.726;-0,62;0,46;-0,13;-8,34;7,30;2,54;0,25;-0,22;0,99;964,24
11.765;-0,62;0,46;-0,13;-0,53;11,39;2,85;0,25;-0,22;0,99;964,24
11.766;-0,62;0,46;-0,13;-0,53;11,39;2,85;0,99;-0,02;2,48;964,24
11.777;-0,42;0,57;-0,06;-0,53;11,39;2,85;0,99;-0,02;2,48;964,24
11.777;-0,29;0,58;-0,03;-0,53;11,39;2,85;0,99;-0,02;2,48;964,24
11.778;-0,21;0,52;-0,02;-0,53;11,39;2,85;0,99;-0,02;2,48;964,24
11.828;-0,21;0,52;-0,02;4,65;11,22;3,52;0,99;-0,02;2,48;964,24
11.829;-0,21;0,52;-0,02;4,65;11,22;3,52;1,44;0,74;3,42;964,24
11.829;-0,21;0,52;-0,02;4,65;11,22;3,52;1,44;0,74;3,42;964,24
11.834;-0,30;0,36;-0,05;4,65;11,22;3,52;1,44;0,74;3,42;964,24
11.834;-0,44;0,27;-0,07;4,65;11,22;3,52;1,44;0,74;3,42;964,24
11.834;-0,65;0,18;-0,14;4,65;11,22;3,52;1,44;0,74;3,42;964,24
11.886;-0,65;0,18;-0,14;1,28;6,66;2,34;1,44;0,74;3,42;964,24
11.887;-0,65;0,18;-0,14;1,28;6,66;2,34;1,16;1,38;3,70;964,24
11.895;-1,10;0,10;-0,19;1,28;6,66;2,34;1,16;1,38;3,70;964,24
11.895;-1,75;-0,02;-0,21;1,28;6,66;2,34;1,16;1,38;3,70;964,24
11.895;-2,52;-0,32;-0,27;1,28;6,66;2,34;1,16;1,38;3,70;964,24
11.926;-2,52;-0,32;-0,27;1,28;6,66;2,34;1,16;1,38;3,70;964,24
11.947;-2,52;-0,32;-0,27;-16,42;0,16;1,46;1,16;1,38;3,70;964,24
11.948;-2,52;-0,32;-0,27;-16,42;0,16;1,46;0,32;0,61;3,76;964,24
11.955;-3,08;-0,78;-0,35;-16,42;0,16;1,46;0,32;0,61;3,76;964,24
11.955;-3,13;-0,98;-0,39;-16,42;0,16;1,46;0,32;0,61;3,76;964,24
11.956;-2,93;-1,04;-0,31;-16,42;0,16;1,46;0,32;0,61;3,76;964,24
12.005;-2,93;-1,04;-0,31;-19,93;-8,59;1,08;0,32;0,61;3,76;964,24
12.005;-2,93;-1,04;-0,31;-19,93;-8,59;1,08;0,45;-0,49;2,83;964,24
12.012;-2,53;-0,97;-0,21;-19,93;-8,59;1,08;0,45;-0,49;2,83;964,24
12.013;-2,13;-0,89;-0,16;-19,93;-8,59;1,08;0,45;-0,49;2,83;964,24
12.013;-1,71;-0,74;-0,15;-19,93;-8,59;1,08;0,45;-0,49;2,83;964,24
12.027;-1,71;-0,74;-0,15;-19,93;-8,59;1,08;0,45;-0,49;2,83;964,33
12.067;-1,71;-0,74;-0,15;-7,68;-6,75;2,23;0,45;-0,49;2,83;964,33
12.067;-1,71;-0,74;-0,15;-7,68;-6,75;2,23;1,04;-0,84;1,65;964,33
12.074;-1,22;-0,59;-0,13;-7,68;-6,75;2,23;1,04;-0,84;1,65;964,33
12.075;-0,80;-0,48;-0,09;-7,68;-6,75;2,23;1,04;-0,84;1,65;964,33
12.075;-0,39;-0,38;-0,08;-7,68;-6,75;2,23;1,04;-0,84;1,65;964,33
12.127;-0,39;-0,38;-0,08;-7,68;-6,75;2,23;1,04;-0,84;1,65;964,19
12.128;-0,39;-0,38;-0,08;5,39;-3,64;2,48;1,04;-0,84;1,65;964,19
12.128;-0,39;-0,38;-0,08;5,39;-3,64;2,48;1,36;-0,43;0,91;964,19
12.134;-0,06;-0,40;-0,05;5,39;-3,64;2,48;1,36;-0,43;0,91;964,19
12.134;0,26;-0,40;-0,09;5,39;-3,64;2,48;1,36;-0,43;0,91;964,19
12.134;0,50;-0,43;-0,14;5,39;-3,64;2,48;1,36;-0,43;0,91;964,19
12.188;0,50;-0,43;-0,14;14,11;-4,28;1,81;1,36;-0,43;0,91;964,19
12.189;0,50;-0,43;-0,14;14,11;-4,28;1,81;0,80;0,36;-0,03;964,19
12.194;0,63;-0,42;-0,17;14,11;-4,28;1,81;0,80;0,36;-0,03;964,19
12.194;0,63;-0,45;-0,10;14,11;-4,28;1,81;0,80;0,36;-0,03;964,19
12.194;0,47;-0,55;-0,07;14,11;-4,28;1,81;0,80;0,36;-0,03;964,19
12.229;0,47;-0,55;-0,07;14,11;-4,28;1,81;0,80;0,36;-0,03;964,19
12.253;0,47;-0,55;-0,07;13,82;-4,90;2,69;0,80;0,36;-0,03;964,19
12.254;0,47;-0,55;-0,07;13,82;-4,90;2,69;0,39;0,18;-1,61;964,19
12.254;0,30;-0,69;-0,09;13,82;-4,90;2,69;0,39;0,18;-1,61;964,19
12.254;0,07;-0,84;-0,14;13,82;-4,90;2,69;0,39;0,18;-1,61;964,19
12.255;-0,24;-0,88;-0,33;13,82;-4,90;2,69;0,39;0,18;-1,61;964,19
12.307;-0,24;-0,88;-0,33;6,60;-6,96;0,32;0,39;0,18;-1,61;964,19
12.308;-0,24;-0,88;-0,33;6,60;-6,96;0,32;0,39;0,18;-2,92;964,19
12.313;-0,92;-1,10;-0,35;6,60;-6,96;0,32;0,39;0,18;-2,92;964,19
12.313;-1,66;-1,19;-0,58;6,60;-6,96;0,32;0,39;0,18;-2,92;964,19
12.313;-2,02;-1,23;-0,77;6,60;-6,96;0,32;0,39;0,18;-2,92;964,19
12.326;-2,02;-1,23;-0,77;6,60;-6,96;0,32;0,39;0,18;-2,92;964,20
12.366;-2,02;-1,23;-0,77;-11,27;-8,61;-4,20;0,39;0,18;-2,92;964,20
12.367;-2,02;-1,23;-0,77;-11,27;-8,61;-4,20;0,19;-0,24;-3,40;964,20
12.373;-2,28;-1,11;-0,85;-11,27;-8,61;-4,20;0,19;-0,24;-3,40;964,20
12.373;-2,52;-1,11;-0,89;-11,27;-8,61;-4,20;0,19;-0,24;-3,40;964,20
12.374;-2,43;-1,04;-0,78;-11,27;-8,61;-4,20;0,19;-0,24;-3,40;964,20
12.425;-2,43;-1,04;-0,78;-11,27;-8,61;-4,20;0,19;-0,24;-3,40;964,23
12.426;-2,43;-1,04;-0,78;-15,99;-5,14;-4,53;0,19;-0,24;-3,40;964,23
12.426;-2,43;-1,04;-0,78;-15,99;-5,14;-4,53;-0,41;-1,43;-3,25;964,23
12.436;-2,24;-0,86;-0,70;-15,99;-5,14;-4,53;-0,41;-1,43;-3,25;964,23
12.437;-1,98;-0,64;-0,56;-15,99;-5,14;-4,53;-0,41;-1,43;-3,25;964,23
12.437;-1,67;-0,34;-0,45;-15,99;-5,14;-4,53;-0,41;-1,43;-3,25;964,23
12.485;-1,67;-0,34;-0,45;-9,34;2,88;-1,51;-0,41;-1,43;-3,25;964,23
12.487;-1,67;-0,34;-0,45;-9,34;2,88;-1,51;-1,09;-0,41;-2,51;964,23
12.495;-1,34;-0,05;-0,30;-9,34;2,88;-1,51;-1,09;-0,41;-2,51;964,23
12.495;-1,10;0,19;-0,19;-9,34;2,88;-1,51;-1,09;-0,41;-2,51;964,23
12.495;-0,95;0,36;-0,15;-9,34;2,88;-1,51;-1,09;-0,41;-2,51;964,23
12.527;-0,95;0,36;-0,15;-9,34;2,88;-1,51;-1,09;-0,41;-2,51;964,23
12.547;-0,95;0,36;-0,15;-2,93;10,41;1,46;-1,09;-0,41;-2,51;964,23
12.547;-0,95;0,36;-0,15;-2,93;10,41;1,46;-0,65;-1,22;-1,02;964,23
12.553;-0,70;0,56;-0,10;-2,93;10,41;1,46;-0,65;-1,22;-1,02;964,23
12.553;-0,44;0,75;-0,09;-2,93;10,41;1,46;-0,65;-1,22;-1,02;964,23
12.553;-0,36;1,00;-0,03;-2,93;10,41;1,46;-0,65;-1,22;-1,02;964,23
12.608;-0,36;1,00;-0,03;3,07;16,52;2,51;-0,65;-1,22;-1,02;964,23
12.609;-0,36;1,00;-0,03;3,07;16,52;2,51;0,53;0,08;1,44;964,23
12.613;-0,31;1,03;0,05;3,07;16,52;2,51;0,53;0,08;1,44;964,23
12.613;-0,34;1,00;0,06;3,07;16,52;2,51;0,53;0,08;1,44;964,23
12.614;-0,41;0,88;-0,01;3,07;16,52;2,51;0,53;0,08;1,44;964,23
12.625;-0,41;0,88;-0,01;3,07;16,52;2,51;0,53;0,08;1,44;964,20
12.667;-0,41;0,88;-0,01;3,38;14,59;2,42;0,53;0,08;1,44;964,20
12.667;-0,41;0,88;-0,01;3,38;14,59;2,42;1,13;0,29;2,83;964,20
12.675;-0,45;0,69;-0,03;3,38;14,59;2,42;1,13;0,29;2,83;964,20
12.675;-0,60;0,48;-0,06;3,38;14,59;2,42;1,13;0,29;2,83;964,20
12.676;-0,78;0,23;-0,17;3,38;14,59;2,42;1,13;0,29;2,83;964,20
12.729;-0,78;0,23;-0,17;3,38;14,59;2,42;1,13;0,29;2,83;964,31
12.73;-0,78;0,23;-0,17;0,66;6,80;0,87;1,13;0,29;2,83;964,31
12.73;-0,78;0,23;-0,17;0,66;6,80;0,87;1,41;1,28;3,34;964,31
12.733;-1,17;0,16;-0,20;0,66;6,80;0,87;1,41;1,28;3,34;964,31
12.733;-1,84;-0,01;-0,19;0,66;6,80;0,87;1,41;1,28;3,34;964,31
12.733;-2,69;-0,42;-0,43;0,66;6,80;0,87;1,41;1,28;3,34;964,31
12.787;-2,69;-0,42;-0,43;-17,48;-1,26;-1,10;1,41;1,28;3,34;964,31
12.789;-2,69;-0,42;-0,43;-17,48;-1,26;-1,10;0,92;2,10;4,08;964,31
12.794;-3,00;-0,76;-0,64;-17,48;-1,26;-1,10;0,92;2,10;4,08;964,31
12.794;-3,18;-0,90;-0,69;-17,48;-1,26;-1,10;0,92;2,10;4,08;964,31
12.795;-3,02;-1,01;-0,58;-17,48;-1,26;-1,10;0,92;2,10;4,08;964,31
12.825;-3,02;-1,01;-0,58;-17,48;-1,26;-1,10;0,92;2,10;4,08;964,31
12.847;-3,02;-1,01;-0,58;-20,62;-8,85;-1,83;0,92;2,10;4,08;964,31
12.847;-3,02;-1,01;-0,58;-20,62;-8,85;-1,83;0,81;0,51;2,81;964,31
12.853;-2,65;-1,13;-0,58;-20,62;-8,85;-1,83;0,81;0,51;2,81;964,31
12.854;-2,17;-1,13;-0,55;-20,62;-8,85;-1,83;0,81;0,51;2,81;964,31
12.854;-1,50;-1,03;-0,42;-20,62;-8,85;-1,83;0,81;0,51;2,81;964,31
12.907;-1,50;-1,03;-0,42;-5,76;-9,99;-0,14;0,81;0,51;2,81;964,31
12.908;-1,50;-1,03;-0,42;-5,76;-9,99;-0,14;0,90;0,44;1,08;964,31
12.915;-0,86;-0,82;-0,31;-5,76;-9,99;-0,14;0,90;0,44;1,08;964,31
12.915;-0,45;-0,63;-0,18;-5,76;-9,99;-0,14;0,90;0,44;1,08;964,31
12.916;-0,16;-0,54;-0,06;-5,76;-9,99;-0,14;0,90;0,44;1,08;964,31
12.925;-0,16;-0,54;-0,06;-5,76;-9,99;-0,14;0,90;0,44;1,08;964,33
12.967;-0,16;-0,54;-0,06;7,21;-5,18;3,74;0,90;0,44;1,08;964,33
12.968;-0,16;-0,54;-0,06;7,21;-5,18;3,74;0,72;0,38;-0,21;964,33
12.973;0,07;-0,46;0,00;7,21;-5,18;3,74;0,72;0,38;-0,21;964,33
12.973;0,23;-0,47;0,03;7,21;-5,18;3,74;0,72;0,38;-0,21;964,33
12.973;0,34;-0,44;0,08;7,21;-5,18;3,74;0,72;0,38;-0,21;964,33
13.025;0,34;-0,44;0,08;7,21;-5,18;3,74;0,72;0,38;-0,21;964,24
13.026;0,34;-0,44;0,08;12,18;-3,80;5,02;0,72;0,38;-0,21;964,24
13.027;0,34;-0,44;0,08;12,18;-3,80;5,02;-0,01;-0,37;-1,23;964,24
13.032;0,40;-0,42;0,14;12,18;-3,80;5,02;-0,01;-0,37;-1,23;964,24
13.033;0,42;-0,41;0,19;12,18;-3,80;5,02;-0,01;-0,37;-1,23;964,24
13.033;0,29;-0,47;0,22;12,18;-3,80;5,02;-0,01;-0,37;-1,23;964,24
13.086;0,29;-0,47;0,22;11,70;-3,30;6,26;-0,01;-0,37;-1,23;964,24
13.087;0,29;-0,47;0,22;11,70;-3,30;6,26;-0,48;-0,68;-1,65;964,24
13.094;0,13;-0,59;0,18;11,70;-3,30;6,26;-0,48;-0,68;-1,65;964,24
13.095;-0,16;-0,69;0,08;11,70;-3,30;6,26;-0,48;-0,68;-1,65;964,24
13.095;-0,48;-0,75;-0,11;11,70;-3,30;6,26;-0,48;-0,68;-1,65;964,24
13.126;-0,48;-0,75;-0,11;11,70;-3,30;6,26;-0,48;-0,68;-1,65;964,24
13.146;-0,48;-0,75;-0,11;4,16;-5,43;2,70;-0,48;-0,68;-1,65;964,24
13.146;-0,48;-0,75;-0,11;4,16;-5,43;2,70;-1,62;-0,89;-2,25;964,24
13.157;-1,02;-0,86;-0,29;4,16;-5,43;2,70;-1,62;-0,89;-2,25;964,24
13.157;-1,61;-0,93;-0,29;4,16;-5,43;2,70;-1,62;-0,89;-2,25;964,24
13.158;-1,92;-0,91;-0,52;4,16;-5,43;2,70;-1,62;-0,89;-2,25;964,24
13.206;-1,92;-0,91;-0,52;-9,93;-6,17;-2,15;-1,62;-0,89;-2,25;964,24
13.207;-1,92;-0,91;-0,52;-9,93;-6,17;-2,15;-2,05;-2,08;-2,18;964,24
13.214;-2,12;-0,79;-0,61;-9,93;-6,17;-2,15;-2,05;-2,08;-2,18;964,24
13.215;-2,27;-0,64;-0,61;-9,93;-6,17;-2,15;-2,05;-2,08;-2,18;964,24
13.215;-2,25;-0,57;-0,60;-9,93;-6,17;-2,15;-2,05;-2,08;-2,18;964,24
13.226;-2,25;-0,57;-0,60;-9,93;-6,17;-2,15;-2,05;-2,08;-2,18;964,33
13.265;-2,25;-0,57;-0,60;-13,33;-2,16;-3,05;-2,05;-2,08;-2,18;964,33
13.266;-2,25;-0,57;-0,60;-13,33;-2,16;-3,05;-2,13;-0,56;-1,67;964,33
13.273;-2,10;-0,41;-0,67;-13,33;-2,16;-3,05;-2,13;-0,56;-1,67;964,33
13.273;-1,87;-0,22;-0,69;-13,33;-2,16;-3,05;-2,13;-0,56;-1,67;964,33
13.273;-1,60;-0,03;-0,54;-13,33;-2,16;-3,05;-2,13;-0,56;-1,67;964,33
13.327;-1,60;-0,03;-0,54;-13,33;-2,16;-3,05;-2,13;-0,56;-1,67;964,30
13.328;-1,60;-0,03;-0,54;-7,15;3,55;-2,40;-2,13;-0,56;-1,67;964,30
13.328;-1,60;-0,03;-0,54;-7,15;3,55;-2,40;-1,97;-0,33;-1,16;964,30
13.334;-1,28;0,19;-0,41;-7,15;3,55;-2,40;-1,97;-0,33;-1,16;964,30
13.334;-1,03;0,33;-0,29;-7,15;3,55;-2,40;-1,97;-0,33;-1,16;964,30
13.335;-0,88;0,37;-0,18;-7,15;3,55;-2,40;-1,97;-0,33;-1,16;964,30
13.388;-0,88;0,37;-0,18;-0,21;7,54;1,40;-1,97;-0,33;-1,16;964,30
13.389;-0,88;0,37;-0,18;-0,21;7,54;1,40;-1,54;-0,82;-0,31;964,30
13.394;-0,67;0,31;-0,15;-0,21;7,54;1,40;-1,54;-0,82;-0,31;964,30
13.394;-0,49;0,27;-0,14;-0,21;7,54;1,40;-1,54;-0,82;-0,31;964,30
13.394;-0,37;0,23;-0,15;-0,21;7,54;1,40;-1,54;-0,82;-0,31;964,30
13.425;-0,37;0,23;-0,15;-0,21;7,54;1,40;-1,54;-0,82;-0,31;964,30
13.448;-0,37;0,23;-0,15;5,02;5,85;1,37;-1,54;-0,82;-0,31;964,30
13.449;-0,37;0,23;-0,15;5,02;5,85;1,37;-0,59;-0,96;0,59;964,30
13.453;-0,26;0,19;-0,05;5,02;5,85;1,37;-0,59;-0,96;0,59;964,30
13.453;-0,15;0,22;0,02;5,02;5,85;1,37;-0,59;-0,96;0,59;964,30
13.453;-0,15;0,24;-0,04;5,02;5,85;1,37;-0,59;-0,96;0,59;964,30
13.505;-0,15;0,24;-0,04;7,41;5,55;2,24;-0,59;-0,96;0,59;964,30
13.506;-0,15;0,24;-0,04;7,41;5,55;2,24;0,16;-0,48;0,99;964,30
13.517;-0,29;0,23;-0,11;7,41;5,55;2,24;0,16;-0,48;0,99;964,30
13.518;-0,41;0,08;-0,18;7,41;5,55;2,24;0,16;-0,48;0,99;964,30
13.518;-0,58;0,02;-0,21;7,41;5,55;2,24;0,16;-0,48;0,99;964,30
13.525;-0,58;0,02;-0,21;7,41;5,55;2,24;0,16;-0,48;0,99;964,27
13.567;-0,58;0,02;-0,21;3,43;2,85;0,40;0,16;-0,48;0,99;964,27
13.567;-0,58;0,02;-0,21;3,43;2,85;0,40;0,23;0,81;0,58;964,27
13.572;-0,96;-0,04;-0,26;3,43;2,85;0,40;0,23;0,81;0,58;964,27
13.573;-1,48;-0,14;-0,31;3,43;2,85;0,40;0,23;0,81;0,58;964,27
13.573;-1,87;-0,36;-0,37;3,43;2,85;0,40;0,23;0,81;0,58;964,27
13.628;-1,87;-0,36;-0,37;3,43;2,85;0,40;0,23;0,81;0,58;964,34
13.629;-1,87;-0,36;-0,37;-9,25;-1,17;-0,80;0,23;0,81;0,58;964,34
13.629;-1,87;-0,36;-0,37;-9,25;-1,17;-0,80;0,96;0,37;0,86;964,34
13.634;-2,06;-0,40;-0,46;-9,25;-1,17;-0,80;0,96;0,37;0,86;964,34
13.634;-2,16;-0,40;-0,48;-9,25;-1,17;-0,80;0,96;0,37;0,86;964,34
13.635;-2,11;-0,39;-0,40;-9,25;-1,17;-0,80;0,96;0,37;0,86;964,34
13.686;-2,11;-0,39;-0,40;-11,54;-1,72;-0,93;0,96;0,37;0,86;964,34
13.686;-2,11;-0,39;-0,40;-11,54;-1,72;-0,93;1,54;0,99;0,71;964,34
13.694;-2,04;-0,37;-0,35;-11,54;-1,72;-0,93;1,54;0,99;0,71;964,34
13.695;-1,87;-0,31;-0,32;-11,54;-1,72;-0,93;1,54;0,99;0,71;964,34
13.696;-1,60;-0,21;-0,27;-11,54;-1,72;-0,93;1,54;0,99;0,71;964,34
13.726;-1,60;-0,21;-0,27;-11,54;-1,72;-0,93;1,54;0,99;0,71;964,34
13.747;-1,60;-0,21;-0,27;-6,69;-0,01;0,80;1,54;0,99;0,71;964,34
13.747;-1,60;-0,21;-0,27;-6,69;-0,01;0,80;2,13;1,44;0,80;964,34
13.752;-1,36;-0,16;-0,18;-6,69;-0,01;0,80;2,13;1,44;0,80;964,34
13.753;-1,06;-0,13;-0,11;-6,69;-0,01;0,80;2,13;1,44;0,80;964,34
13.753;-0,80;-0,12;-0,05;-6,69;-0,01;0,80;2,13;1,44;0,80;964,34
13.805;-0,80;-0,12;-0,05;0,83;0,95;3,59;2,13;1,44;0,80;964,34
13.806;-0,80;-0,12;-0,05;0,83;0,95;3,59;2,22;2,03;0,80;964,34
13.814;-0,56;-0,13;0,03;0,83;0,95;3,59;2,22;2,03;0,80;964,34
13.814;-0,33;-0,17;0,06;0,83;0,95;3,59;2,22;2,03;0,80;964,34
13.814;-0,12;-0,20;0,03;0,83;0,95;3,59;2,22;2,03;0,80;964,34
13.826;-0,12;-0,20;0,03;0,83;0,95;3,59;2,22;2,03;0,80;964,30
13.866;-0,12;-0,20;0,03;7,13;0,34;4,95;2,22;2,03;0,80;964,30
13.867;-0,12;-0,20;0,03;7,13;0,34;4,95;2,00;1,17;0,72;964,30
13.874;0,01;-0,18;0,04;7,13;0,34;4,95;2,00;1,17;0,72;964,30
13.874;0,12;-0,16;0,09;7,13;0,34;4,95;2,00;1,17;0,72;964,30
13.874;0,18;-0,14;0,10;7,13;0,34;4,95;2,00;1,17;0,72;964,30
13.927;0,18;-0,14;0,10;9,94;1,27;5,82;2,00;1,17;0,72;964,30
13.928;0,18;-0,14;0,10;9,94;1,27;5,82;2,00;1,17;0,72;964,22
13.929;0,18;-0,14;0,10;9,94;1,27;5,82;1,97;1,07;0,11;964,22
13.934;0,19;-0,20;0,12;9,94;1,27;5,82;1,97;1,07;0,11;964,22
13.935;0,17;-0,34;0,05;9,94;1,27;5,82;1,97;1,07;0,11;964,22
13.935;0,03;-0,42;-0,20;9,94;1,27;5,82;1,97;1,07;0,11;964,22
13.987;0,03;-0,42;-0,20;8,04;-0,85;3,04;1,97;1,07;0,11;964,22
13.988;0,03;-0,42;-0,20;8,04;-0,85;3,04;1,76;0,83;-1,10;964,22
13.994;-0,29;-0,55;-0,21;8,04;-0,85;3,04;1,76;0,83;-1,10;964,22
13.994;-0,72;-0,79;-0,20;8,04;-0,85;3,04;1,76;0,83;-1,10;964,22
13.995;-1,33;-1,07;-0,36;8,04;-0,85;3,04;1,76;0,83;-1,10;964,22
14.026;-1,33;-1,07;-0,36;8,04;-0,85;3,04;1,76;0,83;-1,10;964,22
14.047;-1,33;-1,07;-0,36;-5,76;-6,09;1,40;1,76;0,83;-1,10;964,22
14.048;-1,33;-1,07;-0,36;-5,76;-6,09;1,40;1,23;0,04;-1,37;964,22
14.053;-1,71;-1,38;-0,62;-5,76;-6,09;1,40;1,23;0,04;-1,37;964,22
14.053;-1,99;-1,34;-0,89;-5,76;-6,09;1,40;1,23;0,04;-1,37;964,22
14.053;-1,95;-1,22;-0,81;-5,76;-6,09;1,40;1,23;0,04;-1,37;964,22
14.106;-1,95;-1,22;-0,81;-12,23;-6,68;-3,28;1,23;0,04;-1,37;964,22
14.107;-1,95;-1,22;-0,81;-12,23;-6,68;-3,28;0,84;0,28;-1,12;964,22
14.112;-1,74;-1,06;-0,71;-12,23;-6,68;-3,28;0,84;0,28;-1,12;964,22
14.113;-1,65;-0,89;-0,76;-12,23;-6,68;-3,28;0,84;0,28;-1,12;964,22
14.113;-1,59;-0,75;-0,80;-12,23;-6,68;-3,28;0,84;0,28;-1,12;964,22
14.125;-1,59;-0,75;-0,80;-12,23;-6,68;-3,28;0,84;0,28;-1,12;964,28
14.167;-1,59;-0,75;-0,80;-9,05;-1,52;-3,34;0,84;0,28;-1,12;964,28
14.167;-1,59;-0,75;-0,80;-9,05;-1,52;-3,34;0,16;-0,38;-0,63;964,28
14.173;-1,48;-0,60;-0,75;-9,05;-1,52;-3,34;0,16;-0,38;-0,63;964,28
14.173;-1,29;-0,38;-0,70;-9,05;-1,52;-3,34;0,16;-0,38;-0,63;964,28
14.173;-1,07;-0,11;-0,58;-9,05;-1,52;-3,34;0,16;-0,38;-0,63;964,28
14.228;-1,07;-0,11;-0,58;-3,98;4,83;-1,37;0,16;-0,38;-0,63;964,28
14.229;-1,07;-0,11;-0,58;-3,98;4,83;-1,37;0,16;-0,38;-0,63;964,22
14.229;-1,07;-0,11;-0,58;-3,98;4,83;-1,37;0,04;-0,30;0,12;964,22
14.233;-0,86;0,13;-0,46;-3,98;4,83;-1,37;0,04;-0,30;0,12;964,22
14.233;-0,67;0,28;-0,40;-3,98;4,83;-1,37;0,04;-0,30;0,12;964,22
14.234;-0,47;0,50;-0,41;-3,98;4,83;-1,37;0,04;-0,30;0,12;964,22
14.286;-0,47;0,50;-0,41;2,11;10,61;0,35;0,04;-0,30;0,12;964,22
14.287;-0,47;0,50;-0,41;2,11;10,61;0,35;0,66;1,27;1,52;964,22
14.293;-0,37;0,74;-0,37;2,11;10,61;0,35;0,66;1,27;1,52;964,22
14.293;-0,37;0,81;-0,18;2,11;10,61;0,35;0,66;1,27;1,52;964,22
14.294;-0,42;0,78;-0,01;2,11;10,61;0,35;0,66;1,27;1,52;964,22
14.327;-0,42;0,78;-0,01;2,11;10,61;0,35;0,66;1,27;1,52;964,22
14.349;-0,42;0,78;-0,01;2,82;12,83;4,65;0,66;1,27;1,52;964,22
14.35;-0,42;0,78;-0,01;2,82;12,83;4,65;1,66;2,43;3,07;964,22
14.353;-0,57;0,60;0,08;2,82;12,83;4,65;1,66;2,43;3,07;964,22
14.353;-0,76;0,42;0,09;2,82;12,83;4,65;1,66;2,43;3,07;964,22
14.353;-1,08;0,26;0,09;2,82;12,83;4,65;1,66;2,43;3,07;964,22
14.405;-1,08;0,26;0,09;-3,36;6,76;6,06;1,66;2,43;3,07;964,22
14.406;-1,08;0,26;0,09;-3,36;6,76;6,06;2,04;2,09;3,77;964,22
14.418;-1,45;0,15;0,15;-3,36;6,76;6,06;2,04;2,09;3,77;964,22
14.419;-1,98;-0,04;0,22;-3,36;6,76;6,06;2,04;2,09;3,77;964,22
14.419;-2,37;-0,31;0,29;-3,36;6,76;6,06;2,04;2,09;3,77;964,22
14.425;-2,37;-0,31;0,29;-3,36;6,76;6,06;2,04;2,09;3,77;964,23
14.466;-2,37;-0,31;0,29;-15,99;0,12;8,68;2,04;2,09;3,77;964,23
14.466;-2,37;-0,31;0,29;-15,99;0,12;8,68;1,83;1,84;4,06;964,23
14.475;-2,74;-0,66;0,09;-15,99;0,12;8,68;1,83;1,84;4,06;964,23
14.475;-2,97;-0,81;-0,11;-15,99;0,12;8,68;1,83;1,84;4,06;964,23
14.475;-3,02;-0,88;-0,03;-15,99;0,12;8,68;1,83;1,84;4,06;964,23
14.527;-3,02;-0,88;-0,03;-15,99;0,12;8,68;1,85;-0,22;3,48;964,23
14.528;-3,02;-0,88;-0,03;-15,99;0,12;8,68;1,85;-0,22;3,48;964,27
14.529;-3,02;-0,88;-0,03;-22,08;-6,58;5,68;1,85;-0,22;3,48;964,27
14.534;-2,81;-0,96;0,02;-22,08;-6,58;5,68;1,85;-0,22;3,48;964,27
14.535;-2,47;-1,03;0,03;-22,08;-6,58;5,68;1,85;-0,22;3,48;964,27
14.535;-1,93;-0,94;0,02;-22,08;-6,58;5,68;1,85;-0,22;3,48;964,27
14.586;-1,93;-0,94;0,02;-10,83;-7,93;5,62;1,85;-0,22;3,48;964,27
14.586;-1,93;-0,94;0,02;-10,83;-7,93;5,62;2,43;-0,30;2,71;964,27
14.593;-1,39;-0,76;0,04;-10,83;-7,93;5,62;2,43;-0,30;2,71;964,27
14.594;-0,97;-0,62;0,06;-10,83;-7,93;5,62;2,43;-0,30;2,71;964,27
14.594;-0,69;-0,61;0,08;-10,83;-7,93;5,62;2,43;-0,30;2,71;964,27
14.626;-0,69;-0,61;0,08;-10,83;-7,93;5,62;2,43;-0,30;2,71;964,27
14.647;-0,69;-0,61;0,08;1,42;-5,05;6,16;2,43;-0,30;2,71;964,27
14.647;-0,69;-0,61;0,08;1,42;-5,05;6,16;2,55;0,35;2,23;964,27
14.653;-0,49;-0,59;0,10;1,42;-5,05;6,16;2,55;0,35;2,23;964,27
14.654;-0,28;-0,59;0,07;1,42;-5,05;6,16;2,55;0,35;2,23;964,27
14.654;-0,09;-0,63;0,05;1,42;-5,05;6,16;2,55;0,35;2,23;964,27
14.707;-0,09;-0,63;0,05;7,34;-5,47;5,84;2,55;0,35;2,23;964,27
14.708;-0,09;-0,63;0,05;7,34;-5,47;5,84;2,37;-0,13;1,50;964,27
14.714;0,10;-0,71;0,07;7,34;-5,47;5,84;2,37;-0,13;1,50;964,27
14.715;0,18;-0,78;0,09;7,34;-5,47;5,84;2,37;-0,13;1,50;964,27
14.715;0,24;-0,83;0,08;7,34;-5,47;5,84;2,37;-0,13;1,50;964,27
14.726;0,24;-0,83;0,08;7,34;-5,47;5,84;2,37;-0,13;1,50;964,21
14.765;0,24;-0,83;0,08;10,63;-7,09;6,01;2,37;-0,13;1,50;964,21
14.767;0,24;-0,83;0,08;10,63;-7,09;6,01;2,28;0,36;0,10;964,21
14.774;0,30;-0,82;0,00;10,63;-7,09;6,01;2,28;0,36;0,10;964,21
14.774;0,26;-0,78;-0,07;10,63;-7,09;6,01;2,28;0,36;0,10;964,21
14.774;0,15;-0,78;-0,16;10,63;-7,09;6,01;2,28;0,36;0,10;964,21
14.827;0,15;-0,78;-0,16;10,63;-7,09;6,01;2,28;0,36;0,10;964,26
14.828;0,15;-0,78;-0,16;9,60;-5,54;3,57;2,28;0,36;0,10;964,26
14.828;0,15;-0,78;-0,16;9,60;-5,54;3,57;1,92;0,18;-2,25;964,26
14.834;-0,15;-0,80;-0,28;9,60;-5,54;3,57;1,92;0,18;-2,25;964,26
14.834;-0,61;-0,91;-0,43;9,60;-5,54;3,57;1,92;0,18;-2,25;964,26
14.835;-1,23;-1,10;-0,60;9,60;-5,54;3,57;1,92;0,18;-2,25;964,26
14.885;-1,23;-1,10;-0,60;-4,46;-7,00;-0,97;1,92;0,18;-2,25;964,26
14.887;-1,23;-1,10;-0,60;-4,46;-7,00;-0,97;1,11;-0,40;-2,90;964,26
14.895;-1,67;-1,21;-0,89;-4,46;-7,00;-0,97;1,11;-0,40;-2,90;964,26
14.895;-2,09;-1,10;-1,03;-4,46;-7,00;-0,97;1,11;-0,40;-2,90;964,26
14.895;-2,23;-1,01;-1,00;-4,46;-7,00;-0,97;1,11;-0,40;-2,90;964,26
14.927;-2,23;-1,01;-1,00;-4,46;-7,00;-0,97;1,11;-0,40;-2,90;964,26
14.945;-2,23;-1,01;-1,00;-15,00;-4,55;-5,22;1,11;-0,40;-2,90;964,26
14.945;-2,23;-1,01;-1,00;-15,00;-4,55;-5,22;0,30;0,15;-2,95;964,26
14.953;-2,29;-0,94;-0,95;-15,00;-4,55;-5,22;0,30;0,15;-2,95;964,26
14.953;-2,23;-0,80;-1,00;-15,00;-4,55;-5,22;0,30;0,15;-2,95;964,26
14.953;-2,10;-0,65;-0,91;-15,00;-4,55;-5,22;0,30;0,15;-2,95;964,26
15.007;-2,10;-0,65;-0,91;-14,74;0,09;-4,38;0,30;0,15;-2,95;964,26
15.008;-2,10;-0,65;-0,91;-14,74;0,09;-4,38;0,10;-0,18;-2,12;964,26
15.014;-1,93;-0,55;-0,73;-14,74;0,09;-4,38;0,10;-0,18;-2,12;964,26
15.014;-1,67;-0,39;-0,60;-14,74;0,09;-4,38;0,10;-0,18;-2,12;964,26
15.015;-1,42;-0,22;-0,55;-14,74;0,09;-4,38;0,10;-0,18;-2,12;964,26
15.026;-1,42;-0,22;-0,55;-14,74;0,09;-4,38;0,10;-0,18;-2,12;964,30
15.065;-1,42;-0,22;-0,55;-8,66;4,73;-0,88;0,10;-0,18;-2,12;964,30
15.066;-1,42;-0,22;-0,55;-8,66;4,73;-0,88;-0,21;0,09;-0,36;964,30
15.073;-1,15;0,02;-0,48;-8,66;4,73;-0,88;-0,21;0,09;-0,36;964,30
15.073;-0,84;0,33;-0,39;-8,66;4,73;-0,88;-0,21;0,09;-0,36;964,30
15.074;-0,64;0,67;-0,25;-8,66;4,73;-0,88;-0,21;0,09;-0,36;964,30
15.128;-0,64;0,67;-0,25;-8,66;4,73;-0,88;-0,21;0,09;-0,36;964,25
15.129;-0,64;0,67;-0,25;-0,90;13,38;2,16;-0,21;0,09;-0,36;964,25
15.13;-0,64;0,67;-0,25;-0,90;13,38;2,16;0,13;0,18;1,16;964,25
15.134;-0,52;0,88;-0,11;-0,90;13,38;2,16;0,13;0,18;1,16;964,25
15.134;-0,41;0,90;-0,02;-0,90;13,38;2,16;0,13;0,18;1,16;964,25
15.135;-0,36;0,86;0,04;-0,90;13,38;2,16;0,13;0,18;1,16;964,25
15.187;-0,36;0,86;0,04;2,51;14,56;5,02;0,13;0,18;1,16;964,25
15.188;-0,36;0,86;0,04;2,51;14,56;5,02;1,07;1,14;3,01;964,25
15.192;-0,42;0,70;0,09;2,51;14,56;5,02;1,07;1,14;3,01;964,25
15.193;-0,60;0,52;0,09;2,51;14,56;5,02;1,07;1,14;3,01;964,25
15.193;-0,92;0,28;0,08;2,51;14,56;5,02;1,07;1,14;3,01;964,25
15.227;-0,92;0,28;0,08;2,51;14,56;5,02;1,07;1,14;3,01;964,25
15.247;-0,92;0,28;0,08;-2,05;7,94;5,31;1,07;1,14;3,01;964,25
15.247;-0,92;0,28;0,08;-2,05;7,94;5,31;2,00;1,24;3,55;964,25
15.254;-1,16;0,07;0,06;-2,05;7,94;5,31;2,00;1,24;3,55;964,25
15.254;-1,59;-0,06;0,02;-2,05;7,94;5,31;2,00;1,24;3,55;964,25
15.254;-2,15;-0,25;-0,00;-2,05;7,94;5,31;2,00;1,24;3,55;964,25
15.307;-2,15;-0,25;-0,00;-13,55;1,65;4,85;2,00;1,24;3,55;964,25
15.308;-2,15;-0,25;-0,00;-13,55;1,65;4,85;1,77;1,86;4,29;964,25
15.314;-2,61;-0,63;-0,07;-13,55;1,65;4,85;1,77;1,86;4,29;964,25
15.314;-2,98;-0,96;-0,31;-13,55;1,65;4,85;1,77;1,86;4,29;964,25
15.315;-3,04;-1,08;-0,39;-13,55;1,65;4,85;1,77;1,86;4,29;964,25
15.325;-3,04;-1,08;-0,39;-13,55;1,65;4,85;1,77;1,86;4,29;964,30
15.366;-3,04;-1,08;-0,39;-21,74;-8,03;1,15;1,77;1,86;4,29;964,30
15.366;-3,04;-1,08;-0,39;-21,74;-8,03;1,15;1,25;0,13;3,97;964,30
15.373;-2,76;-1,03;-0,37;-21,74;-8,03;1,15;1,25;0,13;3,97;964,30
15.373;-2,48;-1,04;-0,33;-21,74;-8,03;1,15;1,25;0,13;3,97;964,30
15.373;-2,07;-1,00;-0,23;-21,74;-8,03;1,15;1,25;0,13;3,97;964,30
15.427;-2,07;-1,00;-0,23;-21,74;-8,03;1,15;1,25;0,13;3,97;964,30
15.428;-2,07;-1,00;-0,23;-11,83;-8,65;2,54;1,25;0,13;3,97;964,30
15.428;-2,07;-1,00;-0,23;-11,83;-8,65;2,54;0,95;-0,22;2,72;964,30
15.433;-1,64;-0,89;-0,14;-11,83;-8,65;2,54;0,95;-0,22;2,72;964,30
15.434;-1,24;-0,78;-0,08;-11,83;-8,65;2,54;0,95;-0,22;2,72;964,30
15.434;-0,84;-0,70;-0,04;-11,83;-8,65;2,54;0,95;-0,22;2,72;964,30
15.487;-0,84;-0,70;-0,04;0,40;-6,60;4,28;0,95;-0,22;2,72;964,30
15.488;-0,84;-0,70;-0,04;0,40;-6,60;4,28;0,99;-0,07;1,71;964,30
15.494;-0,51;-0,60;0,00;0,40;-6,60;4,28;0,99;-0,07;1,71;964,30
15.494;-0,22;-0,55;0,04;0,40;-6,60;4,28;0,99;-0,07;1,71;964,30
15.494;0,03;-0,60;0,05;0,40;-6,60;4,28;0,99;-0,07;1,71;964,30
15.526;0,03;-0,60;0,05;0,40;-6,60;4,28;0,99;-0,07;1,71;964,30
15.545;0,03;-0,60;0,05;8,94;-6,13;5,06;0,99;-0,07;1,71;964,30
15.546;0,03;-0,60;0,05;8,94;-6,13;5,06;0,86;-0,27;0,75;964,30
15.555;0,24;-0,69;0,06;8,94;-6,13;5,06;0,86;-0,27;0,75;964,30
15.555;0,41;-0,70;0,09;8,94;-6,13;5,06;0,86;-0,27;0,75;964,30
15.555;0,48;-0,71;0,09;8,94;-6,13;5,06;0,86;-0,27;0,75;964,30
15.607;0,48;-0,71;0,09;13,51;-6,95;5,33;0,86;-0,27;0,75;964,30
15.608;0,48;-0,71;0,09;13,51;-6,95;5,33;0,35;-0,35;-1,21;964,30
15.613;0,46;-0,75;0,08;13,51;-6,95;5,33;0,35;-0,35;-1,21;964,30
15.613;0,38;-0,77;-0,01;13,51;-6,95;5,33;0,35;-0,35;-1,21;964,30
15.613;0,18;-0,81;-0,04;13,51;-6,95;5,33;0,35;-0,35;-1,21;964,30
15.626;0,18;-0,81;-0,04;13,51;-6,95;5,33;0,35;-0,35;-1,21;964,21
15.666;0,18;-0,81;-0,04;10,52;-6,94;3,89;0,35;-0,35;-1,21;964,21
15.666;0,18;-0,81;-0,04;10,52;-6,94;3,89;-0,36;0,33;-2,60;964,21
15.673;-0,13;-0,91;-0,17;10,52;-6,94;3,89;-0,36;0,33;-2,60;964,21
15.674;-0,77;-1,10;-0,30;10,52;-6,94;3,89;-0,36;0,33;-2,60;964,21
15.675;-1,51;-1,22;-0,69;10,52;-6,94;3,89;-0,36;0,33;-2,60;964,21
15.727;-1,51;-1,22;-0,69;10,52;-6,94;3,89;-0,36;0,33;-2,60;964,26
15.728;-1,51;-1,22;-0,69;-6,21;-9,45;-2,67;-0,36;0,33;-2,60;964,26
15.729;-1,51;-1,22;-0,69;-6,21;-9,45;-2,67;-0,36;-1,68;-3,33;964,26
15.732;-1,99;-1,17;-0,96;-6,21;-9,45;-2,67;-0,36;-1,68;-3,33;964,26
15.732;-2,20;-1,08;-0,97;-6,21;-9,45;-2,67;-0,36;-1,68;-3,33;964,26
15.732;-2,42;-1,02;-1,04;-6,21;-9,45;-2,67;-0,36;-1,68;-3,33;964,26
15.784;-2,42;-1,02;-1,04;-15,54;-6,07;-6,36;-0,36;-1,68;-3,33;964,26
15.784;-2,42;-1,02;-1,04;-15,54;-6,07;-6,36;-0,89;0,38;-2,52;964,26
15.793;-2,26;-0,81;-1,10;-15,54;-6,07;-6,36;-0,89;0,38;-2,52;964,26
15.793;-1,94;-0,50;-1,09;-15,54;-6,07;-6,36;-0,89;0,38;-2,52;964,26
15.794;-1,72;-0,32;-0,94;-15,54;-6,07;-6,36;-0,89;0,38;-2,52;964,26
15.826;-1,72;-0,32;-0,94;-15,54;-6,07;-6,36;-0,89;0,38;-2,52;964,26
15.845;-1,72;-0,32;-0,94;-9,25;1,66;-5,25;-0,89;0,38;-2,52;964,26
15.845;-1,72;-0,32;-0,94;-9,25;1,66;-5,25;-1,09;-0,76;-2,03;964,26
15.856;-1,48;-0,17;-0,76;-9,25;1,66;-5,25;-1,09;-0,76;-2,03;964,26
15.857;-1,21;-0,03;-0,55;-9,25;1,66;-5,25;-1,09;-0,76;-2,03;964,26
15.857;-0,95;0,12;-0,34;-9,25;1,66;-5,25;-1,09;-0,76;-2,03;964,26
15.905;-0,95;0,12;-0,34;-2,10;6,43;0,72;-1,09;-0,76;-2,03;964,26
15.906;-0,95;0,12;-0,34;-2,10;6,43;0,72;-0,68;-0,69;-1,02;964,26
15.913;-0,78;0,25;-0,19;-2,10;6,43;0,72;-0,68;-0,69;-1,02;964,26
15.914;-0,60;0,47;-0,09;-2,10;6,43;0,72;-0,68;-0,69;-1,02;964,26
15.914;-0,45;0,64;0,05;-2,10;6,43;0,72;-0,68;-0,69;-1,02;964,26
15.924;-0,45;0,64;0,05;-2,10;6,43;0,72;-0,68;-0,69;-1,02;964,26
15.965;-0,45;0,64;0,05;2,92;11,63;4,35;-0,68;-0,69;-1,02;964,26
15.966;-0,45;0,64;0,05;2,92;11,63;4,35;0,20;-0,11;0,59;964,26
15.973;-0,30;0,79;0,16;2,92;11,63;4,35;0,20;-0,11;0,59;964,26
15.974;-0,28;0,81;0,20;2,92;11,63;4,35;0,20;-0,11;0,59;964,26
15.974;-0,31;0,73;0,18;2,92;11,63;4,35;0,20;-0,11;0,59;964,26
16.027;-0,31;0,73;0,18;4,58;11,98;5,54;0,20;-0,11;0,59;964,26
16.028;-0,31;0,73;0,18;4,58;11,98;5,54;1,16;0,46;2,26;964,26
16.028;-0,31;0,73;0,18;4,58;11,98;5,54;1,16;0,46;2,26;964,26
16.031;-0,38;0,62;0,16;4,58;11,98;5,54;1,16;0,46;2,26;964,26
16.031;-0,57;0,40;0,14;4,58;11,98;5,54;1,16;0,46;2,26;964,26
16.032;-0,76;0,12;0,04;4,58;11,98;5,54;1,16;0,46;2,26;964,26
16.085;-0,76;0,12;0,04;0,78;4,96;4,03;1,16;0,46;2,26;964,26
16.085;-0,76;0,12;0,04;0,78;4,96;4,03;1,56;0,93;3,18;964,26
16.093;-1,10;-0,01;-0,31;0,78;4,96;4,03;1,56;0,93;3,18;964,26
16.093;-1,72;-0,09;-0,47;0,78;4,96;4,03;1,56;0,93;3,18;964,26
16.093;-2,24;-0,33;-0,46;0,78;4,96;4,03;1,56;0,93;3,18;964,26
16.126;-2,24;-0,33;-0,46;0,78;4,96;4,03;1,56;0,93;3,18;964,26
16.146;-2,24;-0,33;-0,46;-13,30;-0,98;-0,35;1,56;0,93;3,18;964,26
16.147;-2,24;-0,33;-0,46;-13,30;-0,98;-0,35;0,74;1,26;3,56;964,26
16.153;-2,42;-0,47;-0,41;-13,30;-0,98;-0,35;0,74;1,26;3,56;964,26
16.154;-2,35;-0,72;-0,55;-13,30;-0,98;-0,35;0,74;1,26;3,56;964,26
16.154;-2,37;-0,80;-0,72;-13,30;-0,98;-0,35;0,74;1,26;3,56;964,26
16.206;-2,37;-0,80;-0,72;-14,56;-7,15;-2,52;0,74;1,26;3,56;964,26
16.207;-2,37;-0,80;-0,72;-14,56;-7,15;-2,52;0,27;0,55;2,69;964,26
16.212;-2,45;-0,99;-0,71;-14,56;-7,15;-2,52;0,27;0,55;2,69;964,26
16.212;-2,32;-1,05;-0,70;-14,56;-7,15;-2,52;0,27;0,55;2,69;964,26
16.213;-2,00;-1,04;-0,59;-14,56;-7,15;-2,52;0,27;0,55;2,69;964,26
16.225;-2,00;-1,04;-0,59;-14,56;-7,15;-2,52;0,27;0,55;2,69;964,28
16.265;-2,00;-1,04;-0,59;-10,89;-10,54;-1,29;0,27;0,55;2,69;964,28
16.265;-2,00;-1,04;-0,59;-10,89;-10,54;-1,29;0,28;-1,02;1,29;964,28
16.283;-1,54;-0,91;-0,47;-10,89;-10,54;-1,29;0,28;-1,02;1,29;964,28
16.284;-1,07;-0,70;-0,37;-10,89;-10,54;-1,29;0,28;-1,02;1,29;964,28
16.284;-0,70;-0,51;-0,21;-10,89;-10,54;-1,29;0,28;-1,02;1,29;964,28
16.326;-0,70;-0,51;-0,21;1,99;-5,70;1,97;0,28;-1,02;1,29;964,28
16.327;-0,70;-0,51;-0,21;1,99;-5,70;1,97;0,75;-0,08;0,57;964,28
16.327;-0,70;-0,51;-0,21;1,99;-5,70;1,97;0,75;-0,08;0,57;964,24
16.331;-0,43;-0,40;-0,11;1,99;-5,70;1,97;0,75;-0,08;0,57;964,24
16.332;-0,18;-0,39;-0,07;1,99;-5,70;1,97;0,75;-0,08;0,57;964,24
16.332;0,05;-0,38;-0,08;1,99;-5,70;1,97;0,75;-0,08;0,57;964,24
16.386;0,05;-0,38;-0,08;9,32;-4,47;3,33;0,75;-0,08;0,57;964,24
16.387;0,05;-0,38;-0,08;9,32;-4,47;3,33;1,05;-0,20;0,16;964,24
16.392;0,28;-0,41;-0,11;9,32;-4,47;3,33;1,05;-0,20;0,16;964,24
16.393;0,49;-0,42;-0,10;9,32;-4,47;3,33;1,05;-0,20;0,16;964,24
16.394;0,61;-0,39;-0,07;9,32;-4,47;3,33;1,05;-0,20;0,16;964,24
16.427;0,61;-0,39;-0,07;9,32;-4,47;3,33;1,05;-0,20;0,16;964,24
16.446;0,61;-0,39;-0,07;14,91;-3,97;3,35;1,05;-0,20;0,16;964,24
16.447;0,61;-0,39;-0,07;14,91;-3,97;3,35;0,55;-0,19;-1,67;964,24
16.452;0,57;-0,41;-0,06;14,91;-3,97;3,35;0,55;-0,19;-1,67;964,24
16.454;0,42;-0,49;-0,10;14,91;-3,97;3,35;0,55;-0,19;-1,67;964,24
16.454;0,28;-0,60;-0,12;14,91;-3,97;3,35;0,55;-0,19;-1,67;964,24
16.505;0,28;-0,60;-0,12;11,62;-4,90;2,90;0,55;-0,19;-1,67;964,24
16.505;0,28;-0,60;-0,12;11,62;-4,90;2,90;-0,47;0,19;-2,24;964,24
16.512;0,09;-0,70;-0,19;11,62;-4,90;2,90;-0,47;0,19;-2,24;964,24
16.512;-0,32;-0,80;-0,35;11,62;-4,90;2,90;-0,47;0,19;-2,24;964,24
16.512;-0,95;-0,94;-0,29;11,62;-4,90;2,90;-0,47;0,19;-2,24;964,24
16.524;-0,95;-0,94;-0,29;11,62;-4,90;2,90;-0,47;0,19;-2,24;964,22
16.565;-0,95;-0,94;-0,29;-0,77;-6,83;1,29;-0,47;0,19;-2,24;964,22
16.566;-0,95;-0,94;-0,29;-0,77;-6,83;1,29;-0,86;-0,66;-3,40;964,22
16.577;-1,64;-1,05;-0,30;-0,77;-6,83;1,29;-0,86;-0,66;-3,40;964,22
16.577;-2,17;-1,19;-0,50;-0,77;-6,83;1,29;-0,86;-0,66;-3,40;964,22
16.577;-2,46;-1,15;-0,69;-0,77;-6,83;1,29;-0,86;-0,66;-3,40;964,22
16.626;-2,46;-1,15;-0,69;-15,91;-7,57;-2,96;-0,86;-0,66;-3,40;964,22
16.627;-2,46;-1,15;-0,69;-15,91;-7,57;-2,96;-1,07;-1,48;-2,45;964,22
16.627;-2,46;-1,15;-0,69;-15,91;-7,57;-2,96;-1,07;-1,48;-2,45;964,35
16.632;-2,67;-1,13;-0,73;-15,91;-7,57;-2,96;-1,07;-1,48;-2,45;964,35
16.633;-2,42;-0,91;-0,71;-15,91;-7,57;-2,96;-1,07;-1,48;-2,45;964,35
16.633;-2,06;-0,66;-0,74;-15,91;-7,57;-2,96;-1,07;-1,48;-2,45;964,35
16.684;-2,06;-0,66;-0,74;-12,19;-1,90;-3,89;-1,07;-1,48;-2,45;964,35
16.685;-2,06;-0,66;-0,74;-12,19;-1,90;-3,89;-1,62;-1,47;-2,05;964,35
16.695;-1,69;-0,42;-0,65;-12,19;-1,90;-3,89;-1,62;-1,47;-2,05;964,35
16.695;-1,33;-0,21;-0,52;-12,19;-1,90;-3,89;-1,62;-1,47;-2,05;964,35
16.695;-1,10;-0,01;-0,43;-12,19;-1,90;-3,89;-1,62;-1,47;-2,05;964,35
16.724;-1,10;-0,01;-0,43;-12,19;-1,90;-3,89;-1,62;-1,47;-2,05;964,35
16.745;-1,10;-0,01;-0,43;-3,10;4,95;-0,98;-1,62;-1,47;-2,05;964,35
16.746;-1,10;-0,01;-0,43;-3,10;4,95;-0,98;-1,61;-0,55;-1,67;964,35
16.751;-0,90;0,14;-0,32;-3,10;4,95;-0,98;-1,61;-0,55;-1,67;964,35
16.752;-0,66;0,25;-0,19;-3,10;4,95;-0,98;-1,61;-0,55;-1,67;964,35
16.752;-0,58;0,32;-0,14;-3,10;4,95;-0,98;-1,61;-0,55;-1,67;964,35
16.805;-0,58;0,32;-0,14;1,91;8,40;1,95;-1,61;-0,55;-1,67;964,35
16.806;-0,58;0,32;-0,14;1,91;8,40;1,95;-1,02;-1,03;0,05;964,35
16.812;-0,41;0,45;-0,13;1,91;8,40;1,95;-1,02;-1,03;0,05;964,35
16.813;-0,42;0,54;-0,01;1,91;8,40;1,95;-1,02;-1,03;0,05;964,35
16.813;-0,42;0,58;0,08;1,91;8,40;1,95;-1,02;-1,03;0,05;964,35
16.824;-0,42;0,58;0,08;1,91;8,40;1,95;-1,02;-1,03;0,05;964,29
16.865;-0,42;0,58;0,08;3,77;10,50;4,07;-1,02;-1,03;0,05;964,29
16.866;-0,42;0,58;0,08;3,77;10,50;4,07;0,14;0,03;1,60;964,29
16.875;-0,48;0,56;0,07;3,77;10,50;4,07;0,14;0,03;1,60;964,29
16.875;-0,53;0,49;0,02;3,77;10,50;4,07;0,14;0,03;1,60;964,29
16.875;-0,62;0,34;-0,02;3,77;10,50;4,07;0,14;0,03;1,60;964,29
16.926;-0,62;0,34;-0,02;2,43;7,18;2,91;0,14;0,03;1,60;964,29
16.927;-0,62;0,34;-0,02;2,43;7,18;2,91;0,93;-0,13;2,97;964,29
16.927;-0,62;0,34;-0,02;2,43;7,18;2,91;0,93;-0,13;2,97;964,29
16.933;-0,77;0,21;-0,09;2,43;7,18;2,91;0,93;-0,13;2,97;964,29
16.933;-0,91;0,12;-0,15;2,43;7,18;2,91;0,93;-0,13;2,97;964,29
16.933;-1,35;0,05;-0,19;2,43;7,18;2,91;0,93;-0,13;2,97;964,29
16.984;-1,35;0,05;-0,19;-4,27;2,97;1,37;0,93;-0,13;2,97;964,29
16.985;-1,35;0,05;-0,19;-4,27;2,97;1,37;0,96;1,58;3,05;964,29
16.998;-1,99;-0,26;-0,36;-4,27;2,97;1,37;0,96;1,58;3,05;964,29
16.998;-2,40;-0,42;-0,63;-4,27;2,97;1,37;0,96;1,58;3,05;964,29
16.999;-2,58;-0,64;-0,68;-4,27;2,97;1,37;0,96;1,58;3,05;964,29
17.024;-2,58;-0,64;-0,68;-4,27;2,97;1,37;0,96;1,58;3,05;964,29
17.045;-2,58;-0,64;-0,68;-16,25;-5,48;-2,85;0,96;1,58;3,05;964,29
17.046;-2,58;-0,64;-0,68;-16,25;-5,48;-2,85;0,78;0,12;3,45;964,29
17.052;-2,71;-0,76;-0,68;-16,25;-5,48;-2,85;0,78;0,12;3,45;964,29
17.053;-2,57;-0,73;-0,62;-16,25;-5,48;-2,85;0,78;0,12;3,45;964,29
17.053;-2,26;-0,74;-0,56;-16,25;-5,48;-2,85;0,78;0,12;3,45;964,29
17.106;-2,26;-0,74;-0,56;-13,10;-7,92;-1,81;0,78;0,12;3,45;964,29
17.107;-2,26;-0,74;-0,56;-13,10;-7,92;-1,81;0,76;-0,25;2,27;964,29
17.112;-1,91;-0,73;-0,38;-13,10;-7,92;-1,81;0,76;-0,25;2,27;964,29
17.113;-1,40;-0,61;-0,23;-13,10;-7,92;-1,81;0,76;-0,25;2,27;964,29
17.113;-0,94;-0,46;-0,13;-13,10;-7,92;-1,81;0,76;-0,25;2,27;964,29
17.124;-0,94;-0,46;-0,13;-13,10;-7,92;-1,81;0,76;-0,25;2,27;964,32
17.164;-0,94;-0,46;-0,13;-0,26;-5,87;2,42;0,76;-0,25;2,27;964,32
17.165;-0,94;-0,46;-0,13;-0,26;-5,87;2,42;1,50;0,04;1,29;964,32
17.172;-0,51;-0,31;-0,04;-0,26;-5,87;2,42;1,50;0,04;1,29;964,32
17.172;-0,21;-0,22;0,06;-0,26;-5,87;2,42;1,50;0,04;1,29;964,32
17.173;0,08;-0,19;0,10;-0,26;-5,87;2,42;1,50;0,04;1,29;964,32
17.226;0,08;-0,19;0,10;9,57;-3,34;5,02;1,50;0,04;1,29;964,32
17.227;0,08;-0,19;0,10;9,57;-3,34;5,02;1,78;0,67;0,43;964,32
17.228;0,08;-0,19;0,10;9,57;-3,34;5,02;1,78;0,67;0,43;964,19
17.233;0,28;-0,17;0,08;9,57;-3,34;5,02;1,78;0,67;0,43;964,19
17.233;0,37;-0,21;0,05;9,57;-3,34;5,02;1,78;0,67;0,43;964,19
17.234;0,39;-0,30;0,05;9,57;-3,34;5,02;1,78;0,67;0,43;964,19
17.285;0,39;-0,30;0,05;12,49;-4,05;4,89;1,78;0,67;0,43;964,19
17.285;0,39;-0,30;0,05;12,49;-4,05;4,89;1,31;0,28;-0,44;964,19
17.297;0,39;-0,35;0,04;12,49;-4,05;4,89;1,31;0,28;-0,44;964,19
17.298;0,36;-0,46;0,06;12,49;-4,05;4,89;1,31;0,28;-0,44;964,19
17.298;0,25;-0,57;0,02;12,49;-4,05;4,89;1,31;0,28;-0,44;964,19
17.325;0,25;-0,57;0,02;12,49;-4,05;4,89;1,31;0,28;-0,44;964,19
17.344;0,25;-0,57;0,02;11,07;-5,97;4,80;1,31;0,28;-0,44;964,19
17.345;0,25;-0,57;0,02;11,07;-5,97;4,80;0,54;0,12;-1,68;964,19
17.354;0,04;-0,62;-0,15;11,07;-5,97;4,80;0,54;0,12;-1,68;964,19
17.355;-0,38;-0,86;-0,24;11,07;-5,97;4,80;0,54;0,12;-1,68;964,19
17.355;-0,95;-1,04;-0,28;11,07;-5,97;4,80;0,54;0,12;-1,68;964,19
17.406;-0,95;-1,04;-0,28;-0,68;-9,28;1,92;0,54;0,12;-1,68;964,19
17.407;-0,95;-1,04;-0,28;-0,68;-9,28;1,92;0,08;-0,07;-2,67;964,19
17.413;-1,60;-1,12;-0,47;-0,68;-9,28;1,92;0,08;-0,07;-2,67;964,19
17.413;-1,98;-1,20;-0,55;-0,68;-9,28;1,92;0,08;-0,07;-2,67;964,19
17.413;-2,46;-1,18;-0,80;-0,68;-9,28;1,92;0,08;-0,07;-2,67;964,19
17.425;-2,46;-1,18;-0,80;-0,68;-9,28;1,92;0,08;-0,07;-2,67;964,19
17.465;-2,46;-1,18;-0,80;-15,66;-9,30;-3,47;0,08;-0,07;-2,67;964,19
17.466;-2,46;-1,18;-0,80;-15,66;-9,30;-3,47;-0,63;-0,94;-2,46;964,19
17.481;-2,49;-1,11;-0,95;-15,66;-9,30;-3,47;-0,63;-0,94;-2,46;964,19
17.481;-2,19;-0,87;-0,82;-15,66;-9,30;-3,47;-0,63;-0,94;-2,46;964,19
17.481;-1,97;-0,64;-0,74;-15,66;-9,30;-3,47;-0,63;-0,94;-2,46;964,19
17.525;-1,97;-0,64;-0,74;-11,05;-3,09;-3,09;-0,63;-0,94;-2,46;964,19
17.526;-1,97;-0,64;-0,74;-11,05;-3,09;-3,09;-1,41;-0,85;-2,45;964,19
17.527;-1,97;-0,64;-0,74;-11,05;-3,09;-3,09;-1,41;-0,85;-2,45;964,27
17.533;-1,75;-0,45;-0,68;-11,05;-3,09;-3,09;-1,41;-0,85;-2,45;964,27
17.533;-1,57;-0,31;-0,61;-11,05;-3,09;-3,09;-1,41;-0,85;-2,45;964,27
17.533;-1,33;-0,15;-0,49;-11,05;-3,09;-3,09;-1,41;-0,85;-2,45;964,27
17.585;-1,33;-0,15;-0,49;-5,04;2,52;-0,75;-1,41;-0,85;-2,45;964,27
17.585;-1,33;-0,15;-0,49;-5,04;2,52;-0,75;-1,69;-0,58;-2,01;964,27
17.595;-1,11;0,01;-0,39;-5,04;2,52;-0,75;-1,69;-0,58;-2,01;964,27
17.596;-0,91;0,25;-0,37;-5,04;2,52;-0,75;-1,69;-0,58;-2,01;964,27
17.596;-0,74;0,47;-0,31;-5,04;2,52;-0,75;-1,69;-0,58;-2,01;964,27
17.624;-0,74;0,47;-0,31;-5,04;2,52;-0,75;-1,69;-0,58;-2,01;964,27
17.647;-0,74;0,47;-0,31;0,41;8,92;1,30;-1,69;-0,58;-2,01;964,27
17.648;-0,74;0,47;-0,31;0,41;8,92;1,30;-0,77;0,25;-0,28;964,27
17.651;-0,61;0,75;-0,24;0,41;8,92;1,30;-0,77;0,25;-0,28;964,27
17.652;-0,54;0,95;-0,16;0,41;8,92;1,30;-0,77;0,25;-0,28;964,27
17.652;-0,52;1,06;-0,01;0,41;8,92;1,30;-0,77;0,25;-0,28;964,27
17.705;-0,52;1,06;-0,01;2,57;14,29;4,52;-0,77;0,25;-0,28;964,27
17.706;-0,52;1,06;-0,01;2,57;14,29;4,52;0,86;1,51;1,83;964,27
17.713;-0,53;1,03;0,13;2,57;14,29;4,52;0,86;1,51;1,83;964,27
17.713;-0,55;0,92;0,21;2,57;14,29;4,52;0,86;1,51;1,83;964,27
17.713;-0,64;0,73;0,20;2,57;14,29;4,52;0,86;1,51;1,83;964,27
17.726;-0,64;0,73;0,20;2,57;14,29;4,52;0,86;1,51;1,83;964,23
17.765;-0,64;0,73;0,20;1,54;10,28;6,94;0,86;1,51;1,83;964,23
17.765;-0,64;0,73;0,20;1,54;10,28;6,94;2,10;0,97;3,03;964,23
17.772;-0,84;0,52;0,18;1,54;10,28;6,94;2,10;0,97;3,03;964,23
17.772;-1,12;0,35;0,25;1,54;10,28;6,94;2,10;0,97;3,03;964,23
17.772;-1,67;0,23;0,28;1,54;10,28;6,94;2,10;0,97;3,03;964,23
17.831;-1,67;0,23;0,28;-8,69;4,56;8,45;2,10;0,97;3,03;964,23
17.832;-1,67;0,23;0,28;-8,69;4,56;8,45;2,32;2,98;3,51;964,23
17.833;-1,67;0,23;0,28;-8,69;4,56;8,45;2,32;2,98;3,51;964,31
17.834;-2,50;-0,18;0,27;-8,69;4,56;8,45;2,32;2,98;3,51;964,31
17.835;-2,80;-0,71;-0,04;-8,69;4,56;8,45;2,32;2,98;3,51;964,31
17.835;-3,03;-0,84;-0,12;-8,69;4,56;8,45;2,32;2,98;3,51;964,31
17.885;-3,03;-0,84;-0,12;-22,02;-6,73;4,75;2,32;2,98;3,51;964,31
17.885;-3,03;-0,84;-0,12;-22,02;-6,73;4,75;2,50;-0,50;3,63;964,31
17.901;-2,97;-0,96;-0,13;-22,02;-6,73;4,75;2,50;-0,50;3,63;964,31
17.902;-2,70;-1,01;-0,12;-22,02;-6,73;4,75;2,50;-0,50;3,63;964,31
17.902;-2,23;-0,97;-0,10;-22,02;-6,73;4,75;2,50;-0,50;3,63;964,31
17.925;-2,23;-0,97;-0,10;-22,02;-6,73;4,75;2,50;-0,50;3,63;964,31
17.945;-2,23;-0,97;-0,10;-13,88;-8,70;4,64;2,50;-0,50;3,63;964,31
17.945;-2,23;-0,97;-0,10;-13,88;-8,70;4,64;2,29;-0,21;2,88;964,31
17.952;-1,74;-0,81;-0,04;-13,88;-8,70;4,64;2,29;-0,21;2,88;964,31
17.952;-1,37;-0,68;0,01;-13,88;-8,70;4,64;2,29;-0,21;2,88;964,31
17.953;-1,04;-0,61;0,04;-13,88;-8,70;4,64;2,29;-0,21;2,88;964,31
18.005;-1,04;-0,61;0,04;-2,05;-5,72;5,81;2,29;-0,21;2,88;964,31
18.006;-1,04;-0,61;0,04;-2,05;-5,72;5,81;1,89;0,10;2,16;964,31
18.012;-0,75;-0,57;0,05;-2,05;-5,72;5,81;1,89;0,10;2,16;964,31
18.013;-0,51;-0,55;0,06;-2,05;-5,72;5,81;1,89;0,10;2,16;964,31
18.013;-0,32;-0,53;0,09;-2,05;-5,72;5,81;1,89;0,10;2,16;964,31
18.025;-0,32;-0,53;0,09;-2,05;-5,72;5,81;1,89;0,10;2,16;964,24
18.067;-0,32;-0,53;0,09;4,92;-5,46;6,50;1,89;0,10;2,16;964,24
18.067;-0,32;-0,53;0,09;4,92;-5,46;6,50;1,50;0,47;2,10;964,24
18.074;-0,15;-0,56;0,09;4,92;-5,46;6,50;1,50;0,47;2,10;964,24
18.075;0,02;-0,62;0,08;4,92;-5,46;6,50;1,50;0,47;2,10;964,24
18.075;0,16;-0,70;0,10;4,92;-5,46;6,50;1,50;0,47;2,10;964,24
18.126;0,16;-0,70;0,10;9,51;-7,30;6,71;1,50;0,47;2,10;964,24
18.127;0,16;-0,70;0,10;9,51;-7,30;6,71;1,66;-0,41;0,66;964,24
18.128;0,16;-0,70;0,10;9,51;-7,30;6,71;1,66;-0,41;0,66;964,16
18.133;0,20;-0,75;0,10;9,51;-7,30;6,71;1,66;-0,41;0,66;964,16
18.133;0,23;-0,77;0,01;9,51;-7,30;6,71;1,66;-0,41;0,66;964,16
18.134;0,23;-0,72;-0,11;9,51;-7,30;6,71;1,66;-0,41;0,66;964,16
18.185;0,23;-0,72;-0,11;10,38;-6,96;4,46;1,66;-0,41;0,66;964,16
18.185;0,23;-0,72;-0,11;10,38;-6,96;4,46;1,45;-0,36;-1,54;964,16
18.192;0,15;-0,73;-0,16;10,38;-6,96;4,46;1,45;-0,36;-1,54;964,16
18.2;-0,12;-0,77;-0,19;10,38;-6,96;4,46;1,45;-0,36;-1,54;964,16
18.2;-0,58;-0,81;-0,42;10,38;-6,96;4,46;1,45;-0,36;-1,54;964,16
18.225;-0,58;-0,81;-0,42;10,38;-6,96;4,46;1,45;-0,36;-1,54;964,16
18.246;-0,58;-0,81;-0,42;2,51;-6,14;0,97;1,45;-0,36;-1,54;964,16
18.247;-0,58;-0,81;-0,42;2,51;-6,14;0,97;0,92;-1,45;-3,69;964,16
18.253;-1,16;-0,88;-0,60;2,51;-6,14;0,97;0,92;-1,45;-3,69;964,16
18.253;-1,65;-0,95;-0,60;2,51;-6,14;0,97;0,92;-1,45;-3,69;964,16
18.253;-2,06;-0,85;-0,63;2,51;-6,14;0,97;0,92;-1,45;-3,69;964,16
18.307;-2,06;-0,85;-0,63;-12,41;-4,61;-1,60;0,92;-1,45;-3,69;964,16
18.308;-2,06;-0,85;-0,63;-12,41;-4,61;-1,60;0,11;0,08;-3,22;964,16
18.313;-2,32;-0,71;-0,80;-12,41;-4,61;-1,60;0,11;0,08;-3,22;964,16
18.313;-2,64;-0,65;-0,85;-12,41;-4,61;-1,60;0,11;0,08;-3,22;964,16
18.314;-2,59;-0,49;-0,85;-12,41;-4,61;-1,60;0,11;0,08;-3,22;964,16
18.324;-2,59;-0,49;-0,85;-12,41;-4,61;-1,60;0,11;0,08;-3,22;964,25
18.366;-2,59;-0,49;-0,85;-18,35;0,13;-3,51;0,11;0,08;-3,22;964,25
18.367;-2,59;-0,49;-0,85;-18,35;0,13;-3,51;-0,12;0,43;-1,69;964,25
18.374;-2,31;-0,39;-0,77;-18,35;0,13;-3,51;-0,12;0,43;-1,69;964,25
18.374;-2,05;-0,33;-0,67;-18,35;0,13;-3,51;-0,12;0,43;-1,69;964,25
18.374;-1,69;-0,20;-0,48;-18,35;0,13;-3,51;-0,12;0,43;-1,69;964,25
18.426;-1,69;-0,20;-0,48;-10,01;3,57;0,12;-0,12;0,43;-1,69;964,25
18.427;-1,69;-0,20;-0,48;-10,01;3,57;0,12;0,67;0,79;-0,72;964,25
18.428;-1,69;-0,20;-0,48;-10,01;3,57;0,12;0,67;0,79;-0,72;964,23
18.433;-1,22;0,03;-0,24;-10,01;3,57;0,12;0,67;0,79;-0,72;964,23
18.433;-0,87;0,29;-0,15;-10,01;3,57;0,12;0,67;0,79;-0,72;964,23
18.434;-0,58;0,64;-0,28;-10,01;3,57;0,12;0,67;0,79;-0,72;964,23
18.487;-0,58;0,64;-0,28;0,52;11,96;2,28;0,67;0,79;-0,72;964,23
18.488;-0,58;0,64;-0,28;0,52;11,96;2,28;0,93;0,82;0,77;964,23
18.492;-0,47;0,83;-0,18;0,52;11,96;2,28;0,93;0,82;0,77;964,23
18.492;-0,42;0,88;-0,00;0,52;11,96;2,28;0,93;0,82;0,77;964,23
18.492;-0,36;0,86;0,10;0,52;11,96;2,28;0,93;0,82;0,77;964,23
18.526;-0,36;0,86;0,10;0,52;11,96;2,28;0,93;0,82;0,77;964,23
18.545;-0,36;0,86;0,10;2,92;13,82;6,01;0,93;0,82;0,77;964,23
18.546;-0,36;0,86;0,10;2,92;13,82;6,01;1,46;1,67;2,62;964,23
18.552;-0,42;0,76;0,18;2,92;13,82;6,01;1,46;1,67;2,62;964,23
18.552;-0,58;0,62;0,19;2,92;13,82;6,01;1,46;1,67;2,62;964,23
18.552;-0,75;0,45;0,18;2,92;13,82;6,01;1,46;1,67;2,62;964,23
18.605;-0,75;0,45;0,18;-0,42;9,14;6,86;1,46;1,67;2,62;964,23
18.606;-0,75;0,45;0,18;-0,42;9,14;6,86;2,11;1,09;3,16;964,23
18.612;-1,01;0,26;0,22;-0,42;9,14;6,86;2,11;1,09;3,16;964,23
18.613;-1,43;0,18;0,25;-0,42;9,14;6,86;2,11;1,09;3,16;964,23
18.613;-2,17;-0,08;0,32;-0,42;9,14;6,86;2,11;1,09;3,16;964,23
18.624;-2,17;-0,08;0,32;-0,42;9,14;6,86;2,11;1,09;3,16;964,21
18.666;-2,17;-0,08;0,32;-13,93;3,10;8,35;2,11;1,09;3,16;964,21
18.667;-2,17;-0,08;0,32;-13,93;3,10;8,35;2,46;2,46;4,10;964,21
18.672;-2,74;-0,50;0,22;-13,93;3,10;8,35;2,46;2,46;4,10;964,21
18.673;-2,90;-0,67;0,07;-13,93;3,10;8,35;2,46;2,46;4,10;964,21
18.674;-3,16;-0,78;-0,05;-13,93;3,10;8,35;2,46;2,46;4,10;964,21
18.725;-3,16;-0,78;-0,05;-23,33;-4,82;4,89;2,46;2,46;4,10;964,21
18.726;-3,16;-0,78;-0,05;-23,33;-4,82;4,89;2,19;0,31;3,62;964,21
18.726;-3,16;-0,78;-0,05;-23,33;-4,82;4,89;2,19;0,31;3,62;964,29
18.732;-3,00;-0,84;-0,05;-23,33;-4,82;4,89;2,19;0,31;3,62;964,29
18.732;-2,67;-0,98;0,03;-23,33;-4,82;4,89;2,19;0,31;3,62;964,29
18.732;-2,13;-0,93;0,03;-23,33;-4,82;4,89;2,19;0,31;3,62;964,29
18.786;-2,13;-0,93;0,03;-12,75;-7,06;5,31;2,19;0,31;3,62;964,29
18.787;-2,13;-0,93;0,03;-12,75;-7,06;5,31;2,34;-0,15;2,46;964,29
18.792;-1,54;-0,76;0,05;-12,75;-7,06;5,31;2,34;-0,15;2,46;964,29
18.792;-1,11;-0,60;0,08;-12,75;-7,06;5,31;2,34;-0,15;2,46;964,29
18.792;-0,76;-0,54;0,16;-12,75;-7,06;5,31;2,34;-0,15;2,46;964,29
18.824;-0,76;-0,54;0,16;-12,75;-7,06;5,31;2,34;-0,15;2,46;964,29
18.845;-0,76;-0,54;0,16;0,80;-3,48;6,53;2,34;-0,15;2,46;964,29
18.846;-0,76;-0,54;0,16;0,80;-3,48;6,53;2,29;0,71;1,21;964,29
18.852;-0,51;-0,53;0,18;0,80;-3,48;6,53;2,29;0,71;1,21;964,29
18.852;-0,26;-0,55;0,16;0,80;-3,48;6,53;2,29;0,71;1,21;964,29
18.853;-0,01;-0,59;0,11;0,80;-3,48;6,53;2,29;0,71;1,21;964,29
18.906;-0,01;-0,59;0,11;8,12;-3,74;5,99;2,29;0,71;1,21;964,29
18.907;-0,01;-0,59;0,11;8,12;-3,74;5,99;2,01;-0,23;0,46;964,29
18.912;0,18;-0,62;0,06;8,12;-3,74;5,99;2,01;-0,23;0,46;964,29
18.913;0,34;-0,61;0,04;8,12;-3,74;5,99;2,01;-0,23;0,46;964,29
18.913;0,41;-0,59;0,05;8,12;-3,74;5,99;2,01;-0,23;0,46;964,29
18.925;0,41;-0,59;0,05;8,12;-3,74;5,99;2,01;-0,23;0,46;964,19
18.966;0,41;-0,59;0,05;12,23;-3,24;5,11;2,01;-0,23;0,46;964,19
18.967;0,41;-0,59;0,05;12,23;-3,24;5,11;1,16;0,82;-0,72;964,19
18.972;0,39;-0,63;0,07;12,23;-3,24;5,11;1,16;0,82;-0,72;964,19
18.973;0,22;-0,77;-0,04;12,23;-3,24;5,11;1,16;0,82;-0,72;964,19
18.973;-0,05;-0,93;-0,25;12,23;-3,24;5,11;1,16;0,82;-0,72;964,19
19.027;-0,05;-0,93;-0,25;7,35;-5,77;2,45;1,16;0,82;-0,72;964,19
19.028;-0,05;-0,93;-0,25;7,35;-5,77;2,45;0,28;-0,28;-2,06;964,19
19.028;-0,05;-0,93;-0,25;7,35;-5,77;2,45;0,28;-0,28;-2,06;964,26
19.031;-0,50;-1,08;-0,30;7,35;-5,77;2,45;0,28;-0,28;-2,06;964,26
19.032;-1,06;-1,16;-0,38;7,35;-5,77;2,45;0,28;-0,28;-2,06;964,26
19.032;-1,65;-1,22;-0,58;7,35;-5,77;2,45;0,28;-0,28;-2,06;964,26
19.086;-1,65;-1,22;-0,58;-8,58;-7,47;-1,32;0,28;-0,28;-2,06;964,26
19.087;-1,65;-1,22;-0,58;-8,58;-7,47;-1,32;-0,12;-1,70;-3,04;964,26
19.092;-1,79;-1,17;-0,65;-8,58;-7,47;-1,32;-0,12;-1,70;-3,04;964,26
19.092;-2,10;-1,10;-0,68;-8,58;-7,47;-1,32;-0,12;-1,70;-3,04;964,26
19.092;-2,34;-1,05;-0,71;-8,58;-7,47;-1,32;-0,12;-1,70;-3,04;964,26
19.125;-2,34;-1,05;-0,71;-8,58;-7,47;-1,32;-0,12;-1,70;-3,04;964,26
19.144;-2,34;-1,05;-0,71;-15,98;-4,67;-3,09;-0,12;-1,70;-3,04;964,26
19.144;-2,34;-1,05;-0,71;-15,98;-4,67;-3,09;-0,68;-1,04;-2,44;964,26
19.151;-2,38;-0,95;-0,68;-15,98;-4,67;-3,09;-0,68;-1,04;-2,44;964,26
19.152;-2,15;-0,73;-0,58;-15,98;-4,67;-3,09;-0,68;-1,04;-2,44;964,26
19.152;-1,84;-0,47;-0,54;-15,98;-4,67;-3,09;-0,68;-1,04;-2,44;964,26
19.205;-1,84;-0,47;-0,54;-11,61;1,74;-1,46;-0,68;-1,04;-2,44;964,26
19.206;-1,84;-0,47;-0,54;-11,61;1,74;-1,46;-0,59;0,16;-1,49;964,26
19.213;-1,62;-0,23;-0,45;-11,61;1,74;-1,46;-0,59;0,16;-1,49;964,26
19.213;-1,29;0,03;-0,30;-11,61;1,74;-1,46;-0,59;0,16;-1,49;964,26
19.214;-1,01;0,32;-0,27;-11,61;1,74;-1,46;-0,59;0,16;-1,49;964,26
19.226;-1,01;0,32;-0,27;-11,61;1,74;-1,46;-0,59;0,16;-1,49;964,27
19.265;-1,01;0,32;-0,27;-4,01;9,69;1,62;-0,59;0,16;-1,49;964,27
19.265;-1,01;0,32;-0,27;-4,01;9,69;1,62;-0,17;0,20;-0,36;964,27
19.274;-0,75;0,62;-0,25;-4,01;9,69;1,62;-0,17;0,20;-0,36;964,27
19.275;-0,60;0,85;-0,17;-4,01;9,69;1,62;-0,17;0,20;-0,36;964,27
19.275;-0,43;0,95;-0,04;-4,01;9,69;1,62;-0,17;0,20;-0,36;964,27
19.326;-0,43;0,95;-0,04;1,87;15,84;3,58;-0,17;0,20;-0,36;964,27
19.327;-0,43;0,95;-0,04;1,87;15,84;3,58;-0,17;0,20;-0,36;964,22
19.327;-0,43;0,95;-0,04;1,87;15,84;3,58;1,46;0,00;1,40;964,22
19.331;-0,33;0,96;0,11;1,87;15,84;3,58;1,46;0,00;1,40;964,22
19.332;-0,25;0,89;0,22;1,87;15,84;3,58;1,46;0,00;1,40;964,22
19.332;-0,17;0,73;0,17;1,87;15,84;3,58;1,46;0,00;1,40;964,22
19.386;-0,17;0,73;0,17;4,99;13,42;5,30;1,46;0,00;1,40;964,22
19.387;-0,17;0,73;0,17;4,99;13,42;5,30;2,33;1,31;2,12;964,22
19.392;-0,14;0,60;0,12;4,99;13,42;5,30;2,33;1,31;2,12;964,22
19.393;-0,33;0,39;0,07;4,99;13,42;5,30;2,33;1,31;2,12;964,22
19.393;-0,80;0,17;0,11;4,99;13,42;5,30;2,33;1,31;2,12;964,22
19.426;-0,80;0,17;0,11;4,99;13,42;5,30;2,33;1,31;2,12;964,22
19.445;-0,80;0,17;0,11;-0,53;7,35;4,22;2,33;1,31;2,12;964,22
19.446;-0,80;0,17;0,11;-0,53;7,35;4,22;2,73;3,14;3,13;964,22
19.454;-1,36;-0,01;0,29;-0,53;7,35;4,22;2,73;3,14;3,13;964,22
19.454;-2,06;-0,13;0,39;-0,53;7,35;4,22;2,73;3,14;3,13;964,22
19.455;-2,90;-0,65;0,18;-0,53;7,35;4,22;2,73;3,14;3,13;964,22
19.505;-2,90;-0,65;0,18;-20,55;-1,98;5,54;2,73;3,14;3,13;964,22
19.506;-2,90;-0,65;0,18;-20,55;-1,98;5,54;1,48;0,32;4,54;964,22
19.513;-3,37;-0,87;-0,23;-20,55;-1,98;5,54;1,48;0,32;4,54;964,22
19.513;-3,24;-0,85;-0,21;-20,55;-1,98;5,54;1,48;0,32;4,54;964,22
19.513;-2,90;-0,86;-0,15;-20,55;-1,98;5,54;1,48;0,32;4,54;964,22
19.525;-2,90;-0,86;-0,15;-20,55;-1,98;5,54;1,48;0,32;4,54;964,31
19.565;-2,90;-0,86;-0,15;-19,60;-6,00;2,15;1,48;0,32;4,54;964,31
19.566;-2,90;-0,86;-0,15;-19,60;-6,00;2,15;0,75;0,40;3,94;964,31
19.572;-2,69;-0,94;-0,19;-19,60;-6,00;2,15;0,75;0,40;3,94;964,31
19.573;-2,42;-1,02;-0,26;-19,60;-6,00;2,15;0,75;0,40;3,94;964,31
19.573;-1,96;-1,04;-0,27;-19,60;-6,00;2,15;0,75;0,40;3,94;964,31
19.625;-1,96;-1,04;-0,27;-10,08;-9,40;0,70;0,75;0,40;3,94;964,31
19.626;-1,96;-1,04;-0,27;-10,08;-9,40;0,70;0,76;-1,07;2,19;964,31
19.627;-1,96;-1,04;-0,27;-10,08;-9,40;0,70;0,76;-1,07;2,19;964,22
19.632;-1,41;-0,98;-0,21;-10,08;-9,40;0,70;0,76;-1,07;2,19;964,22
19.633;-0,92;-0,86;-0,14;-10,08;-9,40;0,70;0,76;-1,07;2,19;964,22
19.633;-0,50;-0,75;-0,08;-10,08;-9,40;0,70;0,76;-1,07;2,19;964,22
19.687;-0,50;-0,75;-0,08;4,38;-7,21;2,20;0,76;-1,07;2,19;964,22
19.688;-0,50;-0,75;-0,08;4,38;-7,21;2,20;0,97;0,24;0,62;964,22
19.692;-0,17;-0,61;-0,06;4,38;-7,21;2,20;0,97;0,24;0,62;964,22
19.692;0,11;-0,55;-0,04;4,38;-7,21;2,20;0,97;0,24;0,62;964,22
19.693;0,32;-0,53;-0,04;4,38;-7,21;2,20;0,97;0,24;0,62;964,22
19.726;0,32;-0,53;-0,04;4,38;-7,21;2,20;0,97;0,24;0,62;964,22
19.744;0,32;-0,53;-0,04;12,46;-5,05;2,75;0,97;0,24;0,62;964,22
19.745;0,32;-0,53;-0,04;12,46;-5,05;2,75;0,75;-0,24;-0,05;964,22
19.753;0,46;-0,53;-0,05;12,46;-5,05;2,75;0,75;-0,24;-0,05;964,22
19.754;0,54;-0,49;-0,07;12,46;-5,05;2,75;0,75;-0,24;-0,05;964,22
19.754;0,54;-0,50;-0,02;12,46;-5,05;2,75;0,75;-0,24;-0,05;964,22
19.805;0,54;-0,50;-0,02;14,66;-4,21;2,71;0,75;-0,24;-0,05;964,22
19.806;0,54;-0,50;-0,02;14,66;-4,21;2,71;-0,07;-0,04;-1,60;964,22
19.812;0,44;-0,55;0,03;14,66;-4,21;2,71;-0,07;-0,04;-1,60;964,22
19.812;0,31;-0,62;0,03;14,66;-4,21;2,71;-0,07;-0,04;-1,60;964,22
19.813;0,10;-0,71;-0,20;14,66;-4,21;2,71;-0,07;-0,04;-1,60;964,22
19.824;0,10;-0,71;-0,20;14,66;-4,21;2,71;-0,07;-0,04;-1,60;964,16
19.866;0,10;-0,71;-0,20;10,21;-5,27;1,00;-0,07;-0,04;-1,60;964,16
19.867;0,10;-0,71;-0,20;10,21;-5,27;1,00;-0,95;-0,21;-2,75;964,16
19.872;-0,45;-0,89;-0,21;10,21;-5,27;1,00;-0,95;-0,21;-2,75;964,16
19.873;-1,10;-0,98;-0,27;10,21;-5,27;1,00;-0,95;-0,21;-2,75;964,16
19.873;-1,96;-1,06;-0,57;10,21;-5,27;1,00;-0,95;-0,21;-2,75;964,16
19.926;-1,96;-1,06;-0,57;-10,19;-7,50;-2,92;-0,95;-0,21;-2,75;964,16
19.926;-1,96;-1,06;-0,57;-10,19;-7,50;-2,92;-0,95;-0,21;-2,75;964,29
19.927;-1,96;-1,06;-0,57;-10,19;-7,50;-2,92;-1,73;-1,53;-2,73;964,29
19.935;-2,20;-1,10;-0,67;-10,19;-7,50;-2,92;-1,73;-1,53;-2,73;964,29
19.936;-2,39;-1,04;-0,77;-10,19;-7,50;-2,92;-1,73;-1,53;-2,73;964,29
19.936;-2,48;-0,96;-0,73;-10,19;-7,50;-2,92;-1,73;-1,53;-2,73;964,29
19.985;-2,48;-0,96;-0,73;-15,71;-5,36;-4,63;-1,73;-1,53;-2,73;964,29
19.986;-2,48;-0,96;-0,73;-15,71;-5,36;-4,63;-1,86;0,17;-2,86;964,29
19.992;-2,31;-0,79;-0,66;-15,71;-5,36;-4,63;-1,86;0,17;-2,86;964,29
19.992;-1,96;-0,56;-0,56;-15,71;-5,36;-4,63;-1,86;0,17;-2,86;964,29
19.992;-1,65;-0,29;-0,44;-15,71;-5,36;-4,63;-1,86;0,17;-2,86;964,29
20.025;-1,65;-0,29;-0,44;-15,71;-5,36;-4,63;-1,86;0,17;-2,86;964,29
20.045;-1,65;-0,29;-0,44;-8,47;2,35;-1,15;-1,86;0,17;-2,86;964,29
20.045;-1,65;-0,29;-0,44;-8,47;2,35;-1,15;-1,08;-0,11;-2,69;964,29
