time;gFx;gFy;gFz;ax;ay;az;wx;wy;wz;P
0.01;0,4;-0,53;-0,28;9,9;-12,24;0,59;3,84;-3,89;-1,71;970,83
0.03;0,4;-0,53;-0,28;9,9;-12,24;0,59;2,76;-1,56;0,06;970,83
0.03;0,4;-0,53;-0,28;2,96;-9,15;2,53;2,76;-1,56;0,06;970,83
0.03;-0,31;-0,31;-0,23;2,96;-9,15;2,53;2,76;-1,56;0,06;970,83
0.09;-0,31;-0,31;-0,23;2,96;-9,15;2,53;2,51;-0,19;-1,16;970,83
0.09;-0,31;-0,31;-0,23;2,96;-9,15;2,53;2,51;-0,19;-1,16;970,82
0.09;-0,31;-0,31;-0,23;4,33;-5,8;-0,66;2,51;-0,19;-1,16;970,82
0.112;-0,2;-0,07;-0,63;4,33;-5,8;-0,66;2,51;-0,19;-1,16;970,82
0.15;-0,2;-0,07;-0,63;4,33;-5,8;-0,66;2,85;-0,25;0,02;970,82
0.15;-0,2;-0,07;-0,63;4,33;-5,8;-0,66;2,85;-0,25;0,02;970,83
0.151;-0,2;-0,07;-0,63;5,08;0,01;-1,5;2,85;-0,25;0,02;970,83
0.211;-0,14;0,42;-0,77;5,08;0,01;-1,5;2,85;-0,25;0,02;970,83
0.211;-0,14;0,42;-0,77;5,08;0,01;-1,5;2,96;-0,12;0,17;970,83
0.212;-0,53;-1,63;-1,28;5,08;0,01;-1,5;2,96;-0,12;0,17;970,83
0.212;-0,53;-1,63;-1,28;5,08;0,01;-1,5;3,38;3,23;-2,4;970,83
0.272;-0,53;-1,63;-1,28;0,67;-18,79;-5,15;3,38;3,23;-2,4;970,83
0.272;-0,53;-1,63;-1,28;0,67;-18,79;-5,15;3,38;3,23;-2,4;970,81
0.272;-0,53;-1,63;-1,28;-10,58;-26,68;-8,8;3,38;3,23;-2,4;970,81
0.31;-1,55;-2,77;-1,78;-10,58;-26,68;-8,8;3,38;3,23;-2,4;970,81
0.333;-1,55;-2,77;-1,78;-10,58;-26,68;-8,8;5,29;-0,92;-6,36;970,81
0.334;-1,55;-2,77;-1,78;-4;-7,02;-11,1;5,29;-0,92;-6,36;970,81
0.334;-0,93;-1,29;-1,77;-4;-7,02;-11,1;5,29;-0,92;-6,36;970,81
0.391;-0,93;-1,29;-1,77;-4;-7,02;-11,1;5,66;-6,38;-8,9;970,81
0.392;-0,93;-1,29;-1,77;-4;-7,02;-11,1;5,66;-6,38;-8,9;970,8
0.392;-0,93;-1,29;-1,77;-13,23;3,48;-2,61;5,66;-6,38;-8,9;970,8
0.41;-1,7;-0,51;-0,63;-13,23;3,48;-2,61;5,66;-6,38;-8,9;970,8
0.452;-1,7;-0,51;-0,63;-13,23;3,48;-2,61;-0,53;-5,22;-5,74;970,8
0.453;-1,7;-0,51;-0,63;-13,23;3,48;-2,61;-0,53;-5,22;-5,74;970,83
0.453;-1,7;-0,51;-0,63;-12,34;2,03;-5,33;-0,53;-5,22;-5,74;970,83
0.512;-1,59;-0,68;-0,87;-12,34;2,03;-5,33;-0,53;-5,22;-5,74;970,83
0.513;-1,59;-0,68;-0,87;-12,34;2,03;-5,33;-2,62;-7,33;0,72;970,83
0.513;-1,59;-0,68;-0,87;-7;0,21;5,55;-2,62;-7,33;0,72;970,83
0.514;-1,28;-0,75;0,26;-7;0,21;5,55;-2,62;-7,33;0,72;970,83
0.573;-1,28;-0,75;0,26;-7;0,21;5,55;-4,28;-5,68;2,86;970,83
0.574;-1,28;-0,75;0,26;-7;0,21;5,55;-4,28;-5,68;2,86;970,86
0.574;-1,28;-0,75;0,26;-5,84;-0,25;10,52;-4,28;-5,68;2,86;970,86
0.61;-1,37;-0,55;0,72;-5,84;-0,25;10,52;-4,28;-5,68;2,86;970,86
0.631;-1,37;-0,55;0,72;-5,84;-0,25;10,52;-2,87;1,61;6,54;970,86
0.632;-1,37;-0,55;0,72;-14,63;-3,61;-6,21;-2,87;1,61;6,54;970,86
0.632;-2,23;-0,39;-1,31;-14,63;-3,61;-6,21;-2,87;1,61;6,54;970,86
0.694;-2,23;-0,39;-1,31;-14,63;-3,61;-6,21;-4,81;7,64;9,52;970,86
0.694;-2,23;-0,39;-1,31;-14,63;-3,61;-6,21;-4,81;7,64;9,52;970,91
0.695;-2,23;-0,39;-1,31;-2,36;-21,19;-3,14;-4,81;7,64;9,52;970,91
0.711;-0,75;-1,58;-0,95;-2,36;-21,19;-3,14;-4,81;7,64;9,52;970,91
0.75;-0,75;-1,58;-0,95;-2,36;-21,19;-3,14;-6,21;-3,02;7,65;970,91
0.751;-0,75;-1,58;-0,95;-2,36;-21,19;-3,14;-6,21;-3,02;7,65;970,86
0.751;-0,75;-1,58;-0,95;3,51;-10,17;-9,89;-6,21;-3,02;7,65;970,86
0.81;-0,01;-0,29;-1,56;3,51;-10,17;-9,89;-6,21;-3,02;7,65;970,86
0.81;-0,01;-0,29;-1,56;3,51;-10,17;-9,89;3,09;-4,63;3,29;970,86
0.81;-0,01;-0,29;-1,56;11,51;-6,05;3,57;3,09;-4,63;3,29;970,86
0.811;0,74;0,06;-0,23;11,51;-6,05;3,57;3,09;-4,63;3,29;970,86
0.872;0,74;0,06;-0,23;11,51;-6,05;3,57;4,25;-1,99;0,14;970,86
0.873;0,74;0,06;-0,23;11,51;-6,05;3,57;4,25;-1,99;0,14;970,86
0.874;0,74;0,06;-0,23;8,66;-7,19;5,78;4,25;-1,99;0,14;970,86
0.91;0,39;-0,17;-0,08;8,66;-7,19;5,78;4,25;-1,99;0,14;970,86
0.932;0,39;-0,17;-0,08;8,66;-7,19;5,78;1,77;-0,17;-0,3;970,86
0.933;0,39;-0,17;-0,08;1,88;-8,57;6,85;1,77;-0,17;-0,3;970,86
0.933;-0,3;-0,4;-0,03;1,88;-8,57;6,85;1,77;-0,17;-0,3;970,86
0.991;-0,3;-0,4;-0,03;1,88;-8,57;6,85;1,54;-0,69;-0,12;970,86
0.991;-0,3;-0,4;-0,03;1,88;-8,57;6,85;1,54;-0,69;-0,12;970,87
0.991;-0,3;-0,4;-0,03;5,4;-4,63;6,52;1,54;-0,69;-0,12;970,87
1.011;0;-0,07;-0,07;5,4;-4,63;6,52;1,54;-0,69;-0,12;970,87
1.054;0;-0,07;-0,07;5,4;-4,63;6,52;1,95;-1,34;0,19;970,87
1.054;0;-0,07;-0,07;5,4;-4,63;6,52;1,95;-1,34;0,19;970,85
1.055;0;-0,07;-0,07;5,13;-7,25;-1,42;1,95;-1,34;0,19;970,85
1.111;0;-0,43;-0,94;5,13;-7,25;-1,42;1,95;-1,34;0,19;970,85
1.111;0;-0,43;-0,94;5,13;-7,25;-1,42;2,33;2,76;0,71;970,85
1.112;0;-0,43;-0,94;2,66;-20,1;-8,43;2,33;2,76;0,71;970,85
1.112;0,02;-1,85;-1,81;2,66;-20,1;-8,43;2,33;2,76;0,71;970,85
1.175;0,02;-1,85;-1,81;2,66;-20,1;-8,43;5,09;-0,53;-0,38;970,85
1.175;0,02;-1,85;-1,81;2,66;-20,1;-8,43;5,09;-0,53;-0,38;970,81
1.175;0,02;-1,85;-1,81;-2,16;-24,22;-8,65;5,09;-0,53;-0,38;970,81
1.210;-0,63;-2,66;-1,77;-2,16;-24,22;-8,65;5,09;-0,53;-0,38;970,81
1.235;-0,63;-2,66;-1,77;-2,16;-24,22;-8,65;6,91;-3,74;-5,58;970,81
1.235;-0,63;-2,66;-1,77;-3,94;-3,58;-9,92;6,91;-3,74;-5,58;970,81
1.235;-0,81;-1,02;-1,65;-3,94;-3,58;-9,92;6,91;-3,74;-5,58;970,81
1.294;-0,81;-1,02;-1,65;-3,94;-3,58;-9,92;4,84;-6,2;-7,79;970,81
1.294;-0,81;-1,02;-1,65;-3,94;-3,58;-9,92;4,84;-6,2;-7,79;970,8
1.295;-0,81;-1,02;-1,65;-11,77;6,53;-8,54;4,84;-6,2;-7,79;970,8
1.310;-1,47;-0,21;-1,27;-11,77;6,53;-8,54;4,84;-6,2;-7,79;970,8
1.352;-1,47;-0,21;-1,27;-11,77;6,53;-8,54;0,37;-7,15;-3,72;970,8
1.352;-1,47;-0,21;-1,27;-11,77;6,53;-8,54;0,37;-7,15;-3,72;970,83
1.353;-1,47;-0,21;-1,27;-9,63;4,29;-13,93;0,37;-7,15;-3,72;970,83
1.411;-1,33;-0,44;-1,75;-9,63;4,29;-13,93;0,37;-7,15;-3,72;970,83
1.411;-1,33;-0,44;-1,75;-9,63;4,29;-13,93;-3,47;-9,54;0,24;970,83
1.411;-1,33;-0,44;-1,75;-8,89;-5,78;13,31;-3,47;-9,54;0,24;970,83
1.411;-1,5;-1,31;0,98;-8,89;-5,78;13,31;-3,47;-9,54;0,24;970,83
1.473;-1,5;-1,31;0,98;-8,89;-5,78;13,31;-3,46;-2,36;3,63;970,83
1.474;-1,5;-1,31;0,98;-8,89;-5,78;13,31;-3,46;-2,36;3,63;970,88
1.475;-1,5;-1,31;0,98;-14,09;-3,72;9,82;-3,46;-2,36;3,63;970,88
1.512;-2,19;-0,81;0,51;-14,09;-3,72;9,82;-3,46;-2,36;3,63;970,88
1.533;-2,19;-0,81;0,51;-14,09;-3,72;9,82;-3,58;0,6;6,97;970,88
1.534;-2,19;-0,81;0,51;-7,28;-7,86;-7,34;-3,58;0,6;6,97;970,88
1.534;-1,51;-0,7;-1,38;-7,28;-7,86;-7,34;-3,58;0,6;6,97;970,88
1.593;-1,51;-0,7;-1,38;-7,28;-7,86;-7,34;-4,8;3,55;9,94;970,88
1.593;-1,51;-0,7;-1,38;-7,28;-7,86;-7,34;-4,8;3,55;9,94;970,89
1.593;-1,51;-0,7;-1,38;-0,15;-16,11;-3,59;-4,8;3,55;9,94;970,89
1.610;-0,53;-0,99;-0,93;-0,15;-16,11;-3,59;-4,8;3,55;9,94;970,89
1.653;-0,53;-0,99;-0,93;-0,15;-16,11;-3,59;-2,75;-1,51;6,1;970,89
1.654;-0,53;-0,99;-0,93;-0,15;-16,11;-3,59;-2,75;-1,51;6,1;970,86
1.654;-0,53;-0,99;-0,93;6;-10,29;-7,86;-2,75;-1,51;6,1;970,86
1.711;0,16;-0,31;-1,3;6;-10,29;-7,86;-2,75;-1,51;6,1;970,86
1.711;0,16;-0,31;-1,3;6;-10,29;-7,86;2,73;-4,57;0,61;970,86
1.712;0,16;-0,31;-1,3;4,6;-7,71;-0,21;2,73;-4,57;0,61;970,86
1.712;-0,07;-0,18;-0,61;4,6;-7,71;-0,21;2,73;-4,57;0,61;970,86
1.772;-0,07;-0,18;-0,61;4,6;-7,71;-0,21;4,17;-2,02;0,39;970,86
1.773;-0,07;-0,18;-0,61;4,6;-7,71;-0,21;4,17;-2,02;0,39;970,88
1.773;-0,07;-0,18;-0,61;4,8;-7,03;0,26;4,17;-2,02;0,39;970,88
1.811;-0,07;-0,18;-0,61;4,8;-7,03;0,26;1,93;1,2;0,01;970,88
1.831;0,48;-0,5;0,03;4,8;-7,03;0,26;1,93;1,2;0,01;970,88
1.831;0,48;-0,5;0,03;1,33;-6,79;5,94;1,93;1,2;0,01;970,88
1.832;-0,38;-0,25;-0,13;1,33;-6,79;5,94;1,93;1,2;0,01;970,88
1.891;-0,38;-0,25;-0,13;1,33;-6,79;5,94;2,63;-1,19;0,46;970,88
1.892;-0,38;-0,25;-0,13;1,33;-6,79;5,94;2,63;-1,19;0,46;970,87
1.892;-0,38;-0,25;-0,13;6,7;-2,79;3,17;2,63;-1,19;0,46;970,87
1.911;0,14;0,06;-0,44;6,7;-2,79;3,17;2,63;-1,19;0,46;970,87
1.954;0,14;0,06;-0,44;6,7;-2,79;3,17;2,42;0,15;0,99;970,87
1.955;0,14;0,06;-0,44;6,7;-2,79;3,17;2,42;0,15;0,99;970,85
1.955;0,14;0,06;-0,44;6,73;-7,67;-2,05;2,42;0,15;0,99;970,85
2.001;0,21;-0,52;-1,05;6,73;-7,67;-2,05;2,42;0,15;0,99;970,85
2.011;0,21;-0,52;-1,05;6,73;-7,67;-2,05;3,01;1,75;0,48;970,85
2.011;0,21;-0,52;-1,05;-1,71;-26,47;-10,24;3,01;1,75;0,48;970,85
2.011;-0,5;-2,63;-1,99;-1,71;-26,47;-10,24;3,01;1,75;0,48;970,85
2.071;-0,5;-2,63;-1,99;-1,71;-26,47;-10,24;4,6;5,15;-0,84;970,85
2.072;-0,5;-2,63;-1,99;-1,71;-26,47;-10,24;4,6;5,15;-0,84;970,79
2.072;-0,5;-2,63;-1,99;-5,61;-23,09;-10,47;4,6;5,15;-0,84;970,79
2.111;-0,74;-2,66;-2,01;-5,61;-23,09;-10,47;4,6;5,15;-0,84;970,79
2.131;-0,74;-2,66;-2,01;-5,61;-23,09;-10,47;8,21;-3,17;-2,97;970,79
2.132;-0,74;-2,66;-2,01;-3,02;9,46;-10,4;8,21;-3,17;-2,97;970,79
2.132;-0,62;0,23;-1,66;-3,02;9,46;-10,4;8,21;-3,17;-2,97;970,79
2.192;-0,62;0,23;-1,66;-3,02;9,46;-10,4;2,71;-10,71;-8,06;970,79
2.192;-0,62;0,23;-1,66;-3,02;9,46;-10,4;2,71;-10,71;-8,06;970,79
2.192;-0,62;0,23;-1,66;-10,36;2,68;-16,91;2,71;-10,71;-8,06;970,79
2.21;-1,36;-0,59;-2,12;-10,36;2,68;-16,91;2,71;-10,71;-8,06;970,79
2.253;-1,36;-0,59;-2,12;-10,36;2,68;-16,91;-2,38;-11,54;-2,04;970,79
2.254;-1,36;-0,59;-2,12;-10,36;2,68;-16,91;-2,38;-11,54;-2,04;970,79
2.254;-1,36;-0,59;-2,12;-5,22;-6,37;-14,26;-2,38;-11,54;-2,04;970,79
2.311;-1,05;-1,42;-1,83;-5,22;-6,37;-14,26;-2,38;-11,54;-2,04;970,79
2.312;-1,05;-1,42;-1,83;-5,22;-6,37;-14,26;-5,51;-11,37;1,73;970,79
2.312;-1,05;-1,42;-1,83;-4,46;-4,06;-0,74;-5,51;-11,37;1,73;970,79
2.312;-1,24;-0,93;-0,42;-4,46;-4,06;-0,74;-5,51;-11,37;1,73;970,79
2.373;-1,24;-0,93;-0,42;-4,46;-4,06;-0,74;-2,16;0,07;6,24;970,79
2.374;-1,24;-0,93;-0,42;-4,46;-4,06;-0,74;-2,16;0,07;6,24;970,87
2.374;-1,24;-0,93;-0,42;-4,41;-5,37;9,02;-2,16;0,07;6,24;970,87
2.41;-1,39;-0,61;0,58;-4,41;-5,37;9,02;-2,16;0,07;6,24;970,87
2.432;-1,39;-0,61;0,58;-4,41;-5,37;9,02;-2,11;2,52;10,21;970,87
2.433;-1,39;-0,61;0,58;-0,27;-5,42;-5,43;-2,11;2,52;10,21;970,87
2.433;-0,75;-0,03;-1,01;-0,27;-5,42;-5,43;-2,11;2,52;10,21;970,87
2.491;-0,75;-0,03;-1,01;-0,27;-5,42;-5,43;-3,85;0,28;9,4;970,87
2.492;-0,75;-0,03;-1,01;-0,27;-5,42;-5,43;-3,85;0,28;9,4;970,82
2.492;-0,75;-0,03;-1,01;-2,71;-9,15;-1,84;-3,85;0,28;9,4;970,82
2.512;-0,69;-0,11;-0,58;-2,71;-9,15;-1,84;-3,85;0,28;9,4;970,82
2.552;-0,69;-0,11;-0,58;-2,71;-9,15;-1,84;2,13;3,64;1,78;970,82
2.553;-0,69;-0,11;-0,58;-2,71;-9,15;-1,84;2,13;3,64;1,78;970,82
2.553;-0,69;-0,11;-0,58;-0,13;-12,4;-0,05;2,13;3,64;1,78;970,82
2.611;-0,46;-0,53;-0,51;-0,13;-12,4;-0,05;2,13;3,64;1,78;970,82
2.611;-0,46;-0,53;-0,51;-0,13;-12,4;-0,05;3,89;-6,19;-0,8;970,82
2.611;0,54;-0,31;-0,24;-0,13;-12,4;-0,05;3,89;-6,19;-0,8;970,82
2.612;0,54;-0,31;-0,24;-0,13;-12,4;-0,05;2,35;-1,38;1,34;970,82
2.672;0,54;-0,31;-0,24;10,68;-9,09;3,14;2,35;-1,38;1,34;970,82
2.673;0,54;-0,31;-0,24;10,68;-9,09;3,14;2,35;-1,38;1,34;970,86
2.673;0,54;-0,31;-0,24;4,41;-10,85;4,74;2,35;-1,38;1,34;970,86
2.71;-0,07;-0,52;-0,15;4,41;-10,85;4,74;2,35;-1,38;1,34;970,86
2.732;-0,07;-0,52;-0,15;4,41;-10,85;4,74;2,09;1,37;0,19;970,86
2.732;-0,07;-0,52;-0,15;5,11;-7,53;4,09;2,09;1,37;0,19;970,86
2.733;-0,03;-0,27;-0,25;5,11;-7,53;4,09;2,09;1,37;0,19;970,86
2.791;-0,03;-0,27;-0,25;5,11;-7,53;4,09;2,32;-1,42;0,6;970,86
2.792;-0,03;-0,27;-0,25;5,11;-7,53;4,09;2,32;-1,42;0,6;970,87
2.792;-0,03;-0,27;-0,25;3,49;-4,73;-1,27;2,32;-1,42;0,6;970,87
2.811;-0,17;-0,06;-0,86;3,49;-4,73;-1,27;2,32;-1,42;0,6;970,87
2.852;-0,17;-0,06;-0,86;3,49;-4,73;-1,27;2,37;0,77;0,74;970,87
2.853;-0,17;-0,06;-0,86;3,49;-4,73;-1,27;2,37;0,77;0,74;970,87
2.853;-0,17;-0,06;-0,86;0,56;-11,65;-9,65;2,37;0,77;0,74;970,87
2.912;-0,42;-0,86;-1,8;0,56;-11,65;-9,65;2,37;0,77;0,74;970,87
2.912;-0,42;-0,86;-1,8;0,56;-11,65;-9,65;3,01;1,26;0,61;970,87
2.912;-0,42;-0,86;-1,8;-4,13;-22,15;-6,21;3,01;1,26;0,61;970,87
2.913;-0,9;-2,18;-1,51;-4,13;-22,15;-6,21;3,01;1,26;0,61;970,87
2.971;-0,9;-2,18;-1,51;-4,13;-22,15;-6,21;5,79;-2,12;-5,5;970,87
2.972;-0,9;-2,18;-1,51;-4,13;-22,15;-6,21;5,79;-2,12;-5,5;970,84
2.973;-0,9;-2,18;-1,51;-6,53;-14,59;-8,17;5,79;-2,12;-5,5;970,84
3.011;-1,21;-1,96;-1,53;-6,53;-14,59;-8,17;5,79;-2,12;-5,5;970,84
3.032;-1,21;-1,96;-1,53;-6,53;-14,59;-8,17;5,69;-4,74;-9,52;970,84
3.033;-1,21;-1,96;-1,53;-12,36;2,57;-5,73;5,69;-4,74;-9,52;970,84
3.033;-1,65;-0,57;-0,98;-12,36;2,57;-5,73;5,69;-4,74;-9,52;970,84
3.092;-1,65;-0,57;-0,98;-12,36;2,57;-5,73;1,33;-5,12;-5,65;970,84
3.093;-1,65;-0,57;-0,98;-12,36;2,57;-5,73;1,33;-5,12;-5,65;970,88
3.093;-1,65;-0,57;-0,98;-9,67;4,79;-12,6;1,33;-5,12;-5,65;970,88
3.110;-1,36;-0,41;-1,54;-9,67;4,79;-12,6;1,33;-5,12;-5,65;970,88
3.152;-1,36;-0,41;-1,54;-9,67;4,79;-12,6;-0,64;-10,38;1,14;970,88
3.153;-1,36;-0,41;-1,54;-9,67;4,79;-12,6;-0,64;-10,38;1,14;970,88
3.153;-1,36;-0,41;-1,54;-0,66;3,32;6,15;-0,64;-10,38;1,14;970,88
3.21;-0,65;-0,47;0,57;-0,66;3,32;6,15;-0,64;-10,38;1,14;970,88
3.211;-0,65;-0,47;0,57;-0,66;3,32;6,15;-4,62;-7;3,55;970,88
3.212;-0,65;-0,47;0,57;-9,62;3,79;-0,3;-4,62;-7;3,55;970,88
3.212;-1,74;-0,24;-0,22;-9,62;3,79;-0,3;-4,62;-7;3,55;970,88
3.273;-1,74;-0,24;-0,22;-9,62;3,79;-0,3;-2,92;2,79;5,23;970,88
3.273;-1,74;-0,24;-0,22;-9,62;3,79;-0,3;-2,92;2,79;5,23;970,91
3.274;-1,74;-0,24;-0,22;-6,78;1,62;3,32;-2,92;2,79;5,23;970,91
3.312;-1,57;-0,07;-0,08;-6,78;1,62;3,32;-2,92;2,79;5,23;970,91
3.333;-1,57;-0,07;-0,08;-6,78;1,62;3,32;-3,58;7,53;8,9;970,91
3.335;-1,57;-0,07;-0,08;-6,62;-12,82;-0,97;-3,58;7,53;8,9;970,91
3.335;-1,31;-0,96;-0,79;-6,62;-12,82;-0,97;-3,58;7,53;8,9;970,91
3.392;-1,31;-0,96;-0,79;-6,62;-12,82;-0,97;-6,27;0,3;6,89;970,91
3.393;-1,31;-0,96;-0,79;-6,62;-12,82;-0,97;-6,27;0,3;6,89;970,84
3.394;-1,31;-0,96;-0,79;-4,03;-16,58;-7,35;-6,27;0,3;6,89;970,84
3.412;-0,95;-1,06;-1,31;-4,03;-16,58;-7,35;-6,27;0,3;6,89;970,84
3.452;-0,95;-1,06;-1,31;-4,03;-16,58;-7,35;3,18;-5,8;1,57;970,84
3.453;-0,95;-1,06;-1,31;-4,03;-16,58;-7,35;3,18;-5,8;1,57;970,84
3.453;-0,95;-1,06;-1,31;5,71;-9,07;-4,79;3,18;-5,8;1,57;970,84
3.513;-0,06;-0,4;-1,05;5,71;-9,07;-4,79;3,18;-5,8;1,57;970,84
3.514;-0,06;-0,4;-1,05;5,71;-9,07;-4,79;4,62;-1,75;0,05;970,84
3.514;-0,06;-0,4;-1,05;14;-1,3;0,55;4,62;-1,75;0,05;970,84
3.514;0,73;0,27;-0,54;14;-1,3;0,55;4,62;-1,75;0,05;970,84
3.574;0,73;0,27;-0,54;14;-1,3;0,55;2,01;-2,3;1,5;970,84
3.574;0,73;0,27;-0,54;14;-1,3;0,55;2,01;-2,3;1,5;970,82
3.574;0,73;0,27;-0,54;8,02;-4,66;3,25;2,01;-2,3;1,5;970,82
3.613;0,12;-0,1;-0,28;8,02;-4,66;3,25;2,01;-2,3;1,5;970,82
3.633;0,12;-0,1;-0,28;8,02;-4,66;3,25;1,58;1,7;0,08;970,82
3.633;0,12;-0,1;-0,28;7,02;-3,11;2,36;1,58;1,7;0,08;970,82
3.633;0,03;0,02;-0,41;7,02;-3,11;2,36;1,58;1,7;0,08;970,82
3.691;0,03;0,02;-0,41;7,02;-3,11;2,36;1,01;-1,22;0;970,82
3.692;0,03;0,02;-0,41;7,02;-3,11;2,36;1,01;-1,22;0;970,85
3.692;0,03;0,02;-0,41;5,01;-3,01;-0,63;1,01;-1,22;0;970,85
3.711;-0,22;0;-0,68;5,01;-3,01;-0,63;1,01;-1,22;0;970,85
3.752;-0,22;0;-0,68;5,01;-3,01;-0,63;0,38;0,1;0,12;970,85
3.753;-0,22;0;-0,68;5,01;-3,01;-0,63;0,38;0,1;0,12;970,85
3.753;-0,22;0;-0,68;-5,83;-20,56;-13,84;0,38;0,1;0,12;970,85
3.811;-1,36;-1,79;-1,97;-5,83;-20,56;-13,84;0,38;0,1;0,12;970,85
3.811;-1,36;-1,79;-1,97;-5,83;-20,56;-13,84;-1,75;-3,13;-2,86;970,85
3.811;-1,36;-1,79;-1,97;0,62;-14,8;-4,29;-1,75;-3,13;-2,86;970,85
3.812;-0,92;-1,44;-0,63;0,62;-14,8;-4,29;-1,75;-3,13;-2,86;970,85
3.873;-0,92;-1,44;-0,63;0,62;-14,8;-4,29;-0,96;-11,94;-8,49;970,85
3.874;-0,92;-1,44;-0,63;0,62;-14,8;-4,29;-0,96;-11,94;-8,49;970,81
3.874;-0,92;-1,44;-0,63;-2,82;-8,88;5,16;-0,96;-11,94;-8,49;970,81
3.911;-1,1;-1,42;0,8;-2,82;-8,88;5,16;-0,96;-11,94;-8,49;970,81
3.932;-1,1;-1,42;0,8;-2,82;-8,88;5,16;-4,5;-0,14;-7,82;970,81
3.933;-1,1;-1,42;0,8;-12,25;2,54;4,72;-4,5;-0,14;-7,82;970,81
3.933;-1,84;-0,55;0,57;-12,25;2,54;4,72;-4,5;-0,14;-7,82;970,81
3.993;-1,84;-0,55;0,57;-12,25;2,54;4,72;-2,22;-1,41;-3,31;970,81
3.994;-1,84;-0,55;0,57;-12,25;2,54;4,72;-2,22;-1,41;-3,31;970,86
3.994;-1,84;-0,55;0,57;-6,3;3,88;1,01;-2,22;-1,41;-3,31;970,86
4.011;-1,16;-0,46;0,17;-6,3;3,88;1,01;-2,22;-1,41;-3,31;970,86
4.052;-1,16;-0,46;0,17;-6,3;3,88;1,01;-2,94;-5,26;1,88;970,86
4.053;-1,16;-0,46;0,17;-6,3;3,88;1,01;-2,94;-5,26;1,88;970,88
4.053;-1,16;-0,46;0,17;-5,7;-0,51;10,67;-2,94;-5,26;1,88;970,88
4.113;-1,21;-0,82;1,21;-5,7;-0,51;10,67;-2,94;-5,26;1,88;970,88
4.113;-1,21;-0,82;1,21;-5,7;-0,51;10,67;-0,91;-1,64;4,15;970,88
4.114;-1,21;-0,82;1,21;-14,86;-0,04;0,73;-0,91;-1,64;4,15;970,88
4.114;-2,36;-0,53;0,2;-14,86;-0,04;0,73;-0,91;-1,64;4,15;970,88
4.173;-2,36;-0,53;0,2;-14,86;-0,04;0,73;0,57;0,48;7,36;970,88
4.174;-2,36;-0,53;0,2;-14,86;-0,04;0,73;0,57;0,48;7,36;970,86
4.174;-2,36;-0,53;0,2;-1,82;-11,45;4,93;0,57;0,48;7,36;970,86
4.213;-1,15;-1,2;0,77;-1,82;-11,45;4,93;0,57;0,48;7,36;970,86
4.232;-1,15;-1,2;0,77;-1,82;-11,45;4,93;0,47;-6,71;10,13;970,86
4.233;-1,15;-1,2;0,77;-2,51;-6,28;0,17;0,47;-6,71;10,13;970,86
4.233;-1,03;-0,09;0,33;-2,51;-6,28;0,17;0,47;-6,71;10,13;970,86
4.292;-1,03;-0,09;0,33;-2,51;-6,28;0,17;2,77;3,63;7,03;970,86
4.293;-1,03;-0,09;0,33;-2,51;-6,28;0,17;2,77;3,63;7,03;970,86
4.293;-1,03;-0,09;0,33;-2,76;-6,81;-3,63;2,77;3,63;7,03;970,86
4.311;-0,93;0,05;-0,23;-2,76;-6,81;-3,63;2,77;3,63;7,03;970,86
4.351;-0,93;0,05;-0,23;-2,76;-6,81;-3,63;3,85;-1,91;-0,58;970,86
4.352;-0,93;0,05;-0,23;-2,76;-6,81;-3,63;3,85;-1,91;-0,58;970,85
4.353;-0,93;0,05;-0,23;4,62;-9,19;-7,19;3,85;-1,91;-0,58;970,85
4.41;-0,23;-0,23;-0,67;4,62;-9,19;-7,19;3,85;-1,91;-0,58;970,85
4.411;-0,23;-0,23;-0,67;4,62;-9,19;-7,19;2,82;0,04;-1,39;970,85
4.411;-0,23;-0,23;-0,67;9,48;-10,07;-1,04;2,82;0,04;-1,39;970,85
4.411;0,24;-0,34;-0,1;9,48;-10,07;-1,04;2,82;0,04;-1,39;970,85
4.473;0,24;-0,34;-0,1;9,48;-10,07;-1,04;-0,21;-1,5;-0,76;970,85
4.474;0,24;-0,34;-0,1;9,48;-10,07;-1,04;-0,21;-1,5;-0,76;970,85
4.474;0,24;-0,34;-0,1;8,46;-11,53;1,37;-0,21;-1,5;-0,76;970,85
4.511;0,08;-0,55;0,18;8,46;-11,53;1,37;-0,21;-1,5;-0,76;970,85
4.532;0,08;-0,55;0,18;8,46;-11,53;1,37;1,52;0,67;-1,45;970,85
4.532;0,08;-0,55;0,18;4,05;-2,55;-2,38;1,52;0,67;-1,45;970,85
4.533;-0,4;0,3;-0,38;4,05;-2,55;-2,38;1,52;0,67;-1,45;970,85
4.593;-0,4;0,3;-0,38;4,05;-2,55;-2,38;2,44;0,86;-1,02;970,85
4.594;-0,4;0,3;-0,38;4,05;-2,55;-2,38;2,44;0,86;-1,02;970,84
4.594;-0,4;0,3;-0,38;2,4;2,39;-2,9;2,44;0,86;-1,02;970,84
4.611;-0,59;0,76;-0,48;2,4;2,39;-2,9;2,44;0,86;-1,02;970,84
4.65;-0,59;0,76;-0,48;2,4;2,39;-2,9;1,18;0,41;-0,57;970,84
4.651;-0,59;0,76;-0,48;2,4;2,39;-2,9;1,18;0,41;-0,57;970,81
4.651;-0,59;0,76;-0,48;-2,66;-10,49;-6,59;1,18;0,41;-0,57;970,81
4.713;-1,11;-0,64;-1;-2,66;-10,49;-6,59;1,18;0,41;-0,57;970,81
4.713;-1,11;-0,64;-1;-2,66;-10,49;-6,59;3,11;2,72;-2,56;970,81
4.713;-1,11;-0,64;-1;-2,98;-33,37;-4,4;3,11;2,72;-2,56;970,81
4.714;-1,18;-3,41;-0,93;-2,98;-33,37;-4,4;3,11;2,72;-2,56;970,81
4.771;-1,18;-3,41;-0,93;-2,98;-33,37;-4,4;6,21;2,19;-9,37;970,81
4.772;-1,18;-3,41;-0,93;-2,98;-33,37;-4,4;6,21;2,19;-9,37;970,8
4.772;-1,18;-3,41;-0,93;-8,65;-12,73;-4,02;6,21;2,19;-9,37;970,8
4.811;-1,55;-1,93;-0,8;-8,65;-12,73;-4,02;6,21;2,19;-9,37;970,8
4.831;-1,55;-1,93;-0,8;-8,65;-12,73;-4,02;2,06;-3,16;-9,79;970,8
4.831;-1,55;-1,93;-0,8;-10,42;13,78;-8,88;2,06;-3,16;-9,79;970,8
4.832;-1,48;0,52;-1,11;-10,42;13,78;-8,88;2,06;-3,16;-9,79;970,8
4.893;-1,48;0,52;-1,11;-10,42;13,78;-8,88;0,6;-4,2;-2,84;970,8
4.893;-1,48;0,52;-1,11;-10,42;13,78;-8,88;0,6;-4,2;-2,84;970,8
4.894;-1,48;0,52;-1,11;-2,63;2,68;-4,99;0,6;-4,2;-2,84;970,8
4.912;-0,69;-0,63;-0,58;-2,63;2,68;-4,99;0,6;-4,2;-2,84;970,8
4.951;-0,69;-0,63;-0,58;-2,63;2,68;-4,99;-2,55;-7,09;1,08;970,8
4.952;-0,69;-0,63;-0,58;-2,63;2,68;-4,99;-2,55;-7,09;1,08;970,81
4.952;-0,69;-0,63;-0,58;-14,47;6,71;-3,63;-2,55;-7,09;1,08;970,81
5.011;-1,99;-0,17;-0,46;-14,47;6,71;-3,63;-2,55;-7,09;1,08;970,81
5.012;-1,99;-0,17;-0,46;-14,47;6,71;-3,63;-2,31;-1,9;2,58;970,81
5.013;-1,99;-0,17;-0,46;-9,14;-7,09;2,29;-2,31;-1,9;2,58;970,81
5.013;-1,66;-1,41;0,17;-9,14;-7,09;2,29;-2,31;-1,9;2,58;970,81
5.073;-1,66;-1,41;0,17;-9,14;-7,09;2,29;-2,6;-5,63;7,05;970,81
5.074;-1,66;-1,41;0,17;-9,14;-7,09;2,29;-2,6;-5,63;7,05;970,84
5.074;-1,66;-1,41;0,17;-6,27;-14,82;-7,48;-2,6;-5,63;7,05;970,84
5.110;-1,61;-1,75;-0,72;-6,27;-14,82;-7,48;-2,6;-5,63;7,05;970,84
5.13;-1,61;-1,75;-0,72;-6,27;-14,82;-7,48;-1,31;-0,66;10,05;970,84
5.131;-1,61;-1,75;-0,72;-1,61;-12,15;0,14;-1,31;-0,66;10,05;970,84
5.131;-1,1;-0,89;0,03;-1,61;-12,15;0,14;-1,31;-0,66;10,05;970,84
5.192;-1,1;-0,89;0,03;-1,61;-12,15;0,14;1,47;6,1;7,66;970,84
5.193;-1,1;-0,89;0,03;-1,61;-12,15;0,14;1,47;6,1;7,66;970,83
5.193;-1,1;-0,89;0,03;1,49;-3,19;-7,75;1,47;6,1;7,66;970,83
5.21;-0,58;0,26;-1,13;1,49;-3,19;-7,75;1,47;6,1;7,66;970,83
5.251;-0,58;0,26;-1,13;1,49;-3,19;-7,75;2,96;0,87;1,83;970,83
5.251;-0,58;0,26;-1,13;1,49;-3,19;-7,75;2,96;0,87;1,83;970,8
5.251;-0,58;0,26;-1,13;3,92;-1,42;6,04;2,96;0,87;1,83;970,8
5.31;-0,36;0,42;0,3;3,92;-1,42;6,04;2,96;0,87;1,83;970,8
5.311;-0,36;0,42;0,3;3,92;-1,42;6,04;0,41;-3,04;0,36;970,8
5.312;-0,36;0,42;0,3;8,99;-23,06;6,31;0,41;-3,04;0,36;970,8
5.313;0,18;-1,73;0,39;8,99;-23,06;6,31;0,41;-3,04;0,36;970,8
5.37;0,18;-1,73;0,39;8,99;-23,06;6,31;2,62;0,77;1,17;970,8
5.371;0,18;-1,73;0,39;8,99;-23,06;6,31;2,62;0,77;1,17;970,84
5.371;0,18;-1,73;0,39;8,9;-12,23;3,11;2,62;0,77;1,17;970,84
5.41;0,2;-0,66;-0,07;8,9;-12,23;3,11;2,62;0,77;1,17;970,84
5.431;0,2;-0,66;-0,07;8,9;-12,23;3,11;3,45;0,29;0,71;970,84
5.431;0,2;-0,66;-0,07;8,1;-7,63;-1,83;3,45;0,29;0,71;970,84
5.431;0,13;-0,25;-0,67;8,1;-7,63;-1,83;3,45;0,29;0,71;970,84
5.491;0,13;-0,25;-0,67;8,1;-7,63;-1,83;2,05;-0,49;0,14;970,84
5.492;0,13;-0,25;-0,67;8,1;-7,63;-1,83;2,05;-0,49;0,14;970,82
5.492;0,13;-0,25;-0,67;6,31;-5,57;-2,96;2,05;-0,49;0,14;970,82
5.51;-0,08;-0,09;-0,79;6,31;-5,57;-2,96;2,05;-0,49;0,14;970,82
5.55;-0,08;-0,09;-0,79;6,31;-5,57;-2,96;1,35;-0,95;0,17;970,82
5.551;-0,08;-0,09;-0,79;6,31;-5,57;-2,96;1,35;-0,95;0,17;970,8
5.551;-0,08;-0,09;-0,79;3,7;-8,86;-10,58;1,35;-0,95;0,17;970,8
5.611;-0,34;-0,49;-1,64;3,7;-8,86;-10,58;1,35;-0,95;0,17;970,8
5.612;-0,34;-0,49;-1,64;3,7;-8,86;-10,58;3,29;1,43;-1,11;970,8
5.613;-0,34;-0,49;-1,64;-9,45;-27,91;-9,15;3,29;1,43;-1,11;970,8
5.613;-1,72;-2,78;-1,58;-9,45;-27,91;-9,15;3,29;1,43;-1,11;970,8
5.671;-1,72;-2,78;-1,58;-9,45;-27,91;-9,15;6,75;-1,93;-7,87;970,8
5.672;-1,72;-2,78;-1,58;-9,45;-27,91;-9,15;6,75;-1,93;-7,87;970,79
5.672;-1,72;-2,78;-1,58;-14,21;-34,64;3,6;6,75;-1,93;-7,87;970,79
5.713;-2,17;-4,15;0,05;-14,21;-34,64;3,6;6,75;-1,93;-7,87;970,79
5.732;-2,17;-4,15;0,05;-14,21;-34,64;3,6;-0,32;-6,24;-14,8;970,79
5.732;-2,17;-4,15;0,05;-0,26;17,4;-26,13;-0,32;-6,24;-14,8;970,79
5.733;-0,44;0,88;-2,85;-0,26;17,4;-26,13;-0,32;-6,24;-14,8;970,79
5.793;-0,44;0,88;-2,85;-0,26;17,4;-26,13;1,34;-9,51;1,67;970,79
5.794;-0,44;0,88;-2,85;-0,26;17,4;-26,13;1,34;-9,51;1,67;970,85
5.794;-0,44;0,88;-2,85;-2,31;7,6;-11,91;1,34;-9,51;1,67;970,85
5.81;-0,75;-0,08;-1,23;-2,31;7,6;-11,91;1,34;-9,51;1,67;970,85
5.85;-0,75;-0,08;-1,23;-2,31;7,6;-11,91;-2,48;-4,37;1,45;970,85
5.851;-0,75;-0,08;-1,23;-2,31;7,6;-11,91;-2,48;-4,37;1,45;970,86
5.851;-0,75;-0,08;-1,23;-11,02;0;-0,23;-2,48;-4,37;1,45;970,86
5.912;-1,73;-0,8;-0,07;-11,02;0;-0,23;-2,48;-4,37;1,45;970,86
5.913;-1,73;-0,8;-0,07;-11,02;0;-0,23;-2,44;-3,18;2,33;970,86
5.913;-1,73;-0,8;-0,07;-6,44;-4,66;11,76;-2,44;-3,18;2,33;970,86
5.914;-1,44;-1,1;1,23;-6,44;-4,66;11,76;-2,44;-3,18;2,33;970,86
5.972;-1,44;-1,1;1,23;-6,44;-4,66;11,76;-0,91;-2,58;6,64;970,86
5.973;-1,44;-1,1;1,23;-6,44;-4,66;11,76;-0,91;-2,58;6,64;970,87
5.973;-1,44;-1,1;1,23;-9,73;-0,96;1,23;-0,91;-2,58;6,64;970,87
6.011;-1,96;-0,25;-0,07;-9,73;-0,96;1,23;-0,91;-2,58;6,64;970,87
6.033;-1,96;-0,25;-0,07;-9,73;-0,96;1,23;-1,68;5,96;9,96;970,87
6.033;-1,96;-0,25;-0,07;-5,85;-13,77;-2,13;-1,68;5,96;9,96;970,87
6.034;-1,35;-0,92;-0,66;-5,85;-13,77;-2,13;-1,68;5,96;9,96;970,87
6.091;-1,35;-0,92;-0,66;-5,85;-13,77;-2,13;-5,95;1,47;9,9;970,87
6.092;-1,35;-0,92;-0,66;-5,85;-13,77;-2,13;-5,95;1,47;9,9;970,83
6.092;-1,35;-0,92;-0,66;-0,32;-11;-1,53;-5,95;1,47;9,9;970,83
6.111;-0,52;-0,3;-0,46;-0,32;-11;-1,53;-5,95;1,47;9,9;970,83
6.151;-0,52;-0,3;-0,46;-0,32;-11;-1,53;2,06;-1,39;2,5;970,83
6.151;-0,52;-0,3;-0,46;-0,32;-11;-1,53;2,06;-1,39;2,5;970,83
6.152;-0,52;-0,3;-0,46;3,03;-13,09;0,26;2,06;-1,39;2,5;970,83
6.21;-0,2;-0,56;-0,34;3,03;-13,09;0,26;2,06;-1,39;2,5;970,83
6.211;-0,2;-0,56;-0,34;3,03;-13,09;0,26;4,85;-2,83;-0,53;970,83
6.212;-0,2;-0,56;-0,34;9,22;-7,79;1,47;4,85;-2,83;-0,53;970,83
6.212;0,36;-0,16;-0,36;9,22;-7,79;1,47;4,85;-2,83;-0,53;970,83
6.273;0,36;-0,16;-0,36;9,22;-7,79;1,47;4,25;-1,62;0,07;970,83
6.273;0,36;-0,16;-0,36;9,22;-7,79;1,47;4,25;-1,62;0,07;970,83
6.274;0,36;-0,16;-0,36;4,57;-10,68;8,07;4,25;-1,62;0,07;970,83
6.311;-0,16;-0,58;0,23;4,57;-10,68;8,07;4,25;-1,62;0,07;970,83
6.332;-0,16;-0,58;0,23;4,57;-10,68;8,07;3,08;-0,46;-0,77;970,83
6.332;-0,16;-0,58;0,23;5,16;-14,88;3,43;3,08;-0,46;-0,77;970,83
6.333;-0,15;-1,17;-0,3;5,16;-14,88;3,43;3,08;-0,46;-0,77;970,83
6.392;-0,15;-1,17;-0,3;5,16;-14,88;3,43;4,1;-0,52;-0,22;970,83
6.393;-0,15;-1,17;-0,3;5,16;-14,88;3,43;4,1;-0,52;-0,22;970,84
6.393;-0,12;-0,48;-0,62;5,16;-14,88;3,43;4,1;-0,52;-0,22;970,84
6.413;-0,12;-0,48;-0,62;5,16;-14,88;3,43;2,9;1;0,36;970,84
6.451;-0,12;-0,48;-0,62;5,09;-6,36;1,29;2,9;1;0,36;970,84
6.452;-0,12;-0,48;-0,62;5,09;-6,36;1,29;2,9;1;0,36;970,84
6.452;-0,12;-0,48;-0,62;10,48;-12,33;-6,72;2,9;1;0,36;970,84
6.512;0,49;-1,2;-1,5;10,48;-12,33;-6,72;2,9;1;0,36;970,84
6.514;0,49;-1,2;-1,5;10,48;-12,33;-6,72;1,95;1,81;-1,1;970,84
6.514;0,49;-1,2;-1,5;-3,03;-42,5;-0,42;1,95;1,81;-1,1;970,84
6.514;-0,81;-4,58;-0,87;-3,03;-42,5;-0,42;1,95;1,81;-1,1;970,84
6.571;-0,81;-4,58;-0,87;-3,03;-42,5;-0,42;6,66;-2,05;-7,95;970,84
6.571;-0,81;-4,58;-0,87;-3,03;-42,5;-0,42;6,66;-2,05;-7,95;970,86
6.572;-0,81;-4,58;-0,87;-20,52;-7,61;-17,93;6,66;-2,05;-7,95;970,86
6.611;-2,34;-1,57;-2,39;-20,52;-7,61;-17,93;6,66;-2,05;-7,95;970,86
6.631;-2,34;-1,57;-2,39;-20,52;-7,61;-17,93;4,71;-2,94;-7,78;970,86
6.631;-2,34;-1,57;-2,39;-7,07;10,59;-6,97;4,71;-2,94;-7,78;970,86
6.631;-0,89;0,17;-1,09;-7,07;10,59;-6,97;4,71;-2,94;-7,78;970,86
6.69;-0,89;0,17;-1,09;-7,07;10,59;-6,97;1,52;-10,47;-2,6;970,86
6.691;-0,89;0,17;-1,09;-7,07;10,59;-6,97;1,52;-10,47;-2,6;970,86
6.691;-0,89;0,17;-1,09;-5,28;3,32;-14,04;1,52;-10,47;-2,6;970,86
6.712;-0,83;-0,58;-1,71;-5,28;3,32;-14,04;1,52;-10,47;-2,6;970,86
6.75;-0,83;-0,58;-1,71;-5,28;3,32;-14,04;-4,53;-13;-0,14;970,86
6.751;-0,83;-0,58;-1,71;-5,28;3,32;-14,04;-4,53;-13;-0,14;970,86
6.751;-0,83;-0,58;-1,71;-5,43;-3,42;-2,97;-4,53;-13;-0,14;970,86
6.812;-1,09;-1,15;-0,57;-5,43;-3,42;-2,97;-4,53;-13;-0,14;970,86
6.813;-1,09;-1,15;-0,57;-5,43;-3,42;-2,97;-3,04;-8,8;3,68;970,86
6.813;-1,09;-1,15;-0,57;-8,56;-1,93;11,86;-3,04;-8,8;3,68;970,86
6.813;-1,69;-0,75;1,02;-8,56;-1,93;11,86;-3,04;-8,8;3,68;970,86
6.872;-1,69;-0,75;1,02;-8,56;-1,93;11,86;-0,73;-1,43;7,12;970,86
6.873;-1,69;-0,75;1,02;-8,56;-1,93;11,86;-0,73;-1,43;7,12;970,9
6.873;-1,69;-0,75;1,02;-19,67;-11,58;-3,7;-0,73;-1,43;7,12;970,9
6.91;-2,94;-1,21;-0,74;-19,67;-11,58;-3,7;-0,73;-1,43;7,12;970,9
6.932;-2,94;-1,21;-0,74;-19,67;-11,58;-3,7;-2,59;5,69;11,8;970,9
6.933;-2,94;-1,21;-0,74;-6,25;-13,99;-2,22;-2,59;5,69;11,8;970,9
6.933;-1,34;-0,83;-0,63;-6,25;-13,99;-2,22;-2,59;5,69;11,8;970,9
6.992;-1,34;-0,83;-0,63;-6,25;-13,99;-2,22;-0,26;-2,51;7,67;970,9
6.992;-1,34;-0,83;-0,63;-6,25;-13,99;-2,22;-0,26;-2,51;7,67;970,9
6.993;-1,34;-0,83;-0,63;3,53;-23,47;0,13;-0,26;-2,51;7,67;970,9
7.011;-0,16;-1,61;-0,34;3,53;-23,47;0,13;-0,26;-2,51;7,67;970,9
7.051;-0,16;-1,61;-0,34;3,53;-23,47;0,13;4,68;-2,68;2,43;970,9
7.052;-0,16;-1,61;-0,34;3,53;-23,47;0,13;4,68;-2,68;2,43;970,9
7.054;-0,16;-1,61;-0,34;13,96;-9,14;1,22;4,68;-2,68;2,43;970,9
7.113;0,88;-0,23;-0,34;13,96;-9,14;1,22;4,68;-2,68;2,43;970,9
7.113;0,88;-0,23;-0,34;13,96;-9,14;1,22;4,16;-2,77;1,01;970,9
7.113;0,88;-0,23;-0,34;7,27;-13,18;7,41;4,16;-2,77;1,01;970,9
7.114;0,2;-0,72;0,19;7,27;-13,18;7,41;4,16;-2,77;1,01;970,9
7.173;0,2;-0,72;0,19;7,27;-13,18;7,41;2,2;1,03;-0,77;970,9
7.174;0,2;-0,72;0,19;7,27;-13,18;7,41;2,2;1,03;-0,77;970,87
7.174;0,2;-0,72;0,19;1,9;-13,19;3,34;2,2;1,03;-0,77;970,87
7.21;-0,33;-0,85;-0,36;1,9;-13,19;3,34;2,2;1,03;-0,77;970,87
7.232;-0,33;-0,85;-0,36;1,9;-13,19;3,34;3,4;1,91;-0,14;970,87
7.234;-0,33;-0,85;-0,36;8,02;-6,77;-0,33;3,4;1,91;-0,14;970,87
7.234;0,36;-0,36;-0,86;8,02;-6,77;-0,33;3,4;1,91;-0,14;970,87
7.292;0,36;-0,36;-0,86;8,02;-6,77;-0,33;3,66;-0,32;0,58;970,87
7.293;0,36;-0,36;-0,86;8,02;-6,77;-0,33;3,66;-0,32;0,58;970,8
7.293;0,36;-0,36;-0,86;9,57;-19,35;-0,33;3,66;-0,32;0,58;970,8
7.31;0,57;-1,84;-0,94;9,57;-19,35;-0,33;3,66;-0,32;0,58;970,8
7.352;0,57;-1,84;-0,94;9,57;-19,35;-0,33;4,84;3,52;-0,12;970,8
7.352;0,57;-1,84;-0,94;9,57;-19,35;-0,33;4,84;3,52;-0,12;970,8
7.353;0,57;-1,84;-0,94;-1,12;-39,45;-2,33;4,84;3,52;-0,12;970,8
7.411;-0,29;-4,23;-1,2;-1,12;-39,45;-2,33;4,84;3,52;-0,12;970,8
7.412;-0,29;-4,23;-1,2;-1,12;-39,45;-2,33;7,36;2,43;-3,68;970,8
7.412;-0,29;-4,23;-1,2;-11,08;-9,18;-21,49;7,36;2,43;-3,68;970,8
7.413;-1,18;-1,6;-2,94;-11,08;-9,18;-21,49;7,36;2,43;-3,68;970,8
7.474;-1,18;-1,6;-2,94;-11,08;-9,18;-21,49;7,61;-4,89;-3,93;970,8
7.474;-1,18;-1,6;-2,94;-11,08;-9,18;-21,49;7,61;-4,89;-3,93;970,8
7.475;-1,18;-1,6;-2,94;0,36;6,31;-12,4;7,61;-4,89;-3,93;970,8
7.512;-0,22;-0,2;-1,73;0,36;6,31;-12,4;7,61;-4,89;-3,93;970,8
7.531;-0,22;-0,2;-1,73;0,36;6,31;-12,4;1,99;-13,17;-2,02;970,8
7.531;-0,22;-0,2;-1,73;-4,75;1,15;-13,78;1,99;-13,17;-2,02;970,8
7.531;-0,91;-0,76;-1,61;-4,75;1,15;-13,78;1,99;-13,17;-2,02;970,8
7.592;-0,91;-0,76;-1,61;-4,75;1,15;-13,78;-3,86;-11,51;-0,35;970,8
7.593;-0,91;-0,76;-1,61;-4,75;1,15;-13,78;-3,86;-11,51;-0,35;970,82
7.593;-0,91;-0,76;-1,61;-8,61;-2,99;-11,54;-3,86;-11,51;-0,35;970,82
7.611;-1,47;-1,1;-1,32;-8,61;-2,99;-11,54;-3,86;-11,51;-0,35;970,82
7.651;-1,47;-1,1;-1,32;-8,61;-2,99;-11,54;-6,9;-9,11;3,11;970,82
7.651;-1,47;-1,1;-1,32;-8,61;-2,99;-11,54;-6,9;-9,11;3,11;970,82
7.652;-1,47;-1,1;-1,32;-9,99;-7,53;11,02;-6,9;-9,11;3,11;970,82
7.713;-1,86;-1,31;1,02;-9,99;-7,53;11,02;-6,9;-9,11;3,11;970,82
7.713;-1,86;-1,31;1,02;-9,99;-7,53;11,02;-2,6;-3,05;8,49;970,82
7.713;-1,86;-1,31;1,02;-12,47;-11;-1,9;-2,6;-3,05;8,49;970,82
7.714;-2,22;-1,06;-0,51;-12,47;-11;-1,9;-2,6;-3,05;8,49;970,82
7.773;-2,22;-1,06;-0,51;-12,47;-11;-1,9;-4,68;8,4;11,77;970,82
7.774;-2,22;-1,06;-0,51;-12,47;-11;-1,9;-4,68;8,4;11,77;970,87
7.775;-2,22;-1,06;-0,51;-6,57;-11,81;3,19;-4,68;8,4;11,77;970,87
7.811;-1,21;-0,54;-0,19;-6,57;-11,81;3,19;-4,68;8,4;11,77;970,87
7.832;-1,21;-0,54;-0,19;-6,57;-11,81;3,19;-2,07;0,17;6,5;970,87
7.832;-1,21;-0,54;-0,19;5,64;-8,32;-5,51;-2,07;0,17;6,5;970,87
7.832;0,12;-0,04;-0,94;5,64;-8,32;-5,51;-2,07;0,17;6,5;970,87
7.892;0,12;-0,04;-0,94;5,64;-8,32;-5,51;1,43;-9,46;1,87;970,87
7.893;0,12;-0,04;-0,94;5,64;-8,32;-5,51;1,43;-9,46;1,87;970,86
7.894;0,12;-0,04;-0,94;6,62;-10,24;3,69;1,43;-9,46;1,87;970,86
7.914;0,12;-0,25;0,13;6,62;-10,24;3,69;1,43;-9,46;1,87;970,86
7.951;0,12;-0,25;0,13;6,62;-10,24;3,69;2,74;-2,97;0,51;970,86
7.953;0,12;-0,25;0,13;6,62;-10,24;3,69;2,74;-2,97;0,51;970,83
7.953;0,12;-0,25;0,13;6,87;-13,63;4,54;2,74;-2,97;0,51;970,83
8.011;0,17;-0,61;0,14;6,87;-13,63;4,54;2,74;-2,97;0,51;970,83
8.012;0,17;-0,61;0,14;6,87;-13,63;4,54;3,3;0,12;0,96;970,83
8.012;0,17;-0,61;0,14;2,82;-13,59;1,41;3,3;0,12;0,96;970,83
8.012;-0,22;-0,68;-0,35;2,82;-13,59;1,41;3,3;0,12;0,96;970,83
8.071;-0,22;-0,68;-0,35;2,82;-13,59;1,41;4,39;0,11;0,31;970,83
8.072;-0,22;-0,68;-0,35;2,82;-13,59;1,41;4,39;0,11;0,31;970,83
8.072;-0,22;-0,68;-0,35;8,68;-11,3;1,78;4,39;0,11;0,31;970,83
8.112;0,37;-0,59;-0,46;8,68;-11,3;1,78;4,39;0,11;0,31;970,83
8.132;0,37;-0,59;-0,46;8,68;-11,3;1,78;4,5;-0,65;0,1;970,83
8.133;0,37;-0,59;-0,46;18,12;-26,04;-4,72;4,5;-0,65;0,1;970,83
8.133;1,52;-2,36;-1,38;18,12;-26,04;-4,72;4,5;-0,65;0,1;970,83
8.192;1,52;-2,36;-1,38;18,12;-26,04;-4,72;5,35;13,42;1,99;970,83
8.193;1,52;-2,36;-1,38;18,12;-26,04;-4,72;5,35;13,42;1,99;970,81
8.193;1,52;-2,36;-1,38;-8;-30,16;-3,1;5,35;13,42;1,99;970,81
8.21;-0,37;-3,12;-1,21;-8;-30,16;-3,1;5,35;13,42;1,99;970,81
8.251;-0,37;-3,12;-1,21;-8;-30,16;-3,1;5,04;-2,03;2,8;970,81
8.251;-0,37;-3,12;-1,21;-8;-30,16;-3,1;5,04;-2,03;2,8;970,77
8.251;-0,37;-3,12;-1,21;0,17;-23,04;-1,78;5,04;-2,03;2,8;970,77
8.313;0,08;-2,75;-1,1;0,17;-23,04;-1,78;5,04;-2,03;2,8;970,77
8.314;0,08;-2,75;-1,1;0,17;-23,04;-1,78;6,83;-9,64;-3,31;970,77
8.314;0,08;-2,75;-1,1;-5,39;-2;-9,2;6,83;-9,64;-3,31;970,77
8.314;-0,76;-0,94;-1,58;-5,39;-2;-9,2;6,83;-9,64;-3,31;970,77
8.371;-0,76;-0,94;-1,58;-5,39;-2;-9,2;6,02;-8,1;-4,5;970,77
8.372;-0,76;-0,94;-1,58;-5,39;-2;-9,2;6,02;-8,1;-4,5;970,79
8.372;-0,76;-0,94;-1,58;-7,53;1;-9,29;6,02;-8,1;-4,5;970,79
8.411;-1,03;-0,79;-1,31;-7,53;1;-9,29;6,02;-8,1;-4,5;970,79
8.43;-1,03;-0,79;-1,31;-7,53;1;-9,29;0,11;-10,69;-2,28;970,79
8.431;-1,03;-0,79;-1,31;-6,33;1,9;-15,5;0,11;-10,69;-2,28;970,79
8.431;-1,04;-0,71;-1,75;-6,33;1,9;-15,5;0,11;-10,69;-2,28;970,79
8.491;-1,04;-0,71;-1,75;-6,33;1,9;-15,5;-4,08;-15,32;0,5;970,79
8.491;-1,04;-0,71;-1,75;-6,33;1,9;-15,5;-4,08;-15,32;0,5;970,82
8.492;-1,04;-0,71;-1,75;-9,85;0,13;1,31;-4,08;-15,32;0,5;970,82
8.511;-1,6;-0,79;0,04;-9,85;0,13;1,31;-4,08;-15,32;0,5;970,82
8.55;-1,6;-0,79;0,04;-9,85;0,13;1,31;-3,76;-0,86;5,58;970,82
8.551;-1,6;-0,79;0,04;-9,85;0,13;1,31;-3,76;-0,86;5,58;970,87
8.551;-1,6;-0,79;0,04;-11,63;-4,02;4,21;-3,76;-0,86;5,58;970,87
8.612;-2,05;-0,88;0,23;-11,63;-4,02;4,21;-3,76;-0,86;5,58;970,87
8.612;-2,05;-0,88;0,23;-11,63;-4,02;4,21;-3,58;3,85;9,47;970,87
8.612;-2,05;-0,88;0,23;-11,28;-14,6;-2,51;-3,58;3,85;9,47;970,87
8.613;-1,95;-1,34;-0,84;-11,28;-14,6;-2,51;-3,58;3,85;9,47;970,87
8.671;-1,95;-1,34;-0,84;-11,28;-14,6;-2,51;-6,92;2,13;8,17;970,87
8.671;-1,95;-1,34;-0,84;-11,28;-14,6;-2,51;-6,92;2,13;8,17;970,86
8.672;-1,95;-1,34;-0,84;-3,3;-12,41;-3,76;-6,92;2,13;8,17;970,86
8.71;-0,95;-0,68;-0,92;-3,3;-12,41;-3,76;-6,92;2,13;8,17;970,86
8.732;-0,95;-0,68;-0,92;-3,3;-12,41;-3,76;1,04;-0,84;3,78;970,86
8.732;-0,95;-0,68;-0,92;7,69;-8,6;-3,71;1,04;-0,84;3,78;970,86
8.733;0,14;-0,26;-0,83;7,69;-8,6;-3,71;1,04;-0,84;3,78;970,86
8.791;0,14;-0,26;-0,83;7,69;-8,6;-3,71;3,09;-5,26;1,08;970,86
8.792;0,14;-0,26;-0,83;7,69;-8,6;-3,71;3,09;-5,26;1,08;970,86
8.792;0,14;-0,26;-0,83;9,92;-5,43;3,6;3,09;-5,26;1,08;970,86
8.811;0,32;0;-0,1;9,92;-5,43;3,6;3,09;-5,26;1,08;970,86
8.851;0,32;0;-0,1;9,92;-5,43;3,6;3,12;-1,38;1,66;970,86
8.852;0,32;0;-0,1;9,92;-5,43;3,6;3,12;-1,38;1,66;970,91
8.852;0,32;0;-0,1;9,6;-9,85;6,14;3,12;-1,38;1,66;970,91
8.911;0,35;-0,45;0,08;9,6;-9,85;6,14;3,12;-1,38;1,66;970,91
8.912;0,35;-0,45;0,08;9,6;-9,85;6,14;2,62;1,83;1,26;970,91
8.912;0,35;-0,45;0,08;4,92;-10,18;7,53;2,62;1,83;1,26;970,91
8.912;0,01;-0,54;0,05;4,92;-10,18;7,53;2,62;1,83;1,26;970,91
8.972;0,01;-0,54;0,05;4,92;-10,18;7,53;2,33;3,23;1,63;970,91
8.973;0,01;-0,54;0,05;4,92;-10,18;7,53;2,33;3,23;1,63;970,9
8.973;0,01;-0,54;0,05;3,78;-7,4;3,99;2,33;3,23;1,63;970,9
9.011;0,06;-0,34;-0,44;3,78;-7,4;3,99;2,33;3,23;1,63;970,9
9.031;0,06;-0,34;-0,44;3,78;-7,4;3,99;2,55;1,5;1,63;970,9
9.032;0,06;-0,34;-0,44;4,15;-23,97;-3,72;2,55;1,5;1,63;970,9
9.032;0,12;-2,18;-1,29;4,15;-23,97;-3,72;2,55;1,5;1,63;970,9
9.091;0,12;-2,18;-1,29;4,15;-23,97;-3,72;4,05;-0,48;-0,64;970,9
9.092;0,12;-2,18;-1,29;4,15;-23,97;-3,72;4,05;-0,48;-0,64;970,88
9.093;0,12;-2,18;-1,29;4,11;-33,74;-4,44;4,05;-0,48;-0,64;970,88
9.112;0,02;-3,48;-1,37;4,11;-33,74;-4,44;4,05;-0,48;-0,64;970,88
9.15;0,02;-3,48;-1,37;4,11;-33,74;-4,44;6,76;-3,51;-3,84;970,88
9.152;0,02;-3,48;-1,37;4,11;-33,74;-4,44;6,76;-3,51;-3,84;970,86
9.152;0,02;-3,48;-1,37;-13,37;-27,2;-6,81;6,76;-3,51;-3,84;970,86
9.211;-1,84;-3,36;-1,35;-13,37;-27,2;-6,81;6,76;-3,51;-3,84;970,86
9.212;-1,84;-3,36;-1,35;-13,37;-27,2;-6,81;7,8;-6;-9,36;970,86
9.212;-1,84;-3,36;-1,35;-3,04;16,62;-36,84;7,8;-6;-9,36;970,86
9.212;-0,72;0,8;-3,93;-3,04;16,62;-36,84;7,8;-6;-9,36;970,86
9.27;-0,72;0,8;-3,93;-3,04;16,62;-36,84;-0,25;-11,03;-0,78;970,86
9.27;-0,72;0,8;-3,93;-3,04;16,62;-36,84;-0,25;-11,03;-0,78;970,85
9.271;-0,72;0,8;-3,93;-3,18;0,44;-10,06;-0,25;-11,03;-0,78;970,85
9.311;-0,75;-0,86;-1,02;-3,18;0,44;-10,06;-0,25;-11,03;-0,78;970,85
9.331;-0,75;-0,86;-1,02;-3,18;0,44;-10,06;-4,04;-9,48;0,5;970,85
9.332;-0,75;-0,86;-1,02;-14,3;-2,57;7,1;-4,04;-9,48;0,5;970,85
9.332;-1,95;-1,13;0,65;-14,3;-2,57;7,1;-4,04;-9,48;0,5;970,85
9.394;-1,95;-1,13;0,65;-14,3;-2,57;7,1;-3,6;1,02;2,99;970,85
9.394;-1,95;-1,13;0,65;-14,3;-2,57;7,1;-3,6;1,02;2,99;970,92
9.394;-1,95;-1,13;0,65;-12,41;-6,55;-6,3;-3,6;1,02;2,99;970,92
9.41;-1,99;-1,34;-0,83;-12,41;-6,55;-6,3;-3,6;1,02;2,99;970,92
9.451;-1,99;-1,34;-0,83;-12,41;-6,55;-6,3;-4,53;-4,1;6,58;970,92
9.452;-1,99;-1,34;-0,83;-12,41;-6,55;-6,3;-4,53;-4,1;6,58;970,9
9.452;-1,99;-1,34;-0,83;-11,87;-5,61;-2,23;-4,53;-4,1;6,58;970,9
9.512;-2,19;-0,77;-0,34;-11,87;-5,61;-2,23;-4,53;-4,1;6,58;970,9
9.513;-2,19;-0,77;-0,34;-11,87;-5,61;-2,23;-3,06;2,34;10,86;970,9
9.513;-2,19;-0,77;-0,34;-3,99;-19,71;-6,23;-3,06;2,34;10,86;970,9
9.514;-1,28;-1,53;-0,75;-3,99;-19,71;-6,23;-3,06;2,34;10,86;970,9
9.572;-1,28;-1,53;-0,75;-3,99;-19,71;-6,23;-5,64;-2;10,13;970,9
9.573;-1,28;-1,53;-0,75;-3,99;-19,71;-6,23;-5,64;-2;10,13;970,88
9.573;-0,37;-0,47;-0,46;-3,99;-19,71;-6,23;-5,64;-2;10,13;970,88
9.61;-0,37;-0,47;-0,46;-3,99;-19,71;-6,23;2,97;-2,53;2,65;970,88
9.631;-0,37;-0,47;-0,46;2,54;-12,27;-4,62;2,97;-2,53;2,65;970,88
9.632;-0,37;-0,47;-0,46;9,26;-16,49;0,8;2,97;-2,53;2,65;970,88
9.632;0,39;-0,85;0,04;9,26;-16,49;0,8;2,97;-2,53;2,65;970,88
9.692;0,39;-0,85;0,04;9,26;-16,49;0,8;5,38;-1,81;0,36;970,88
9.692;0,39;-0,85;0,04;9,26;-16,49;0,8;5,38;-1,81;0,36;970,86
9.693;0,39;-0,85;0,04;8,67;-13,44;-3,35;5,38;-1,81;0,36;970,86
9.71;0,36;-0,58;-0,67;8,67;-13,44;-3,35;5,38;-1,81;0,36;970,86
9.75;0,36;-0,58;-0,67;8,67;-13,44;-3,35;4,84;-0,56;1,48;970,86
9.753;0,36;-0,58;-0,67;8,67;-13,44;-3,35;4,84;-0,56;1,48;970,86
9.754;0,36;-0,58;-0,67;4,8;-9,09;1,23;4,84;-0,56;1,48;970,86
9.811;-0,01;-0,22;-0,38;4,8;-9,09;1,23;4,84;-0,56;1,48;970,86
9.812;-0,01;-0,22;-0,38;4,8;-9,09;1,23;3,36;-0,49;-0,34;970,86
9.812;-0,01;-0,22;-0,38;4,97;-6,15;0,14;3,36;-0,49;-0,34;970,86
9.813;-0,05;-0,03;-0,57;4,97;-6,15;0,14;3,36;-0,49;-0,34;970,86
9.872;-0,05;-0,03;-0,57;4,97;-6,15;0,14;2,71;-1,08;-0,26;970,86
9.873;-0,05;-0,03;-0,57;4,97;-6,15;0,14;2,71;-1,08;-0,26;970,83
9.873;-0,05;-0,03;-0,57;6,81;-4,45;-2,36;2,71;-1,08;-0,26;970,83
9.911;0,12;0,05;-0,89;6,81;-4,45;-2,36;2,71;-1,08;-0,26;970,83
9.93;0,12;0,05;-0,89;6,81;-4,45;-2,36;3,26;-1,42;-0,47;970,83
9.93;0,12;0,05;-0,89;5,72;-16,77;-3,55;3,26;-1,42;-0,47;970,83
9.93;-0,03;-1,37;-1,08;5,72;-16,77;-3,55;3,26;-1,42;-0,47;970,83
9.993;-0,03;-1,37;-1,08;5,72;-16,77;-3,55;3,88;0,95;-0,91;970,83
9.994;-0,03;-1,37;-1,08;5,72;-16,77;-3,55;3,88;0,95;-0,91;970,79
9.995;-0,03;-1,37;-1,08;-3,01;-38,3;-2,69;3,88;0,95;-0,91;970,79
10.001;-0,9;-3,91;-1,08;-3,01;-38,3;-2,69;3,88;0,95;-0,91;970,79
10.052;-0,9;-3,91;-1,08;-3,01;-38,3;-2,69;6,21;-0,79;-6,28;970,79
10.053;-0,9;-3,91;-1,08;-3,01;-38,3;-2,69;6,21;-0,79;-6,28;970,79
10.053;-0,9;-3,91;-1,08;-17,37;-13,15;-11,05;6,21;-0,79;-6,28;970,79
10.112;-2,36;-1,89;-1,73;-17,37;-13,15;-11,05;6,21;-0,79;-6,28;970,79
10.112;-2,36;-1,89;-1,73;-17,37;-13,15;-11,05;5,35;-4,91;-7,74;970,79
10.113;-2,36;-1,89;-1,73;-3,57;9,54;-17,5;5,35;-4,91;-7,74;970,79
10.113;-0,97;0,2;-1,99;-3,57;9,54;-17,5;5,35;-4,91;-7,74;970,79
10.171;-0,97;0,2;-1,99;-3,57;9,54;-17,5;-2,14;-16,49;-2,08;970,79
10.172;-0,97;0,2;-1,99;-3,57;9,54;-17,5;-2,14;-16,49;-2,08;970,81
10.172;-0,97;0,2;-1,99;-4,54;4,36;-6,26;-2,14;-16,49;-2,08;970,81
10.21;-1,09;-0,32;-0,48;-4,54;4,36;-6,26;-2,14;-16,49;-2,08;970,81
10.231;-1,09;-0,32;-0,48;-4,54;4,36;-6,26;-3,91;-8,03;1,99;970,81
10.231;-1,09;-0,32;-0,48;-15,04;-3;9,74;-3,91;-8,03;1,99;970,81
10.231;-2,22;-1;1,22;-15,04;-3;9,74;-3,91;-8,03;1,99;970,81
10.292;-2,22;-1;1,22;-15,04;-3;9,74;-3,16;-4,37;4,7;970,81
10.293;-2,22;-1;1,22;-15,04;-3;9,74;-3,16;-4,37;4,7;970,83
10.293;-2,22;-1;1,22;-10,68;-6,72;10,98;-3,16;-4,37;4,7;970,83
10.314;-1,94;-1,13;1,42;-10,68;-6,72;10,98;-3,16;-4,37;4,7;970,83
10.351;-1,94;-1,13;1,42;-10,68;-6,72;10,98;-0,61;-4,96;7,84;970,83
10.352;-1,94;-1,13;1,42;-10,68;-6,72;10,98;-0,61;-4,96;7,84;970,83
10.352;-1,94;-1,13;1,42;-2,32;-10,63;1,5;-0,61;-4,96;7,84;970,83
10.411;-1,15;-1;0,55;-2,32;-10,63;1,5;-0,61;-4,96;7,84;970,83
10.412;-1,15;-1;0,55;-2,32;-10,63;1,5;2,36;3,18;11,4;970,83
10.412;-1,15;-1;0,55;0,06;-10,11;-2,47;2,36;3,18;11,4;970,83
10.413;-0,72;-0,38;-0,05;0,06;-10,11;-2,47;2,36;3,18;11,4;970,83
10.472;-0,72;-0,38;-0,05;0,06;-10,11;-2,47;0,44;2,42;7,57;970,83
10.473;-0,72;-0,38;-0,05;0,06;-10,11;-2,47;0,44;2,42;7,57;970,89
10.473;-0,72;-0,38;-0,05;2,39;-9,27;-3,17;0,44;2,42;7,57;970,89
10.51;-0,31;-0,13;-0,17;2,39;-9,27;-3,17;0,44;2,42;7,57;970,89
10.531;-0,31;-0,13;-0,17;2,39;-9,27;-3,17;2,9;-3,2;-0,04;970,89
10.531;-0,31;-0,13;-0,17;5,14;-19,65;3,06;2,9;-3,2;-0,04;970,89
10.532;-0,06;-1,2;0,36;5,14;-19,65;3,06;2,9;-3,2;-0,04;970,89
10.591;-0,06;-1,2;0,36;5,14;-19,65;3,06;5,4;-0,28;-1,36;970,89
10.592;-0,06;-1,2;0,36;5,14;-19,65;3,06;5,4;-0,28;-1,36;970,86
10.593;-0,06;-1,2;0,36;8,31;-14,42;-3,68;5,4;-0,28;-1,36;970,86
10.611;0,22;-0,72;-0,57;8,31;-14,42;-3,68;5,4;-0,28;-1,36;970,86
10.65;0,22;-0,72;-0,57;8,31;-14,42;-3,68;5,27;-0,7;-0,87;970,86
10.651;0,22;-0,72;-0,57;8,31;-14,42;-3,68;5,27;-0,7;-0,87;970,86
10.651;0,22;-0,72;-0,57;3,43;-3,85;-3,19;5,27;-0,7;-0,87;970,86
10.711;-0,33;0,24;-0,69;3,43;-3,85;-3,19;5,27;-0,7;-0,87;970,86
10.712;-0,33;0,24;-0,69;3,43;-3,85;-3,19;2,38;0,45;-1,44;970,86
10.712;-0,33;0,24;-0,69;5,96;-4,09;-1,61;2,38;0,45;-1,44;970,86
10.713;-0,15;0,11;-0,56;5,96;-4,09;-1,61;2,38;0,45;-1,44;970,86
10.772;-0,15;0,11;-0,56;5,96;-4,09;-1,61;2,15;-1,63;-1,3;970,86
10.773;-0,15;0,11;-0,56;5,96;-4,09;-1,61;2,15;-1,63;-1,3;970,85
10.774;-0,15;0,11;-0,56;3,51;-14,17;7,03;2,15;-1,63;-1,3;970,85
10.812;-0,43;-1,04;0,25;3,51;-14,17;7,03;2,15;-1,63;-1,3;970,85
10.831;-0,43;-1,04;0,25;3,51;-14,17;7,03;2,98;0,16;-1,48;970,85
10.832;-0,43;-1,04;0,25;4,13;-30,93;-4,67;2,98;0,16;-1,48;970,85
10.832;-0,44;-2,97;-0,95;4,13;-30,93;-4,67;2,98;0,16;-1,48;970,85
10.892;-0,44;-2,97;-0,95;4,13;-30,93;-4,67;2,09;1,31;-5,69;970,85
10.893;-0,44;-2,97;-0,95;4,13;-30,93;-4,67;2,09;1,31;-5,69;970,8
10.894;-0,44;-2,97;-0,95;-11,92;-47,06;-14,17;2,09;1,31;-5,69;970,8
10.91;-1,94;-5,14;-2,05;-11,92;-47,06;-14,17;2,09;1,31;-5,69;970,8
10.951;-1,94;-5,14;-2,05;-11,92;-47,06;-14,17;6,47;1,47;-9,7;970,8
10.952;-1,94;-5,14;-2,05;-11,92;-47,06;-14,17;6,47;1,47;-9,7;970,8
10.952;-1,94;-5,14;-2,05;-5,03;7,59;-3,17;6,47;1,47;-9,7;970,8
11.013;-1,03;-0,03;-0,61;-5,03;7,59;-3,17;6,47;1,47;-9,7;970,8
11.013;-1,03;-0,03;-0,61;-5,03;7,59;-3,17;1,03;-7,88;-5,04;970,8
11.014;-1,03;-0,03;-0,61;-1,12;7,47;6,2;1,03;-7,88;-5,04;970,8
11.014;-0,57;-0,12;0,54;-1,12;7,47;6,2;1,03;-7,88;-5,04;970,8
11.07;-0,57;-0,12;0,54;-1,12;7,47;6,2;-1,81;-4,67;-1,05;970,8
11.071;-0,57;-0,12;0,54;-1,12;7,47;6,2;-1,81;-4,67;-1,05;970,8
11.071;-0,57;-0,12;0,54;-2,93;-0,12;-6,08;-1,81;-4,67;-1,05;970,8
11.112;-0,75;-0,91;-0,65;-2,93;-0,12;-6,08;-1,81;-4,67;-1,05;970,8
11.13;-0,75;-0,91;-0,65;-2,93;-0,12;-6,08;-2,78;-6,75;0,35;970,8
11.131;-0,75;-0,91;-0,65;-6,91;2,97;-3,2;-2,78;-6,75;0,35;970,8
11.131;-1,25;-0,54;-0,35;-6,91;2,97;-3,2;-2,78;-6,75;0,35;970,8
11.191;-1,25;-0,54;-0,35;-6,91;2,97;-3,2;-2,95;-2,8;3,54;970,8
11.191;-1,25;-0,54;-0,35;-6,91;2,97;-3,2;-2,95;-2,8;3,54;970,85
11.191;-1,25;-0,54;-0,35;-16,33;0,35;-1,16;-2,95;-2,8;3,54;970,85
11.212;-2,43;-0,6;-0,23;-16,33;0,35;-1,16;-2,95;-2,8;3,54;970,85
11.25;-2,43;-0,6;-0,23;-16,33;0,35;-1,16;-3,27;-2,33;6,74;970,85
11.251;-2,43;-0,6;-0,23;-16,33;0,35;-1,16;-3,27;-2,33;6,74;970,85
11.251;-2,43;-0,6;-0,23;-12,12;-9,88;-15,48;-3,27;-2,33;6,74;970,85
11.312;-2,17;-1,14;-1,9;-12,12;-9,88;-15,48;-3,27;-2,33;6,74;970,85
11.313;-2,17;-1,14;-1,9;-12,12;-9,88;-15,48;-5,22;8,97;10,84;970,85
11.313;-2,17;-1,14;-1,9;-7,49;-17,48;-12,28;-5,22;8,97;10,84;970,85
11.313;-1,36;-1,28;-1,88;-7,49;-17,48;-12,28;-5,22;8,97;10,84;970,85
11.372;-1,36;-1,28;-1,88;-7,49;-17,48;-12,28;0,03;1,28;5,77;970,85
11.373;-1,36;-1,28;-1,88;-7,49;-17,48;-12,28;0,03;1,28;5,77;970,82
11.373;-1,36;-1,28;-1,88;13,79;-9,25;-3,26;0,03;1,28;5,77;970,82
11.411;0,76;-0,34;-0,81;13,79;-9,25;-3,26;0,03;1,28;5,77;970,82
11.431;0,76;-0,34;-0,81;13,79;-9,25;-3,26;1,88;-8,64;1,69;970,82
11.431;0,76;-0,34;-0,81;20,66;-7,5;8,79;1,88;-8,64;1,69;970,82
11.431;1,36;-0,17;0,61;20,66;-7,5;8,79;1,88;-8,64;1,69;970,82
11.491;1,36;-0,17;0,61;20,66;-7,5;8,79;1,96;-1,82;2,12;970,82
11.492;1,36;-0,17;0,61;20,66;-7,5;8,79;1,96;-1,82;2,12;970,83
11.493;1,36;-0,17;0,61;7,38;-11,54;4,05;1,96;-1,82;2,12;970,83
11.511;0,1;-0,56;-0,03;7,38;-11,54;4,05;1,96;-1,82;2,12;970,83
11.553;0,1;-0,56;-0,03;7,38;-11,54;4,05;3,18;3,03;1,56;970,83
11.554;0,1;-0,56;-0,03;7,38;-11,54;4,05;3,18;3,03;1,56;970,86
11.554;0,1;-0,56;-0,03;5,33;-7,51;2,15;3,18;3,03;1,56;970,86
11.613;0;-0,18;-0,39;5,33;-7,51;2,15;3,18;3,03;1,56;970,86
11.613;0;-0,18;-0,39;5,33;-7,51;2,15;1,9;0,79;1,44;970,86
11.614;0;-0,18;-0,39;5,59;-6,12;2,09;1,9;0,79;1,44;970,86
11.614;0,07;-0,06;-0,45;5,59;-6,12;2,09;1,9;0,79;1,44;970,86
11.671;0,07;-0,06;-0,45;5,59;-6,12;2,09;1,18;-0,85;1,07;970,86
11.673;0,07;-0,06;-0,45;5,59;-6,12;2,09;1,18;-0,85;1,07;970,86
11.673;0,07;-0,06;-0,45;8,73;-19,4;-2,27;1,18;-0,85;1,07;970,86
11.712;0,42;-1,46;-0,95;8,73;-19,4;-2,27;1,18;-0,85;1,07;970,86
11.73;0,42;-1,46;-0,95;8,73;-19,4;-2,27;2,93;1,81;0,86;970,86
11.731;0,42;-1,46;-0,95;-2,71;-33,53;-16,04;2,93;1,81;0,86;970,86
11.731;-0,5;-3,13;-2,57;-2,71;-33,53;-16,04;2,93;1,81;0,86;970,86
11.79;-0,5;-3,13;-2,57;-2,71;-33,53;-16,04;7,77;3,52;0,02;970,86
11.791;-0,5;-3,13;-2,57;-2,71;-33,53;-16,04;7,77;3,52;0,02;970,82
11.791;-0,5;-3,13;-2,57;2,57;-11,53;-9,91;7,77;3,52;0,02;970,82
11.812;0,01;-1,43;-1,95;2,57;-11,53;-9,91;7,77;3,52;0,02;970,82
11.852;0,01;-1,43;-1,95;2,57;-11,53;-9,91;8,48;-4,62;-2,78;970,82
11.853;0,01;-1,43;-1,95;2,57;-11,53;-9,91;8,48;-4,62;-2,78;970,82
11.853;0,01;-1,43;-1,95;2,58;3,62;-0,64;8,48;-4,62;-2,78;970,82
11.912;-0,1;-0,26;-0,75;2,58;3,62;-0,64;8,48;-4,62;-2,78;970,82
11.913;-0,1;-0,26;-0,75;2,58;3,62;-0,64;3,56;-5,03;-4,75;970,82
11.913;-0,1;-0,26;-0,75;-2,45;3,17;-1,47;3,56;-5,03;-4,75;970,82
11.913;-0,59;-0,5;-0,61;-2,45;3,17;-1,47;3,56;-5,03;-4,75;970,82
11.971;-0,59;-0,5;-0,61;-2,45;3,17;-1,47;0,16;-8,53;-5,46;970,82
11.972;-0,59;-0,5;-0,61;-2,45;3,17;-1,47;0,16;-8,53;-5,46;970,83
11.974;-0,59;-0,5;-0,61;-10,84;-4,21;-8,26;0,16;-8,53;-5,46;970,83
12.009;-1,46;-1,32;-1,13;-10,84;-4,21;-8,26;0,16;-8,53;-5,46;970,83
12.031;-1,46;-1,32;-1,13;-10,84;-4,21;-8,26;-1,99;-12,41;-1,64;970,83
12.032;-1,46;-1,32;-1,13;-1,47;-2,72;-9,18;-1,99;-12,41;-1,64;970,83
12.032;-0,71;-1,09;-1,09;-1,47;-2,72;-9,18;-1,99;-12,41;-1,64;970,83
12.092;-0,71;-1,09;-1,09;-1,47;-2,72;-9,18;-6,9;-13,03;3,4;970,83
12.093;-0,71;-1,09;-1,09;-1,47;-2,72;-9,18;-6,9;-13,03;3,4;970,84
12.093;-0,71;-1,09;-1,09;-16,59;-0,11;-12,17;-6,9;-13,03;3,4;970,84
12.111;-2,52;-0,57;-1,35;-16,59;-0,11;-12,17;-6,9;-13,03;3,4;970,84
12.152;-2,52;-0,57;-1,35;-16,59;-0,11;-12,17;-3,85;1,55;7,55;970,84
12.152;-2,52;-0,57;-1,35;-16,59;-0,11;-12,17;-3,85;1,55;7,55;970,88
12.152;-2,52;-0,57;-1,35;-1,48;-21,44;10,82;-3,85;1,55;7,55;970,88
12.212;-1,14;-2,19;0,95;-1,48;-21,44;10,82;-3,85;1,55;7,55;970,88
12.213;-1,14;-2,19;0,95;-1,48;-21,44;10,82;-5,13;-4,52;11,23;970,88
12.214;-1,14;-2,19;0,95;2,05;-8,16;0,84;-5,13;-4,52;11,23;970,88
12.214;-0,64;-0,33;-0,09;2,05;-8,16;0,84;-5,13;-4,52;11,23;970,88
12.271;-0,64;-0,33;-0,09;2,05;-8,16;0,84;0,33;-0,76;5,08;970,88
12.272;-0,64;-0,33;-0,09;2,05;-8,16;0,84;0,33;-0,76;5,08;970,9
12.272;-0,64;-0,33;-0,09;4,65;-12,51;0,02;0,33;-0,76;5,08;970,9
12.311;-0,27;-0,63;-0,16;4,65;-12,51;0,02;0,33;-0,76;5,08;970,9
12.331;-0,27;-0,63;-0,16;4,65;-12,51;0,02;3,33;-6;2,78;970,9
12.331;-0,27;-0,63;-0,16;18,87;-17,53;4,48;3,33;-6;2,78;970,9
12.331;1,24;-1,07;0,36;18,87;-17,53;4,48;3,33;-6;2,78;970,9
12.392;1,24;-1,07;0,36;18,87;-17,53;4,48;5,08;-0,21;0,95;970,9
12.393;1,24;-1,07;0,36;18,87;-17,53;4,48;5,08;-0,21;0,95;970,88
12.393;1,24;-1,07;0,36;6,37;-11,67;0,14;5,08;-0,21;0,95;970,88
12.41;-0,02;-0,52;-0,31;6,37;-11,67;0,14;5,08;-0,21;0,95;970,88
12.451;-0,02;-0,52;-0,31;6,37;-11,67;0,14;3,76;-0,25;-0,37;970,88
12.452;-0,02;-0,52;-0,31;6,37;-11,67;0,14;3,76;-0,25;-0,37;970,87
12.452;-0,02;-0,52;-0,31;3,14;-8,21;-0,85;3,76;-0,25;-0,37;970,87
12.511;-0,35;-0,25;-0,55;3,14;-8,21;-0,85;3,76;-0,25;-0,37;970,87
12.512;-0,35;-0,25;-0,55;3,14;-8,21;-0,85;3,1;0,41;0,45;970,87
12.512;-0,35;-0,25;-0,55;5,26;-7,66;-6,09;3,1;0,41;0,45;970,87
12.513;-0,12;-0,27;-1,17;5,26;-7,66;-6,09;3,1;0,41;0,45;970,87
12.57;-0,12;-0,27;-1,17;5,26;-7,66;-6,09;2,59;-0,63;0,29;970,87
12.571;-0,12;-0,27;-1,17;5,26;-7,66;-6,09;2,59;-0,63;0,29;970,85
12.571;-0,12;-0,27;-1,17;2,43;-16,34;-15,87;2,59;-0,63;0,29;970,85
12.612;-0,43;-1,31;-2,26;2,43;-16,34;-15,87;2,59;-0,63;0,29;970,85
12.63;-0,43;-1,31;-2,26;2,43;-16,34;-15,87;3,33;0,79;-0,87;970,85
12.631;-0,43;-1,31;-2,26;9;-35,78;1,04;3,33;0,79;-0,87;970,85
12.631;0,19;-3,6;-0,58;9;-35,78;1,04;3,33;0,79;-0,87;970,85
12.691;0,19;-3,6;-0,58;9;-35,78;1,04;4,78;-0,12;-7,29;970,85
12.694;0,19;-3,6;-0,58;9;-35,78;1,04;4,78;-0,12;-7,29;970,82
12.694;0,19;-3,6;-0,58;-9,93;-13,47;-7,6;4,78;-0,12;-7,29;970,82
12.711;-1,54;-1,88;-1,47;-9,93;-13,47;-7,6;4,78;-0,12;-7,29;970,82
12.75;-1,54;-1,88;-1,47;-9,93;-13,47;-7,6;7,47;-0,83;-5,97;970,82
12.751;-1,54;-1,88;-1,47;-9,93;-13,47;-7,6;7,47;-0,83;-5,97;970,87
12.751;-1,54;-1,88;-1,47;-2,56;9,98;-12,31;7,47;-0,83;-5,97;970,87
12.811;-0,76;0,19;-1,52;-2,56;9,98;-12,31;7,47;-0,83;-5,97;970,87
12.812;-0,76;0,19;-1,52;-2,56;9,98;-12,31;0,96;-11,56;-4,5;970,87
12.812;-0,76;0,19;-1,52;-8,69;1;-7,39;0,96;-11,56;-4,5;970,87
12.813;-1,31;-0,81;-0,79;-8,69;1;-7,39;0,96;-11,56;-4,5;970,87
12.87;-1,31;-0,81;-0,79;-8,69;1;-7,39;-2,55;-8,3;-0,85;970,87
12.871;-1,31;-0,81;-0,79;-8,69;1;-7,39;-2,55;-8,3;-0,85;970,83
12.871;-1,31;-0,81;-0,79;-12,93;-5,39;1,9;-2,55;-8,3;-0,85;970,83
12.911;-1,77;-1,44;0,15;-12,93;-5,39;1,9;-2,55;-8,3;-0,85;970,83
12.93;-1,77;-1,44;0,15;-12,93;-5,39;1,9;-4,82;-4,97;2,69;970,83
12.931;-1,77;-1,44;0,15;-11,69;3,6;-2,14;-4,82;-4,97;2,69;970,83
12.931;-1,88;-0,35;-0,34;-11,69;3,6;-2,14;-4,82;-4,97;2,69;970,83
12.991;-1,88;-0,35;-0,34;-11,69;3,6;-2,14;-3,04;-2,34;6,18;970,83
12.992;-1,88;-0,35;-0,34;-11,69;3,6;-2,14;-3,04;-2,34;6,18;970,87
12.992;-1,88;-0,35;-0,34;-13,94;-8,32;-2,57;-3,04;-2,34;6,18;970,87
13.013;-2,37;-1,16;-0,39;-13,94;-8,32;-2,57;-3,04;-2,34;6,18;970,87
13.051;-2,37;-1,16;-0,39;-13,94;-8,32;-2,57;-2,85;1,94;10,54;970,87
13.052;-2,37;-1,16;-0,39;-13,94;-8,32;-2,57;-2,85;1,94;10,54;970,87
13.052;-2,37;-1,16;-0,39;-4,24;-19,28;5,21;-2,85;1,94;10,54;970,87
13.112;-1,34;-1,62;0,28;-4,24;-19,28;5,21;-2,85;1,94;10,54;970,87
13.113;-1,34;-1,62;0,28;-4,24;-19,28;5,21;-3,57;4,29;8,28;970,87
13.113;-1,34;-1,62;0,28;3,64;-13,22;-2,37;-3,57;4,29;8,28;970,87
13.113;-0,34;-0,72;-0,54;3,64;-13,22;-2,37;-3,57;4,29;8,28;970,87
13.171;-0,34;-0,72;-0,54;3,64;-13,22;-2,37;2,02;-5,33;2,53;970,87
13.172;-0,34;-0,72;-0,54;3,64;-13,22;-2,37;2,02;-5,33;2,53;970,88
13.172;-0,34;-0,72;-0,54;10,9;-10,98;3,32;2,02;-5,33;2,53;970,88
13.21;0,36;-0,48;0,2;10,9;-10,98;3,32;2,02;-5,33;2,53;970,88
13.232;0,36;-0,48;0,2;10,9;-10,98;3,32;3,51;-4,96;-0,1;970,88
13.232;0,36;-0,48;0,2;9,19;-9,02;-0,69;3,51;-4,96;-0,1;970,88
13.233;0,2;-0,28;-0,3;9,19;-9,02;-0,69;3,51;-4,96;-0,1;970,88
13.291;0,2;-0,28;-0,3;9,19;-9,02;-0,69;3,3;1,23;1,36;970,88
13.292;0,2;-0,28;-0,3;9,19;-9,02;-0,69;3,3;1,23;1,36;970,91
13.292;0,2;-0,28;-0,3;4,7;-6,77;0,97;3,3;1,23;1,36;970,91
13.312;-0,17;-0,05;-0,32;4,7;-6,77;0,97;3,3;1,23;1,36;970,91
13.351;-0,17;-0,05;-0,32;4,7;-6,77;0,97;2,53;1,04;1,28;970,91
13.352;-0,17;-0,05;-0,32;4,7;-6,77;0,97;2,53;1,04;1,28;970,9
13.352;-0,17;-0,05;-0,32;7,54;-4,64;-0,58;2,53;1,04;1,28;970,9
13.411;0,16;0,16;-0,53;7,54;-4,64;-0,58;2,53;1,04;1,28;970,9
13.412;0,16;0,16;-0,53;7,54;-4,64;-0,58;1,56;-1,15;1,39;970,9
13.412;0,16;0,16;-0,53;6,84;-10,56;-0,76;1,56;-1,15;1,39;970,9
13.413;0,17;-0,46;-0,67;6,84;-10,56;-0,76;1,56;-1,15;1,39;970,9
13.471;0,17;-0,46;-0,67;6,84;-10,56;-0,76;2,95;4,66;1,51;970,9
13.472;0,17;-0,46;-0,67;6,84;-10,56;-0,76;2,95;4,66;1,51;970,87
13.472;0,17;-0,46;-0,67;2,19;-30,29;-2,15;2,95;4,66;1,51;970,87
13.511;-0,12;-2,65;-1,05;2,19;-30,29;-2,15;2,95;4,66;1,51;970,87
13.531;-0,12;-2,65;-1,05;2,19;-30,29;-2,15;6,21;3,15;-1,5;970,87
13.531;-0,12;-2,65;-1,05;-3,76;-32,97;-12,92;6,21;3,15;-1,5;970,87
13.531;-0,7;-3,4;-2,27;-3,76;-32,97;-12,92;6,21;3,15;-1,5;970,87
13.591;-0,7;-3,4;-2,27;-3,76;-32,97;-12,92;8,75;-4,42;-5,32;970,87
13.591;-0,7;-3,4;-2,27;-3,76;-32,97;-12,92;8,75;-4,42;-5,32;970,87
13.592;-0,7;-3,4;-2,27;3,26;-0,96;-4,45;8,75;-4,42;-5,32;970,87
13.613;-0,25;-0,64;-1,06;3,26;-0,96;-4,45;8,75;-4,42;-5,32;970,87
13.651;-0,25;-0,64;-1,06;3,26;-0,96;-4,45;3,97;-10,28;-4,64;970,87
13.652;-0,25;-0,64;-1,06;3,26;-0,96;-4,45;3,97;-10,28;-4,64;970,87
13.652;-0,25;-0,64;-1,06;-0,41;3,22;-1,69;3,97;-10,28;-4,64;970,87
13.711;-0,62;-0,47;-0,34;-0,41;3,22;-1,69;3,97;-10,28;-4,64;970,87
13.712;-0,62;-0,47;-0,34;-0,41;3,22;-1,69;-0,34;-7,2;-5,27;970,87
13.712;-0,62;-0,47;-0,34;-12,35;-3,85;-10,34;-0,34;-7,2;-5,27;970,87
13.713;-1,68;-1,3;-1,12;-12,35;-3,85;-10,34;-0,34;-7,2;-5,27;970,87
13.772;-1,68;-1,3;-1,12;-12,35;-3,85;-10,34;-1,41;-3,43;-1,58;970,87
13.773;-1,68;-1,3;-1,12;-12,35;-3,85;-10,34;-1,41;-3,43;-1,58;970,87
13.773;-1,68;-1,3;-1,12;-13,38;4,23;-9,25;-1,41;-3,43;-1,58;970,87
13.812;-1,8;-0,47;-1,02;-13,38;4,23;-9,25;-1,41;-3,43;-1,58;970,87
13.831;-1,8;-0,47;-1,02;-13,38;4,23;-9,25;-5;-7,51;2,23;970,87
13.832;-1,8;-0,47;-1,02;-6,52;-4,04;-4,19;-5;-7,51;2,23;970,87
13.832;-1,39;-1,1;-0,51;-6,52;-4,04;-4,19;-5;-7,51;2,23;970,87
13.891;-1,39;-1,1;-0,51;-6,52;-4,04;-4,19;-5,07;-4,61;8,59;970,87
13.892;-1,39;-1,1;-0,51;-6,52;-4,04;-4,19;-5,07;-4,61;8,59;970,86
13.893;-1,39;-1,1;-0,51;-9,23;-15,28;-4,36;-5,07;-4,61;8,59;970,86
13.909;-1,92;-1,71;-0,61;-9,23;-15,28;-4,36;-5,07;-4,61;8,59;970,86
13.952;-1,92;-1,71;-0,61;-9,23;-15,28;-4,36;-3,77;2,91;10,69;970,86
13.953;-1,92;-1,71;-0,61;-9,23;-15,28;-4,36;-3,77;2,91;10,69;970,86
13.953;-1,92;-1,71;-0,61;-5,71;-13,23;-2,27;-3,77;2,91;10,69;970,86
14.013;-1,41;-0,94;-0,62;-5,71;-13,23;-2,27;-3,77;2,91;10,69;970,86
14.014;-1,41;-0,94;-0,62;-5,71;-13,23;-2,27;2,25;2,65;4,85;970,86
14.014;-1,41;-0,94;-0,62;6,87;-4,71;-7,97;2,25;2,65;4,85;970,86
14.014;-0,08;0,02;-1,18;6,87;-4,71;-7,97;2,25;2,65;4,85;970,86
14.072;-0,08;0,02;-1,18;6,87;-4,71;-7,97;3,89;-6,46;1,19;970,86
14.072;-0,08;0,02;-1,18;6,87;-4,71;-7,97;3,89;-6,46;1,19;970,84
14.072;-0,08;0,02;-1,18;14,6;-2,13;4,85;3,89;-6,46;1,19;970,84
14.111;0,64;0,28;0,31;14,6;-2,13;4,85;3,89;-6,46;1,19;970,84
14.132;0,64;0,28;0,31;14,6;-2,13;4,85;1,36;-3,08;1,77;970,84
14.134;0,64;0,28;0,31;7,13;-7,25;3,71;1,36;-3,08;1,77;970,84
14.134;-0,06;-0,18;0,14;7,13;-7,25;3,71;1,36;-3,08;1,77;970,84
14.19;-0,06;-0,18;0,14;7,13;-7,25;3,71;1,54;0,76;1,41;970,84
14.191;-0,06;-0,18;0,14;7,13;-7,25;3,71;1,54;0,76;1,41;970,87
14.191;-0,06;-0,18;0,14;6,78;-9,06;2,87;1,54;0,76;1,41;970,87
14.211;-0,04;-0,33;-0,04;6,78;-9,06;2,87;1,54;0,76;1,41;970,87
14.25;-0,04;-0,33;-0,04;6,78;-9,06;2,87;2,17;0,11;1,31;970,87
14.251;-0,04;-0,33;-0,04;6,78;-9,06;2,87;2,17;0,11;1,31;970,87
14.251;-0,04;-0,33;-0,04;7,02;-11,43;-1,93;2,17;0,11;1,31;970,87
14.312;0,03;-0,57;-0,63;7,02;-11,43;-1,93;2,17;0,11;1,31;970,87
14.313;0,03;-0,57;-0,63;7,02;-11,43;-1,93;3;1,01;1,16;970,87
14.313;0,03;-0,57;-0,63;2,81;-21,53;-1,97;3;1,01;1,16;970,87
14.314;-0,31;-1,66;-0,81;2,81;-21,53;-1,97;3;1,01;1,16;970,87
14.371;-0,31;-1,66;-0,81;2,81;-21,53;-1,97;4,24;1,2;0,97;970,87
14.372;-0,31;-1,66;-0,81;2,81;-21,53;-1,97;4,24;1,2;0,97;970,87
14.372;-0,31;-1,66;-0,81;2,42;-32,12;-4,69;4,24;1,2;0,97;970,87
14.411;-0,34;-2,96;-1,22;2,42;-32,12;-4,69;4,24;1,2;0,97;970,87
14.43;-0,34;-2,96;-1,22;2,42;-32,12;-4,69;5,68;1,26;-2,95;970,87
14.431;-0,34;-2,96;-1,22;-0,22;-21,55;1,49;5,68;1,26;-2,95;970,87
14.431;-0,71;-2,41;-0,54;-0,22;-21,55;1,49;5,68;1,26;-2,95;970,87
14.49;-0,71;-2,41;-0,54;-0,22;-21,55;1,49;5,21;-5,55;-9,47;970,87
14.491;-0,71;-2,41;-0,54;-0,22;-21,55;1,49;5,21;-5,55;-9,47;970,82
14.491;-0,71;-2,41;-0,54;-10,28;-5,6;-12,48;5,21;-5,55;-9,47;970,82
14.51;-1,64;-1,33;-1,57;-10,28;-5,6;-12,48;5,21;-5,55;-9,47;970,82
14.552;-1,64;-1,33;-1,57;-10,28;-5,6;-12,48;4,13;-6,11;-7,64;970,82
14.552;-1,64;-1,33;-1,57;-10,28;-5,6;-12,48;4,13;-6,11;-7,64;970,82
14.553;-1,64;-1,33;-1,57;-3,13;4,76;-11,61;4,13;-6,11;-7,64;970,82
14.613;-0,76;-0,41;-1,23;-3,13;4,76;-11,61;4,13;-6,11;-7,64;970,82
14.614;-0,76;-0,41;-1,23;-3,13;4,76;-11,61;-2,23;-9,76;-0,99;970,82
14.614;-0,76;-0,41;-1,23;-9,02;1,76;-12,41;-2,23;-9,76;-0,99;970,82
14.614;-1,36;-0,72;-1,26;-9,02;1,76;-12,41;-2,23;-9,76;-0,99;970,82
14.671;-1,36;-0,72;-1,26;-9,02;1,76;-12,41;-3,51;-6,2;2,02;970,82
14.671;-1,36;-0,72;-1,26;-9,02;1,76;-12,41;-3,51;-6,2;2,02;970,84
14.671;-1,36;-0,72;-1,26;-14,02;7,09;-4,26;-3,51;-6,2;2,02;970,84
14.71;-2,03;-0,07;-0,46;-14,02;7,09;-4,26;-3,51;-6,2;2,02;970,84
14.731;-2,03;-0,07;-0,46;-14,02;7,09;-4,26;-3,1;-3,46;5,32;970,84
14.731;-2,03;-0,07;-0,46;-10,02;-8,15;3,75;-3,1;-3,46;5,32;970,84
14.732;-1,89;-1,33;0,37;-10,02;-8,15;3,75;-3,1;-3,46;5,32;970,84
14.791;-1,89;-1,33;0,37;-10,02;-8,15;3,75;-2,92;-1,85;8,56;970,84
14.792;-1,89;-1,33;0,37;-10,02;-8,15;3,75;-2,92;-1,85;8,56;970,85
14.792;-1,89;-1,33;0,37;-14,79;-12,92;-14,66;-2,92;-1,85;8,56;970,85
14.81;-2,43;-1,19;-1,87;-14,79;-12,92;-14,66;-2,92;-1,85;8,56;970,85
14.851;-2,43;-1,19;-1,87;-14,79;-12,92;-14,66;-6,72;6,82;10,07;970,85
14.851;-2,43;-1,19;-1,87;-14,79;-12,92;-14,66;-6,72;6,82;10,07;970,85
14.852;-2,43;-1,19;-1,87;1,12;-15,57;-7,26;-6,72;6,82;10,07;970,85
14.911;-0,6;-0,97;-1,06;1,12;-15,57;-7,26;-6,72;6,82;10,07;970,85
14.912;-0,6;-0,97;-1,06;1,12;-15,57;-7,26;-0,27;-8,5;3,92;970,85
14.912;-0,6;-0,97;-1,06;7,44;-9,19;0,14;-0,27;-8,5;3,92;970,85
14.913;0,04;-0,25;-0,09;7,44;-9,19;0,14;-0,27;-8,5;3,92;970,85
14.972;0,04;-0,25;-0,09;7,44;-9,19;0,14;4,26;-1,73;-0,09;970,85
14.972;0,04;-0,25;-0,09;7,44;-9,19;0,14;4,26;-1,73;-0,09;970,86
14.972;0,04;-0,25;-0,09;10,94;-9,22;-1,3;4,26;-1,73;-0,09;970,86
15.011;0,41;-0,29;-0,41;10,94;-9,22;-1,3;4,26;-1,73;-0,09;970,86
15.003;0,41;-0,29;-0,41;10,94;-9,22;-1,3;4,88;0,2;2,2;970,86
15.031;0,41;-0,29;-0,41;7,68;-8,11;3,62;4,88;0,2;2,2;970,86
15.031;0,18;-0,19;-0,11;7,68;-8,11;3,62;4,88;0,2;2,2;970,86
15.09;0,18;-0,19;-0,11;7,68;-8,11;3,62;2,5;3,62;0,69;970,86
15.091;0,18;-0,19;-0,11;7,68;-8,11;3,62;2,5;3,62;0,69;970,89
15.091;0,18;-0,19;-0,11;4,1;-8,78;3,99;2,5;3,62;0,69;970,89
15.11;-0,13;-0,31;-0,19;4,1;-8,78;3,99;2,5;3,62;0,69;970,89
15.15;-0,13;-0,31;-0,19;4,1;-8,78;3,99;1,84;-0,49;-0,29;970,89
15.151;-0,13;-0,31;-0,19;4,1;-8,78;3,99;1,84;-0,49;-0,29;970,89
15.151;-0,13;-0,31;-0,19;5,46;-5,73;1,07;1,84;-0,49;-0,29;970,89
15.212;-0,03;-0,07;-0,51;5,46;-5,73;1,07;1,84;-0,49;-0,29;970,89
15.212;-0,03;-0,07;-0,51;5,46;-5,73;1,07;1,58;-0,36;0,3;970,89
15.212;-0,03;-0,07;-0,51;6,47;-10,79;-7,3;1,58;-0,36;0,3;970,89
15.213;0,11;-0,65;-1,44;6,47;-10,79;-7,3;1,58;-0,36;0,3;970,89
15.272;0,11;-0,65;-1,44;6,47;-10,79;-7,3;2,45;1,29;0,32;970,89
15.272;0,11;-0,65;-1,44;6,47;-10,79;-7,3;2,45;1,29;0,32;970,88
15.273;0,11;-0,65;-1,44;2,35;-32,99;-4,54;2,45;1,29;0,32;970,88
15.311;-0,22;-3,05;-1,29;2,35;-32,99;-4,54;2,45;1,29;0,32;970,88
15.331;-0,22;-3,05;-1,29;2,35;-32,99;-4,54;3,89;3,38;-1,03;970,88
15.332;-0,22;-3,05;-1,29;-6,4;-32,26;-10,3;3,89;3,38;-1,03;970,88
15.332;-1,15;-3,33;-1,92;-6,4;-32,26;-10,3;3,89;3,38;-1,03;970,88
15.391;-1,15;-3,33;-1,92;-6,4;-32,26;-10,3;7,97;-8,28;-6,4;970,88
15.392;-1,15;-3,33;-1,92;-6,4;-32,26;-10,3;7,97;-8,28;-6,4;970,87
15.392;-1,15;-3,33;-1,92;0,77;-4,88;-0,12;7,97;-8,28;-6,4;970,87
15.41;-0,69;-1,09;-0,24;0,77;-4,88;-0,12;7,97;-8,28;-6,4;970,87
15.452;-0,69;-1,09;-0,24;0,77;-4,88;-0,12;1,28;-11,97;-7,77;970,87
15.452;-0,69;-1,09;-0,24;0,77;-4,88;-0,12;1,28;-11,97;-7,77;970,83
15.452;-0,69;-1,09;-0,24;-12,16;3,77;-5,74;1,28;-11,97;-7,77;970,83
15.512;-1,78;-0,46;-0,53;-12,16;3,77;-5,74;1,28;-11,97;-7,77;970,83
15.513;-1,78;-0,46;-0,53;-12,16;3,77;-5,74;-1,39;-2,53;-2,93;970,83
15.514;-1,78;-0,46;-0,53;-8,99;-2,1;-13,64;-1,39;-2,53;-2,93;970,83
15.514;-1,39;-1,09;-1,31;-8,99;-2,1;-13,64;-1,39;-2,53;-2,93;970,83
15.571;-1,39;-1,09;-1,31;-8,99;-2,1;-13,64;-5,16;-10,49;1,11;970,83
15.572;-1,39;-1,09;-1,31;-8,99;-2,1;-13,64;-5,16;-10,49;1,11;970,89
15.573;-1,39;-1,09;-1,31;-10,44;1,32;1,15;-5,16;-10,49;1,11;970,89
15.609;-1,63;-0,69;0,18;-10,44;1,32;1,15;-5,16;-10,49;1,11;970,89
15.632;-1,63;-0,69;0,18;-10,44;1,32;1,15;-3,4;-1,37;5,31;970,89
15.633;-1,63;-0,69;0,18;-14,89;-2,45;-0,03;-3,4;-1,37;5,31;970,89
15.633;-2,36;-0,78;-0,13;-14,89;-2,45;-0,03;-3,4;-1,37;5,31;970,89
15.691;-2,36;-0,78;-0,13;-14,89;-2,45;-0,03;-4,33;3,33;8,91;970,89
15.692;-2,36;-0,78;-0,13;-14,89;-2,45;-0,03;-4,33;3,33;8,91;970,89
15.692;-2,36;-0,78;-0,13;-10,12;-13,05;-3,54;-4,33;3,33;8,91;970,89
15.712;-1,91;-1,23;-0,82;-10,12;-13,05;-3,54;-4,33;3,33;8,91;970,89
15.751;-1,91;-1,23;-0,82;-10,12;-13,05;-3,54;-6,76;3,45;9,28;970,89
15.752;-1,91;-1,23;-0,82;-10,12;-13,05;-3,54;-6,76;3,45;9,28;970,88
15.752;-1,91;-1,23;-0,82;-0,82;-13,54;-3,86;-6,76;3,45;9,28;970,88
15.812;-0,82;-0,82;-0,77;-0,82;-13,54;-3,86;-6,76;3,45;9,28;970,88
15.813;-0,82;-0,82;-0,77;-0,82;-13,54;-3,86;1,16;-4,99;3,87;970,88
15.813;-0,82;-0,82;-0,77;9,94;-6,8;-5,62;1,16;-4,99;3,87;970,88
15.813;0,27;-0,06;-0,76;9,94;-6,8;-5,62;1,16;-4,99;3,87;970,88
15.872;0,27;-0,06;-0,76;9,94;-6,8;-5,62;3,56;-3,95;0,37;970,88
15.873;0,27;-0,06;-0,76;9,94;-6,8;-5,62;3,56;-3,95;0,37;970,88
15.873;0,27;-0,06;-0,76;8,19;-7,8;-0,87;3,56;-3,95;0,37;970,88
15.91;0,1;-0,18;-0,37;8,19;-7,8;-0,87;3,56;-3,95;0,37;970,88
15.932;0,1;-0,18;-0,37;8,19;-7,8;-0,87;2,73;-1,84;1,98;970,88
15.933;0,1;-0,18;-0,37;8,37;-7,47;2,97;2,73;-1,84;1,98;970,88
15.933;0,15;-0,13;-0,03;8,37;-7,47;2,97;2,73;-1,84;1,98;970,88
15.99;0,15;-0,13;-0,03;8,37;-7,47;2,97;2,69;0,91;0,69;970,88
15.991;0,15;-0,13;-0,03;8,37;-7,47;2,97;2,69;0,91;0,69;970,91
15.991;0,15;-0,13;-0,03;4,96;-8,41;1,95;2,69;0,91;0,69;970,91
16.001;-0,15;-0,25;-0,24;4,96;-8,41;1,95;2,69;0,91;0,69;970,91
16.051;-0,15;-0,25;-0,24;4,96;-8,41;1,95;2,35;-0,32;0,97;970,91
16.052;-0,15;-0,25;-0,24;4,96;-8,41;1,95;2,35;-0,32;0,97;970,89
16.052;-0,15;-0,25;-0,24;6,28;-9,07;0,27;2,35;-0,32;0,97;970,89
16.111;0,02;-0,35;-0,51;6,28;-9,07;0,27;2,35;-0,32;0,97;970,89
16.111;0,02;-0,35;-0,51;6,28;-9,07;0,27;2,83;1,27;0,86;970,89
16.111;0,02;-0,35;-0,51;2,04;-24,34;-4,16;2,83;1,27;0,86;970,89
16.112;-0,34;-2,03;-1,13;2,04;-24,34;-4,16;2,83;1,27;0,86;970,89
16.172;-0,34;-2,03;-1,13;2,04;-24,34;-4,16;5,89;0,84;-0,01;970,89
16.173;-0,34;-2,03;-1,13;2,04;-24,34;-4,16;5,89;0,84;-0,01;970,86
16.173;-0,34;-2,03;-1,13;-1,24;-36,07;-4,83;5,89;0,84;-0,01;970,86
16.211;-0,63;-3,53;-1,34;-1,24;-36,07;-4,83;5,89;0,84;-0,01;970,86
16.232;-0,63;-3,53;-1,34;-1,24;-36,07;-4,83;6,81;-2,11;-3,58;970,86
16.233;-0,63;-3,53;-1,34;-2,11;-11,47;-10,66;6,81;-2,11;-3,58;970,86
16.233;-0,9;-1,54;-1,71;-2,11;-11,47;-10,66;6,81;-2,11;-3,58;970,86
16.293;-0,9;-1,54;-1,71;-2,11;-11,47;-10,66;5,13;-9,61;-7,71;970,86
16.293;-0,9;-1,54;-1,71;-2,11;-11,47;-10,66;5,13;-9,61;-7,71;970,82
16.294;-0,9;-1,54;-1,71;-6,28;6,82;-15,32;5,13;-9,61;-7,71;970,82
16.31;-1,3;-0,05;-1,65;-6,28;6,82;-15,32;5,13;-9,61;-7,71;970,82
16.351;-1,3;-0,05;-1,65;-6,28;6,82;-15,32;2,05;-9,15;-4,75;970,82
16.351;-1,3;-0,05;-1,65;-6,28;6,82;-15,32;2,05;-9,15;-4,75;970,82
16.351;-1,3;-0,05;-1,65;-4,69;2,59;-11,35;2,05;-9,15;-4,75;970,82
16.411;-1;-0,58;-1,03;-4,69;2,59;-11,35;2,05;-9,15;-4,75;970,82
16.412;-1;-0,58;-1,03;-4,69;2,59;-11,35;-2,47;-5,27;-0,74;970,82
16.412;-1;-0,58;-1,03;-10,03;1,05;-10,47;-2,47;-5,27;-0,74;970,82
16.412;-1,51;-0,76;-0,96;-10,03;1,05;-10,47;-2,47;-5,27;-0,74;970,82
16.471;-1,51;-0,76;-0,96;-10,03;1,05;-10,47;-4,85;-5,36;1,69;970,82
16.472;-1,51;-0,76;-0,96;-10,03;1,05;-10,47;-4,85;-5,36;1,69;970,88
16.473;-1,51;-0,76;-0,96;-11,22;1,71;-2,48;-4,85;-5,36;1,69;970,88
16.51;-1,75;-0,62;-0,23;-11,22;1,71;-2,48;-4,85;-5,36;1,69;970,88
16.531;-1,75;-0,62;-0,23;-11,22;1,71;-2,48;-3,08;-4,32;4,72;970,88
16.532;-1,75;-0,62;-0,23;-9,94;-5,81;-0,82;-3,08;-4,32;4,72;970,88
16.532;-1,87;-1,1;-0,09;-9,94;-5,81;-0,82;-3,08;-4,32;4,72;970,88
16.591;-1,87;-1,1;-0,09;-9,94;-5,81;-0,82;-3,1;0,31;8,66;970,88
16.592;-1,87;-1,1;-0,09;-9,94;-5,81;-0,82;-3,1;0,31;8,66;970,91
16.592;-1,87;-1,1;-0,09;-10,6;-21,38;-2,93;-3,1;0,31;8,66;970,91
16.611;-2,05;-2,1;-0,53;-10,6;-21,38;-2,93;-3,1;0,31;8,66;970,91
16.651;-2,05;-2,1;-0,53;-10,6;-21,38;-2,93;-5,38;4,07;10,05;970,91
16.652;-2,05;-2,1;-0,53;-10,6;-21,38;-2,93;-5,38;4,07;10,05;970,88
16.653;-2,05;-2,1;-0,53;-0,51;-11,9;-10,19;-5,38;4,07;10,05;970,88
16.711;-0,87;-0,7;-1,3;-0,51;-11,9;-10,19;-5,38;4,07;10,05;970,88
16.711;-0,87;-0,7;-1,3;-0,51;-11,9;-10,19;1,93;-4,38;4,26;970,88
16.711;-0,87;-0,7;-1,3;8,74;-5,68;-8,77;1,93;-4,38;4,26;970,88
16.711;0,11;0,04;-0,97;8,74;-5,68;-8,77;1,93;-4,38;4,26;970,88
16.771;0,11;0,04;-0,97;8,74;-5,68;-8,77;3,68;-4,14;1,09;970,88
16.772;0,11;0,04;-0,97;8,74;-5,68;-8,77;3,68;-4,14;1,09;970,82
16.773;0,11;0,04;-0,97;11,75;-9,79;1,27;3,68;-4,14;1,09;970,82
16.81;0,48;-0,31;0,03;11,75;-9,79;1,27;3,68;-4,14;1,09;970,82
16.83;0,48;-0,31;0,03;11,75;-9,79;1,27;2,16;-0,58;2,61;970,82
16.831;0,48;-0,31;0,03;7,84;-12,68;3,55;2,16;-0,58;2,61;970,82
16.831;0,15;-0,56;0,17;7,84;-12,68;3,55;2,16;-0,58;2,61;970,82
16.891;0,15;-0,56;0,17;7,84;-12,68;3,55;2,59;-0,27;1,3;970,82
16.891;0,15;-0,56;0,17;7,84;-12,68;3,55;2,59;-0,27;1,3;970,87
16.892;0,15;-0,56;0,17;8,7;-12,59;5,19;2,59;-0,27;1,3;970,87
16.911;0,28;-0,55;0,23;8,7;-12,59;5,19;2,59;-0,27;1,3;970,87
16.952;0,28;-0,55;0,23;8,7;-12,59;5,19;2,84;-0,53;0,45;970,87
16.953;0,28;-0,55;0,23;8,7;-12,59;5,19;2,84;-0,53;0,45;970,88
16.953;0,28;-0,55;0,23;12,69;-5,33;-4,07;2,84;-0,53;0,45;970,88
17.011;0,66;0,13;-0,79;12,69;-5,33;-4,07;2,84;-0,53;0,45;970,88
17.012;0,66;0,13;-0,79;12,69;-5,33;-4,07;3,27;-2,69;-0,38;970,88
17.012;0,66;0,13;-0,79;6,27;-17,28;-16;3,27;-2,69;-0,38;970,88
17.012;-0,11;-1,22;-2,01;6,27;-17,28;-16;3,27;-2,69;-0,38;970,88
17.072;-0,11;-1,22;-2,01;6,27;-17,28;-16;1,2;3,82;-4,23;970,88
17.073;-0,11;-1,22;-2,01;6,27;-17,28;-16;1,2;3,82;-4,23;970,8
17.073;-0,11;-1,22;-2,01;-9,43;-50,3;3,78;1,2;3,82;-4,23;970,8
17.11;-1,81;-4,91;-0,11;-9,43;-50,3;3,78;1,2;3,82;-4,23;970,8
17.132;-1,81;-4,91;-0,11;-9,43;-50,3;3,78;3,64;-0,39;-6,99;970,8
17.132;-1,81;-4,91;-0,11;-4,75;-11,22;-14,82;3,64;-0,39;-6,99;970,8
17.132;-1,34;-1,45;-1,94;-4,75;-11,22;-14,82;3,64;-0,39;-6,99;970,8
17.192;-1,34;-1,45;-1,94;-4,75;-11,22;-14,82;4,47;-2,43;-7,08;970,8
17.193;-1,34;-1,45;-1,94;-4,75;-11,22;-14,82;4,47;-2,43;-7,08;970,82
17.193;-1,34;-1,45;-1,94;-4,34;1,05;-6,39;4,47;-2,43;-7,08;970,82
17.21;-1,17;-0,56;-0,84;-4,34;1,05;-6,39;4,47;-2,43;-7,08;970,82
17.251;-1,17;-0,56;-0,84;-4,34;1,05;-6,39;0,38;-4,78;-4,48;970,82
17.251;-1,17;-0,56;-0,84;-4,34;1,05;-6,39;0,38;-4,78;-4,48;970,81
17.252;-1,17;-0,56;-0,84;-5,65;5,31;-12,76;0,38;-4,78;-4,48;970,81
17.31;-1,19;-0,25;-1,31;-5,65;5,31;-12,76;0,38;-4,78;-4,48;970,81
17.311;-1,19;-0,25;-1,31;-5,65;5,31;-12,76;-2,52;-6,73;-1,17;970,81
17.311;-1,19;-0,25;-1,31;-5,3;-3,05;-6,7;-2,52;-6,73;-1,17;970,81
17.311;-1,12;-1,13;-0,64;-5,3;-3,05;-6,7;-2,52;-6,73;-1,17;970,81
17.371;-1,12;-1,13;-0,64;-5,3;-3,05;-6,7;-5,32;-9,09;0,15;970,81
17.372;-1,12;-1,13;-0,64;-5,3;-3,05;-6,7;-5,32;-9,09;0,15;970,83
17.372;-1,12;-1,13;-0,64;-15,93;-0,43;-7,06;-5,32;-9,09;0,15;970,83
17.411;-2,32;-0,77;-0,68;-15,93;-0,43;-7,06;-5,32;-9,09;0,15;970,83
17.431;-2,32;-0,77;-0,68;-15,93;-0,43;-7,06;-2,59;-1,56;5,94;970,83
17.432;-2,32;-0,77;-0,68;-9,54;-8,63;-0,33;-2,59;-1,56;5,94;970,83
17.432;-1,91;-1,22;0,04;-9,54;-8,63;-0,33;-2,59;-1,56;5,94;970,83
17.492;-1,91;-1,22;0,04;-9,54;-8,63;-0,33;-2,23;-0,07;10,14;970,83
17.492;-1,91;-1,22;0,04;-9,54;-8,63;-0,33;-2,23;-0,07;10,14;970,86
17.492;-1,91;-1,22;0,04;-3,44;-17,99;-0,67;-2,23;-0,07;10,14;970,86
17.511;-1,3;-1,53;-0,15;-3,44;-17,99;-0,67;-2,23;-0,07;10,14;970,86
17.551;-1,3;-1,53;-0,15;-3,44;-17,99;-0,67;-4,48;1,47;10,65;970,86
17.552;-1,3;-1,53;-0,15;-3,44;-17,99;-0,67;-4,48;1,47;10,65;970,86
17.552;-1,3;-1,53;-0,15;5,12;-7,18;-5,49;-4,48;1,47;10,65;970,86
17.611;-0,2;-0,04;-0,58;5,12;-7,18;-5,49;-4,48;1,47;10,65;970,86
17.611;-0,2;-0,04;-0,58;5,12;-7,18;-5,49;1,71;-4,39;2,6;970,86
17.612;-0,2;-0,04;-0,58;7,17;-7,88;-1,41;1,71;-4,39;2,6;970,86
17.612;0,03;-0,09;-0,07;7,17;-7,88;-1,41;1,71;-4,39;2,6;970,86
17.672;0,03;-0,09;-0,07;7,17;-7,88;-1,41;3,51;-2,71;-1,24;970,86
17.673;0,03;-0,09;-0,07;7,17;-7,88;-1,41;3,51;-2,71;-1,24;970,82
17.673;0,03;-0,09;-0,07;9,96;-10,14;-1,6;3,51;-2,71;-1,24;970,82
17.71;0,31;-0,33;-0,24;9,96;-10,14;-1,6;3,51;-2,71;-1,24;970,82
17.731;0,31;-0,33;-0,24;9,96;-10,14;-1,6;4,55;0,98;1,2;970,82
17.732;0,31;-0,33;-0,24;6,28;-8,19;2,22;4,55;0,98;1,2;970,82
17.732;0,01;-0,13;-0,1;6,28;-8,19;2,22;4,55;0,98;1,2;970,82
17.79;0,01;-0,13;-0,1;6,28;-8,19;2,22;3,11;2,47;0,89;970,82
17.791;0,01;-0,13;-0,1;6,28;-8,19;2,22;3,11;2,47;0,89;970,84
17.791;0,01;-0,13;-0,1;4,65;-6,34;1,47;3,11;2,47;0,89;970,84
17.81;-0,08;0,02;-0,35;4,65;-6,34;1,47;3,11;2,47;0,89;970,84
17.85;-0,08;0,02;-0,35;4,65;-6,34;1,47;1,94;1,93;0,4;970,84
17.852;-0,08;0,02;-0,35;4,65;-6,34;1,47;1,94;1,93;0,4;970,84
17.852;-0,08;0,02;-0,35;5,35;-6,48;-1,99;1,94;1,93;0,4;970,84
17.913;0,15;-0,05;-0,89;5,35;-6,48;-1,99;1,94;1,93;0,4;970,84
17.914;0,15;-0,05;-0,89;5,35;-6,48;-1,99;1,54;4,95;1,03;970,84
17.914;0,15;-0,05;-0,89;11,29;-14,1;-3,27;1,54;4,95;1,03;970,84
17.914;0,97;-0,87;-1,14;11,29;-14,1;-3,27;1,54;4,95;1,03;970,84
17.972;0,97;-0,87;-1,14;11,29;-14,1;-3,27;1,72;3,73;1,43;970,84
17.973;0,97;-0,87;-1,14;11,29;-14,1;-3,27;1,72;3,73;1,43;970,81
17.973;0,97;-0,87;-1,14;4,26;-40;-0,49;1,72;3,73;1,43;970,81
18.001;0,47;-3,66;-0,96;4,26;-40;-0,49;1,72;3,73;1,43;970,81
18.031;0,47;-3,66;-0,96;4,26;-40;-0,49;6,65;-0,09;-0,28;970,81
18.032;0,47;-3,66;-0,96;0,01;-28,31;-9,45;6,65;-0,09;-0,28;970,81
18.032;-0,16;-3,05;-1,94;0,01;-28,31;-9,45;6,65;-0,09;-0,28;970,81
18.092;-0,16;-3,05;-1,94;0,01;-28,31;-9,45;11,68;-6,62;-2,22;970,81
18.093;-0,16;-3,05;-1,94;0,01;-28,31;-9,45;11,68;-6,62;-2,22;970,8
18.094;-0,16;-3,05;-1,94;-4,37;0,58;-6,07;11,68;-6,62;-2,22;970,8
18.11;-0,99;-0,63;-1,11;-4,37;0,58;-6,07;11,68;-6,62;-2,22;970,8
18.15;-0,99;-0,63;-1,11;-4,37;0,58;-6,07;3,4;-13,92;-5,71;970,8
18.151;-0,99;-0,63;-1,11;-4,37;0,58;-6,07;3,4;-13,92;-5,71;970,8
18.151;-0,99;-0,63;-1,11;-8,13;3,7;-11,66;3,4;-13,92;-5,71;970,8
18.211;-1,37;-0,46;-1,23;-8,13;3,7;-11,66;3,4;-13,92;-5,71;970,8
18.212;-1,37;-0,46;-1,23;-8,13;3,7;-11,66;-1,7;-10,55;-0,78;970,8
18.212;-1,37;-0,46;-1,23;-5,01;-1,42;-4,63;-1,7;-10,55;-0,78;970,8
18.212;-1,03;-0,98;-0,33;-5,01;-1,42;-4,63;-1,7;-10,55;-0,78;970,8
18.271;-1,03;-0,98;-0,33;-5,01;-1,42;-4,63;-5,4;-7,86;2,31;970,8
18.271;-1,03;-0,98;-0,33;-5,01;-1,42;-4,63;-5,4;-7,86;2,31;970,8
18.271;-1,03;-0,98;-0,33;-16,7;6,45;0,06;-5,4;-7,86;2,31;970,8
18.312;-2,39;-0,07;0,01;-16,7;6,45;0,06;-5,4;-7,86;2,31;970,8
18.33;-2,39;-0,07;0,01;-16,7;6,45;0,06;-1,63;0,28;5,54;970,8
18.332;-2,39;-0,07;0,01;-10,03;-4,95;-1,28;-1,63;0,28;5,54;970,8
18.332;-1,93;-0,9;-0,27;-10,03;-4,95;-1,28;-1,63;0,28;5,54;970,8
18.391;-1,93;-0,9;-0,27;-10,03;-4,95;-1,28;-3,88;-1,01;8,56;970,8
18.392;-1,93;-0,9;-0,27;-10,03;-4,95;-1,28;-3,88;-1,01;8,56;970,84
18.392;-1,93;-0,9;-0,27;-2,62;-17,13;-9,03;-3,88;-1,01;8,56;970,84
18.41;-1,21;-1,52;-1,15;-2,62;-17,13;-9,03;-3,88;-1,01;8,56;970,84
18.451;-1,21;-1,52;-1,15;-2,62;-17,13;-9,03;-7,35;1,9;10,26;970,84
18.452;-1,21;-1,52;-1,15;-2,62;-17,13;-9,03;-7,35;1,9;10,26;970,84
18.452;-1,21;-1,52;-1,15;-1,05;-14,2;-14,45;-7,35;1,9;10,26;970,84
18.511;-0,82;-0,78;-1,69;-1,05;-14,2;-14,45;-7,35;1,9;10,26;970,84
18.511;-0,82;-0,78;-1,69;-1,05;-14,2;-14,45;1,45;0,06;3,56;970,84
18.512;-0,82;-0,78;-1,69;9,5;-10,94;-5,27;1,45;0,06;3,56;970,84
18.512;0,31;-0,37;-0,68;9,5;-10,94;-5,27;1,45;0,06;3,56;970,84
18.572;0,31;-0,37;-0,68;9,5;-10,94;-5,27;4,41;-3,05;0,48;970,84
18.573;0,31;-0,37;-0,68;9,5;-10,94;-5,27;4,41;-3,05;0,48;970,84
18.573;0,31;-0,37;-0,68;11,19;-5,04;0,43;4,41;-3,05;0,48;970,84
18.61;0,5;0,2;-0,23;11,19;-5,04;0,43;4,41;-3,05;0,48;970,84
18.632;0,5;0,2;-0,23;11,19;-5,04;0,43;3,04;1,53;1,41;970,84
18.632;0,5;0,2;-0,23;4,56;-7,5;3,65;3,04;1,53;1,41;970,84
18.633;-0,06;-0,04;-0,07;4,56;-7,5;3,65;3,04;1,53;1,41;970,84
18.691;-0,06;-0,04;-0,07;4,56;-7,5;3,65;1,63;2,52;0,94;970,84
18.692;-0,06;-0,04;-0,07;4,56;-7,5;3,65;1,63;2,52;0,94;970,85
18.693;-0,06;-0,04;-0,07;4,51;-8,61;4,76;1,63;2,52;0,94;970,85
18.711;0,01;-0,17;-0,06;4,51;-8,61;4,76;1,63;2,52;0,94;970,85
18.751;0,01;-0,17;-0,06;4,51;-8,61;4,76;1,26;0,12;1,24;970,85
18.752;0,01;-0,17;-0,06;4,51;-8,61;4,76;1,26;0,12;1,24;970,85
18.752;0,01;-0,17;-0,06;3,09;-10,42;4,43;1,26;0,12;1,24;970,85
18.813;-0,06;-0,37;-0,16;3,09;-10,42;4,43;1,26;0,12;1,24;970,85
18.814;-0,06;-0,37;-0,16;3,09;-10,42;4,43;1,53;1,36;1,34;970,85
18.814;-0,06;-0,37;-0,16;8,07;-14,83;0,12;1,53;1,36;1,34;970,85
18.814;0,57;-0,89;-0,73;8,07;-14,83;0,12;1,53;1,36;1,34;970,85
18.872;0,57;-0,89;-0,73;8,07;-14,83;0,12;4,38;2,29;0,88;970,85
18.872;0,57;-0,89;-0,73;8,07;-14,83;0,12;4,38;2,29;0,88;970,85
18.873;0,57;-0,89;-0,73;0,95;-40,22;-6,4;4,38;2,29;0,88;970,85
18.911;-0,03;-3,75;-1,58;0,95;-40,22;-6,4;4,38;2,29;0,88;970,85
18.93;-0,03;-3,75;-1,58;0,95;-40,22;-6,4;6,52;0,32;-0,15;970,85
18.931;-0,03;-3,75;-1,58;1,2;-27,78;-19,04;6,52;0,32;-0,15;970,85
18.931;-0,24;-2,92;-2,87;1,2;-27,78;-19,04;6,52;0,32;-0,15;970,85
18.993;-0,24;-2,92;-2,87;1,2;-27,78;-19,04;6,51;-11,37;-4,96;970,85
18.993;-0,24;-2,92;-2,87;1,2;-27,78;-19,04;6,51;-11,37;-4,96;970,83
18.994;-0,24;-2,92;-2,87;4,31;-6,18;-1,59;6,51;-11,37;-4,96;970,83
19.011;-0,33;-1,24;-0,35;4,31;-6,18;-1,59;6,51;-11,37;-4,96;970,83
19.05;-0,33;-1,24;-0,35;4,31;-6,18;-1,59;0,83;-16,34;-8,52;970,83
19.051;-0,33;-1,24;-0,35;4,31;-6,18;-1,59;0,83;-16,34;-8,52;970,81
19.052;-0,33;-1,24;-0,35;-12,19;14,7;-9,89;0,83;-16,34;-8,52;970,81
19.112;-1,77;0,66;-0,91;-12,19;14,7;-9,89;0,83;-16,34;-8,52;970,81
19.112;-1,77;0,66;-0,91;-12,19;14,7;-9,89;-1,18;0,71;-1,72;970,81
19.113;-1,77;0,66;-0,91;-11,58;-0,94;-4,66;-1,18;0,71;-1,72;970,81
19.113;-1,68;-0,96;-0,43;-11,58;-0,94;-4,66;-1,18;0,71;-1,72;970,81
19.172;-1,68;-0,96;-0,43;-11,58;-0,94;-4,66;-3,86;-5,85;0,44;970,81
19.173;-1,68;-0,96;-0,43;-11,58;-0,94;-4,66;-3,86;-5,85;0,44;970,88
19.173;-1,68;-0,96;-0,43;-10,19;4,31;-4,49;-3,86;-5,85;0,44;970,88
19.211;-1,59;-0,39;-0,39;-10,19;4,31;-4,49;-3,86;-5,85;0,44;970,88
19.23;-1,59;-0,39;-0,39;-10,19;4,31;-4,49;-3,37;-4,36;3,3;970,88
19.231;-1,59;-0,39;-0,39;-8,22;0,55;3,2;-3,37;-4,36;3,3;970,88
19.231;-1,6;-0,59;0,41;-8,22;0,55;3,2;-3,37;-4,36;3,3;970,88
19.292;-1,6;-0,59;0,41;-8,22;0,55;3,2;-1,61;0,98;7,13;970,88
19.292;-1,6;-0,59;0,41;-8,22;0,55;3,2;-1,61;0,98;7,13;970,89
19.293;-1,6;-0,59;0,41;-9,01;-7,1;-11,99;-1,61;0,98;7,13;970,89
19.31;-1,88;-0,91;-1,44;-9,01;-7,1;-11,99;-1,61;0,98;7,13;970,89
19.352;-1,88;-0,91;-1,44;-9,01;-7,1;-11,99;-4,91;2,21;9,06;970,89
19.353;-1,88;-0,91;-1,44;-9,01;-7,1;-11,99;-4,91;2,21;9,06;970,87
19.353;-1,88;-0,91;-1,44;-0,72;-15,19;-2,35;-4,91;2,21;9,06;970,87
19.412;-0,96;-1,15;-0,46;-0,72;-15,19;-2,35;-4,91;2,21;9,06;970,87
19.413;-0,96;-1,15;-0,46;-0,72;-15,19;-2,35;-3,08;1,77;6,65;970,87
19.413;0,13;-0,28;-1,17;-0,72;-15,19;-2,35;-3,08;1,77;6,65;970,87
19.414;0,13;-0,28;-1,17;-0,72;-15,19;-2,35;3,31;-4,61;2,68;970,87
19.472;0,13;-0,28;-1,17;8,81;-8,7;-9,49;3,31;-4,61;2,68;970,87
19.473;0,13;-0,28;-1,17;8,81;-8,7;-9,49;3,31;-4,61;2,68;970,84
19.473;0,13;-0,28;-1,17;6,29;-5,08;-2,1;3,31;-4,61;2,68;970,84
19.512;-0,08;0,11;-0,49;6,29;-5,08;-2,1;3,31;-4,61;2,68;970,84
19.533;-0,08;0,11;-0,49;6,29;-5,08;-2,1;3,8;0,48;1,79;970,84
19.534;-0,08;0,11;-0,49;7,69;-10,01;4,74;3,8;0,48;1,79;970,84
19.534;0,16;-0,34;0,1;7,69;-10,01;4,74;3,8;0,48;1,79;970,84
19.593;0,16;-0,34;0,1;7,69;-10,01;4,74;1,98;0,92;2,38;970,84
19.593;0,16;-0,34;0,1;7,69;-10,01;4,74;1,98;0,92;2,38;970,87
19.593;0,16;-0,34;0,1;3,77;-8,76;4,02;1,98;0,92;2,38;970,87
19.613;-0,12;-0,2;-0,11;3,77;-8,76;4,02;1,98;0,92;2,38;970,87
19.651;-0,12;-0,2;-0,11;3,77;-8,76;4,02;1,72;0,87;1,61;970,87
19.652;-0,12;-0,2;-0,11;3,77;-8,76;4,02;1,72;0,87;1,61;970,87
19.653;-0,12;-0,2;-0,11;4,41;-11,94;5,46;1,72;0,87;1,61;970,87
19.712;0,02;-0,54;-0,04;4,41;-11,94;5,46;1,72;0,87;1,61;970,87
19.713;0,02;-0,54;-0,04;4,41;-11,94;5,46;2,12;0,48;0,87;970,87
19.713;0,02;-0,54;-0,04;3,43;-28,21;-4,47;2,12;0,48;0,87;970,87
19.714;0,01;-2,32;-1,21;3,43;-28,21;-4,47;2,12;0,48;0,87;970,87
19.771;0,01;-2,32;-1,21;3,43;-28,21;-4,47;4,45;1,94;0,68;970,87
19.772;0,01;-2,32;-1,21;3,43;-28,21;-4,47;4,45;1,94;0,68;970,84
19.773;0,01;-2,32;-1,21;3,32;-39,13;-10,47;4,45;1,94;0,68;970,84
19.811;0;-3,67;-1,95;3,32;-39,13;-10,47;4,45;1,94;0,68;970,84
19.83;0;-3,67;-1,95;3,32;-39,13;-10,47;6,23;-1,45;-1,01;970,84
19.832;0;-3,67;-1,95;-3,6;-8,45;-21,87;6,23;-1,45;-1,01;970,84
19.832;-0,86;-1;-3,09;-3,6;-8,45;-21,87;6,23;-1,45;-1,01;970,84
19.892;-0,86;-1;-3,09;-3,6;-8,45;-21,87;7,97;-6,59;-4,22;970,84
19.893;-0,86;-1;-3,09;-3,6;-8,45;-21,87;7,97;-6,59;-4,22;970,85
19.893;-0,86;-1;-3,09;1,76;1,4;-2,5;7,97;-6,59;-4,22;970,85
19.91;-0,57;-0,34;-0,7;1,76;1,4;-2,5;7,97;-6,59;-4,22;970,85
19.952;-0,57;-0,34;-0,7;1,76;1,4;-2,5;0,74;-10,89;-4,71;970,85
19.953;-0,57;-0,34;-0,7;1,76;1,4;-2,5;0,74;-10,89;-4,71;970,87
19.953;-0,57;-0,34;-0,7;-3,37;-0,52;-3,95;0,74;-10,89;-4,71;970,87
20.012;-1,07;-0,74;-0,51;-3,37;-0,52;-3,95;0,74;-10,89;-4,71;970,87
20.013;-1,07;-0,74;-0,51;-3,37;-0,52;-3,95;-0,43;-3,15;-4,38;970,87
20.013;-1,07;-0,74;-0,51;-16,36;0,92;-13,7;-0,43;-3,15;-4,38;970,87
20.013;-2,29;-0,69;-1,44;-16,36;0,92;-13,7;-0,43;-3,15;-4,38;970,87
20.072;-2,29;-0,69;-1,44;-16,36;0,92;-13,7;-3,09;-5,86;0,72;970,87
20.073;-2,29;-0,69;-1,44;-16,36;0,92;-13,7;-3,09;-5,86;0,72;970,89
20.073;-2,29;-0,69;-1,44;-7;-1,47;0,84;-3,09;-5,86;0,72;970,89
20.11;-1,43;-0,84;0,22;-7;-1,47;0,84;-3,09;-5,86;0,72;970,89
20.132;-1,43;-0,84;0,22;-7;-1,47;0,84;-6,12;-9,75;5,51;970,89
20.132;-1,43;-0,84;0,22;-9,88;-9,18;-6,9;-6,12;-9,75;5,51;970,89
20.133;-1,92;-1,31;-0,52;-9,88;-9,18;-6,9;-6,12;-9,75;5,51;970,89
20.191;-1,92;-1,31;-0,52;-9,88;-9,18;-6,9;-4,59;0,58;9,78;970,89
20.191;-1,92;-1,31;-0,52;-9,88;-9,18;-6,9;-4,59;0,58;9,78;970,9
20.192;-1,92;-1,31;-0,52;-2,54;-15,63;-0,34;-4,59;0,58;9,78;970,9
20.21;-1,24;-1,41;0,07;-2,54;-15,63;-0,34;-4,59;0,58;9,78;970,9
20.252;-1,24;-1,41;0,07;-2,54;-15,63;-0,34;-2,93;4,03;9,66;970,9
20.253;-1,24;-1,41;0,07;-2,54;-15,63;-0,34;-2,93;4,03;9,66;970,89
20.253;-1,24;-1,41;0,07;-6,18;-10,71;-7,86;-2,93;4,03;9,66;970,89
20.311;-1,46;-0,56;-0,94;-6,18;-10,71;-7,86;-2,93;4,03;9,66;970,89
20.312;-1,46;-0,56;-0,94;-6,18;-10,71;-7,86;3,08;-1,09;2,78;970,89
20.312;-1,46;-0,56;-0,94;9,66;-9,26;-1,99;3,08;-1,09;2,78;970,89
20.312;0,2;-0,33;-0,26;9,66;-9,26;-1,99;3,08;-1,09;2,78;970,89
20.371;0,2;-0,33;-0,26;9,66;-9,26;-1,99;4,2;-4;0,94;970,89
20.372;0,2;-0,33;-0,26;9,66;-9,26;-1,99;4,2;-4;0,94;970,88
20.372;0,2;-0,33;-0,26;11,81;-6,53;-1;4,2;-4;0,94;970,88
20.41;0,47;-0,01;-0,29;11,81;-6,53;-1;4,2;-4;0,94;970,88
20.431;0,47;-0,01;-0,29;11,81;-6,53;-1;2,5;0,81;2;970,88
20.432;0,47;-0,01;-0,29;4,32;-7,13;-0,11;2,5;0,81;2;970,88
20.433;-0,22;-0,04;-0,32;4,32;-7,13;-0,11;2,5;0,81;2;970,88
20.492;-0,22;-0,04;-0,32;4,32;-7,13;-0,11;1,29;0,81;1,12;970,88
20.493;-0,22;-0,04;-0,32;4,32;-7,13;-0,11;1,29;0,81;1,12;970,9
20.493;-0,22;-0,04;-0,32;5,31;-7,67;2,14;1,29;0,81;1,12;970,9
20.51;-0,09;-0,07;-0,1;5,31;-7,67;2,14;1,29;0,81;1,12;970,9
20.551;-0,09;-0,07;-0,1;5,31;-7,67;2,14;1,44;-0,68;0,8;970,9
20.552;-0,09;-0,07;-0,1;5,31;-7,67;2,14;1,44;-0,68;0,8;970,89
20.553;-0,09;-0,07;-0,1;7,23;-4,72;-2,72;1,44;-0,68;0,8;970,89
20.613;0,16;0,22;-0,69;7,23;-4,72;-2,72;1,44;-0,68;0,8;970,89
20.613;0,16;0,22;-0,69;7,23;-4,72;-2,72;2,37;0,84;1,22;970,89
20.613;0,16;0,22;-0,69;6,49;-23,04;-7,49;2,37;0,84;1,22;970,89
20.613;0,15;-1,71;-1,34;6,49;-23,04;-7,49;2,37;0,84;1,22;970,89
20.67;0,15;-1,71;-1,34;6,49;-23,04;-7,49;4,07;2,68;0,16;970,89
20.671;0,15;-1,71;-1,34;6,49;-23,04;-7,49;4,07;2,68;0,16;970,81
20.671;0,15;-1,71;-1,34;1,84;-45,33;-4,1;4,07;2,68;0,16;970,81
20.713;-0,3;-4,26;-1,22;1,84;-45,33;-4,1;4,07;2,68;0,16;970,81
20.731;-0,3;-4,26;-1,22;1,84;-45,33;-4,1;7,79;3,82;-4,57;970,81
20.731;-0,3;-4,26;-1,22;-5,79;-9,58;-7,65;7,79;3,82;-4,57;970,81
20.732;-1,08;-1,17;-1,63;-5,79;-9,58;-7,65;7,79;3,82;-4,57;970,81
20.792;-1,08;-1,17;-1,63;-5,79;-9,58;-7,65;7,23;-7,59;-5,62;970,81
20.793;-1,08;-1,17;-1,63;-5,79;-9,58;-7,65;7,23;-7,59;-5,62;970,84
20.793;-1,08;-1,17;-1,63;2,97;5,16;-11,9;7,23;-7,59;-5,62;970,84
20.81;-0,39;-0,08;-1,61;2,97;5,16;-11,9;7,23;-7,59;-5,62;970,84
20.851;-0,39;-0,08;-1,61;2,97;5,16;-11,9;3,43;-6,38;-4,28;970,84
20.851;-0,39;-0,08;-1,61;2,97;5,16;-11,9;3,43;-6,38;-4,28;970,84
20.851;-0,39;-0,08;-1,61;-6,77;2,83;-11,82;3,43;-6,38;-4,28;970,84
20.911;-1,31;-0,49;-1,31;-6,77;2,83;-11,82;3,43;-6,38;-4,28;970,84
20.912;-1,31;-0,49;-1,31;-6,77;2,83;-11,82;-0,65;-5,76;-2,74;970,84
20.912;-1,31;-0,49;-1,31;-11,37;2,05;-10,48;-0,65;-5,76;-2,74;970,84
20.913;-1,73;-0,61;-1,05;-11,37;2,05;-10,48;-0,65;-5,76;-2,74;970,84
20.971;-1,73;-0,61;-1,05;-11,37;2,05;-10,48;-2,32;-7,85;0,73;970,84
20.972;-1,73;-0,61;-1,05;-11,37;2,05;-10,48;-2,32;-7,85;0,73;970,85
20.972;-1,73;-0,61;-1,05;-8,81;-2,23;0,4;-2,32;-7,85;0,73;970,85
21.011;-1,52;-1;0,16;-8,81;-2,23;0,4;-2,32;-7,85;0,73;970,85
21.031;-1,52;-1;0,16;-8,81;-2,23;0,4;-5,71;-8,03;4,68;970,85
21.031;-1,52;-1;0,16;-13,55;-3,15;-9,55;-5,71;-8,03;4,68;970,85
21.032;-2,25;-0,82;-0,94;-13,55;-3,15;-9,55;-5,71;-8,03;4,68;970,85
21.093;-2,25;-0,82;-0,94;-13,55;-3,15;-9,55;-4,66;3,4;8,3;970,85
21.093;-2,25;-0,82;-0,94;-13,55;-3,15;-9,55;-4,66;3,4;8,3;970,86
21.094;-2,25;-0,82;-0,94;-2,09;-19,91;-3,57;-4,66;3,4;8,3;970,86
21.11;-1,2;-1,96;-0,54;-2,09;-19,91;-3,57;-4,66;3,4;8,3;970,86
21.151;-1,2;-1,96;-0,54;-2,09;-19,91;-3,57;-5,32;4,35;10,94;970,86
21.151;-1,2;-1,96;-0,54;-2,09;-19,91;-3,57;-5,32;4,35;10,94;970,88
21.152;-1,2;-1,96;-0,54;-3,48;-13,19;-11,19;-5,32;4,35;10,94;970,88
21.211;-1,15;-0,85;-1,49;-3,48;-13,19;-11,19;-5,32;4,35;10,94;970,88
21.211;-1,15;-0,85;-1,49;-3,48;-13,19;-11,19;4,21;-2,17;2,83;970,88
21.212;-1,15;-0,85;-1,49;7,35;-7,25;-1,03;4,21;-2,17;2,83;970,88
21.212;-0,1;-0,23;-0,25;7,35;-7,25;-1,03;4,21;-2,17;2,83;970,88
21.271;-0,1;-0,23;-0,25;7,35;-7,25;-1,03;3,57;-5,75;0,27;970,88
21.272;-0,1;-0,23;-0,25;7,35;-7,25;-1,03;3,57;-5,75;0,27;970,89
21.272;-0,1;-0,23;-0,25;19,36;-1,63;-1,2;3,57;-5,75;0,27;970,89
21.309;1,15;0,38;-0,27;19,36;-1,63;-1,2;3,57;-5,75;0,27;970,89
21.331;1,15;0,38;-0,27;19,36;-1,63;-1,2;3,81;-0,87;2,59;970,89
21.332;1,15;0,38;-0,27;5,91;-4,88;-2,23;3,81;-0,87;2,59;970,89
21.332;-0,12;0,1;-0,59;5,91;-4,88;-2,23;3,81;-0,87;2,59;970,89
21.393;-0,12;0,1;-0,59;5,91;-4,88;-2,23;2,64;3,66;1,49;970,89
21.393;-0,12;0,1;-0,59;5,91;-4,88;-2,23;2,64;3,66;1,49;970,88
21.393;-0,12;0,1;-0,59;6,81;-5,35;0,21;2,64;3,66;1,49;970,88
21.411;0,05;0,05;-0,45;6,81;-5,35;0,21;2,64;3,66;1,49;970,88
21.45;0,05;0,05;-0,45;6,81;-5,35;0,21;1,47;-0,12;1,36;970,88
21.45;0,05;0,05;-0,45;6,81;-5,35;0,21;1,47;-0,12;1,36;970,88
21.45;0,05;0,05;-0,45;5,78;-7,76;2,7;1,47;-0,12;1,36;970,88
21.511;-0,02;-0,19;-0,24;5,78;-7,76;2,7;1,47;-0,12;1,36;970,88
21.512;-0,02;-0,19;-0,24;5,78;-7,76;2,7;0,92;1,95;0,89;970,88
21.512;-0,02;-0,19;-0,24;7,52;-31,18;-0,82;0,92;1,95;0,89;970,88
21.512;0,29;-2,61;-0,76;7,52;-31,18;-0,82;0,92;1,95;0,89;970,88
21.572;0,29;-2,61;-0,76;7,52;-31,18;-0,82;3;3,59;0,2;970,88
21.573;0,29;-2,61;-0,76;7,52;-31,18;-0,82;3;3,59;0,2;970,84
21.573;0,29;-2,61;-0,76;-2,79;-44,59;-2,13;3;3,59;0,2;970,84
21.609;-0,65;-4,23;-1,09;-2,79;-44,59;-2,13;3;3,59;0,2;970,84
21.63;-0,65;-4,23;-1,09;-2,79;-44,59;-2,13;8,09;-1,68;-2,44;970,84
21.631;-0,65;-4,23;-1,09;-4,66;-10,21;-15,4;8,09;-1,68;-2,44;970,84
21.631;-1,1;-1,34;-2,29;-4,66;-10,21;-15,4;8,09;-1,68;-2,44;970,84
21.691;-1,1;-1,34;-2,29;-4,66;-10,21;-15,4;9,59;-9,62;-5,49;970,84
21.692;-1,1;-1,34;-2,29;-4,66;-10,21;-15,4;9,59;-9,62;-5,49;970,83
21.692;-1,1;-1,34;-2,29;-3,97;-6,14;-21,5;9,59;-9,62;-5,49;970,83
21.71;-1,78;-0,31;-0,37;-3,97;-6,14;-21,5;9,59;-9,62;-5,49;970,83
21.75;-1,78;-0,31;-0,37;-3,97;-6,14;-21,5;-0,05;-10,76;-4,41;970,83
21.751;-1,78;-0,31;-0,37;-3,97;-6,14;-21,5;-0,05;-10,76;-4,41;970,83
21.751;-1,78;-0,31;-0,37;0,71;-1,66;-6,26;-0,05;-10,76;-4,41;970,83
21.811;-0,45;-0,98;-0,35;0,71;-1,66;-6,26;-0,05;-10,76;-4,41;970,83
21.812;-0,45;-0,98;-0,35;0,71;-1,66;-6,26;-2,64;-8,94;-0,09;970,83
21.812;-0,45;-0,98;-0,35;-14,15;4,29;-9,54;-2,64;-8,94;-0,09;970,83
21.813;-1,88;-0,42;-0,68;-14,15;4,29;-9,54;-2,64;-8,94;-0,09;970,83
21.87;-1,88;-0,42;-0,68;-14,15;4,29;-9,54;-3,95;-2,17;0,94;970,83
21.871;-1,88;-0,42;-0,68;-14,15;4,29;-9,54;-3,95;-2,17;0,94;970,84
21.871;-1,88;-0,42;-0,68;-16,4;2,09;-7,92;-3,95;-2,17;0,94;970,84
21.911;-2,19;-0,62;-0,59;-16,4;2,09;-7,92;-3,95;-2,17;0,94;970,84
21.93;-2,19;-0,62;-0,59;-16,4;2,09;-7,92;-3,82;-5,14;5,68;970,84
21.931;-2,19;-0,62;-0,59;-15,06;-16,53;-5,97;-3,82;-5,14;5,68;970,84
21.931;-2,31;-2,27;-0,37;-15,06;-16,53;-5,97;-3,82;-5,14;5,68;970,84
21.99;-2,31;-2,27;-0,37;-15,06;-16,53;-5,97;-2,41;-1,72;10,44;970,84
21.991;-2,31;-2,27;-0,37;-15,06;-16,53;-5,97;-2,41;-1,72;10,44;970,87
21.991;-2,31;-2,27;-0,37;-8,62;-20,08;-7,23;-2,41;-1,72;10,44;970,87
22.001;-1,87;-2,07;-0,62;-8,62;-20,08;-7,23;-2,41;-1,72;10,44;970,87
22.051;-1,87;-2,07;-0,62;-8,62;-20,08;-7,23;1,34;7,43;8,45;970,87
22.052;-1,87;-2,07;-0,62;-8,62;-20,08;-7,23;1,34;7,43;8,45;970,87
22.053;-0,76;-0,82;-1,11;-8,62;-20,08;-7,23;1,34;7,43;8,45;970,87
22.112;-0,76;-0,82;-1,11;-8,62;-20,08;-7,23;2,24;-3,65;3,94;970,87
22.113;-0,76;-0,82;-1,11;1,76;-11,36;-10;2,24;-3,65;3,94;970,87
22.113;-0,76;-0,82;-1,11;9,06;-6,42;-3,62;2,24;-3,65;3,94;970,87
22.113;0,07;-0,14;-0,36;9,06;-6,42;-3,62;2,24;-3,65;3,94;970,87
22.17;0,07;-0,14;-0,36;9,06;-6,42;-3,62;2,74;-1,15;3,15;970,87
22.171;0,07;-0,14;-0,36;9,06;-6,42;-3,62;2,74;-1,15;3,15;970,85
22.171;0,07;-0,14;-0,36;12,21;-8,58;1,28;2,74;-1,15;3,15;970,85
22.21;0,52;-0,19;0,13;12,21;-8,58;1,28;2,74;-1,15;3,15;970,85
22.232;0,52;-0,19;0,13;12,21;-8,58;1,28;2,69;0,13;3,17;970,85
22.233;0,52;-0,19;0,13;8,14;-10,25;1,97;2,69;0,13;3,17;970,85
22.233;0,23;-0,26;0,04;8,14;-10,25;1,97;2,69;0,13;3,17;970,85
22.292;0,23;-0,26;0,04;8,14;-10,25;1,97;2,64;1,08;2,43;970,85
22.292;0,23;-0,26;0,04;8,14;-10,25;1,97;2,64;1,08;2,43;970,88
22.293;0,23;-0,26;0,04;5,28;-8,4;2,43;2,64;1,08;2,43;970,88
22.313;0,05;-0,05;-0,08;5,28;-8,4;2,43;2,64;1,08;2,43;970,88
22.351;0,05;-0,05;-0,08;5,28;-8,4;2,43;2,31;1,24;1,22;970,88
22.352;0,05;-0,05;-0,08;5,28;-8,4;2,43;2,31;1,24;1,22;970,88
22.352;0,05;-0,05;-0,08;0,68;-9,52;-7,4;2,31;1,24;1,22;970,88
22.413;-0,35;-0,18;-1,21;0,68;-9,52;-7,4;2,31;1,24;1,22;970,88
22.413;-0,35;-0,18;-1,21;0,68;-9,52;-7,4;1,01;3,17;-0,82;970,88
22.414;-0,35;-0,18;-1,21;7,26;-31,82;-1,78;1,01;3,17;-0,82;970,88
22.414;0,27;-2,57;-0,75;7,26;-31,82;-1,78;1,01;3,17;-0,82;970,88
22.47;0,27;-2,57;-0,75;7,26;-31,82;-1,78;3,53;0,44;-2,66;970,88
22.471;0,27;-2,57;-0,75;7,26;-31,82;-1,78;3,53;0,44;-2,66;970,86
22.471;0,27;-2,57;-0,75;-0,48;-48,66;-13;3,53;0,44;-2,66;970,86
22.511;-0,59;-4,63;-2,1;-0,48;-48,66;-13;3,53;0,44;-2,66;970,86
22.531;-0,59;-4,63;-2,1;-0,48;-48,66;-13;8,3;1,15;-4,08;970,86
22.532;-0,59;-4,63;-2,1;0,89;3,36;-7,69;8,3;1,15;-4,08;970,86
22.532;-0,57;0,13;-1,5;0,89;3,36;-7,69;8,3;1,15;-4,08;970,86
22.592;-0,57;0,13;-1,5;0,89;3,36;-7,69;5,57;-8,49;-4,5;970,86
22.593;-0,57;0,13;-1,5;0,89;3,36;-7,69;5,57;-8,49;-4,5;970,85
22.593;-0,57;0,13;-1,5;1,4;5,7;-8,52;5,57;-8,49;-4,5;970,85
22.612;-0,63;0,04;-1,19;1,4;5,7;-8,52;5,57;-8,49;-4,5;970,85
22.65;-0,63;0,04;-1,19;1,4;5,7;-8,52;1,39;-5,21;-3,82;970,85
22.651;-0,63;0,04;-1,19;1,4;5,7;-8,52;1,39;-5,21;-3,82;970,85
22.651;-0,63;0,04;-1,19;-7,74;-7,98;-8,23;1,39;-5,21;-3,82;970,85
22.712;-1,51;-1,5;-0,93;-7,74;-7,98;-8,23;1,39;-5,21;-3,82;970,85
22.712;-1,51;-1,5;-0,93;-7,74;-7,98;-8,23;-2,35;-6,08;-1,6;970,85
22.713;-1,51;-1,5;-0,93;-10,17;5,79;-14,59;-2,35;-6,08;-1,6;970,85
22.713;-1,74;-0,11;-1,42;-10,17;5,79;-14,59;-2,35;-6,08;-1,6;970,85
22.771;-1,74;-0,11;-1,42;-10,17;5,79;-14,59;-3,86;-8,42;1,49;970,85
22.772;-1,74;-0,11;-1,42;-10,17;5,79;-14,59;-3,86;-8,42;1,49;970,86
22.772;-1,74;-0,11;-1,42;-9,19;-5,68;-5,03;-3,86;-8,42;1,49;970,86
22.81;-1,76;-1,13;-0,33;-9,19;-5,68;-5,03;-3,86;-8,42;1,49;970,86
22.832;-1,76;-1,13;-0,33;-9,19;-5,68;-5,03;-4,66;-1,17;8,01;970,86
22.833;-1,76;-1,13;-0,33;-11,19;-15,97;0,63;-4,66;-1,17;8,01;970,86
22.833;-2,13;-1,73;0,15;-11,19;-15,97;0,63;-4,66;-1,17;8,01;970,86
22.891;-2,13;-1,73;0,15;-11,19;-15,97;0,63;-5,64;0,41;9,6;970,86
22.891;-2,13;-1,73;0,15;-11,19;-15,97;0,63;-5,64;0,41;9,6;970,85
22.892;-2,13;-1,73;0,15;-3,32;-12,85;-0,47;-5,64;0,41;9,6;970,85
22.913;-1,24;-0,88;-0,08;-3,32;-12,85;-0,47;-5,64;0,41;9,6;970,85
22.95;-1,24;-0,88;-0,08;-3,32;-12,85;-0,47;-1,28;3,71;6,99;970,85
22.95;-1,24;-0,88;-0,08;-3,32;-12,85;-0,47;-1,28;3,71;6,99;970,86
22.951;-1,24;-0,88;-0,08;1,83;-10,35;-8,74;-1,28;3,71;6,99;970,86
23.011;-0,57;-0,41;-0,96;1,83;-10,35;-8,74;-1,28;3,71;6,99;970,86
23.012;-0,57;-0,41;-0,96;1,83;-10,35;-8,74;3,92;-4,45;1,99;970,86
23.012;-0,57;-0,41;-0,96;7,88;-3,68;-8,14;3,92;-4,45;1,99;970,86
23.012;0,07;0,3;-0,83;7,88;-3,68;-8,14;3,92;-4,45;1,99;970,86
23.071;0,07;0,3;-0,83;7,88;-3,68;-8,14;3,64;-4,49;0,13;970,86
23.072;0,07;0,3;-0,83;7,88;-3,68;-8,14;3,64;-4,49;0,13;970,85
23.072;0,07;0,3;-0,83;8,88;-7,06;0,42;3,64;-4,49;0,13;970,85
23.111;0,22;0,01;0,02;8,88;-7,06;0,42;3,64;-4,49;0,13;970,85
23.131;0,22;0,01;0,02;8,88;-7,06;0,42;2,06;1,62;1,73;970,85
23.132;0,22;0,01;0,02;4,47;-8,66;-0,41;2,06;1,62;1,73;970,85
23.132;-0,13;-0,1;-0,26;4,47;-8,66;-0,41;2,06;1,62;1,73;970,85
23.191;-0,13;-0,1;-0,26;4,47;-8,66;-0,41;1,89;3,55;2,02;970,85
23.191;-0,13;-0,1;-0,26;4,47;-8,66;-0,41;1,89;3,55;2,02;970,84
23.192;-0,13;-0,1;-0,26;3,26;-9,28;0,54;1,89;3,55;2,02;970,84
23.211;-0,11;-0,13;-0,32;3,26;-9,28;0,54;1,89;3,55;2,02;970,84
23.25;-0,11;-0,13;-0,32;3,26;-9,28;0,54;1,3;0,84;1,63;970,84
23.251;-0,11;-0,13;-0,32;3,26;-9,28;0,54;1,3;0,84;1,63;970,84
23.251;-0,11;-0,13;-0,32;6,93;-13,58;2,25;1,3;0,84;1,63;970,84
23.31;0,33;-0,58;-0,23;6,93;-13,58;2,25;1,3;0,84;1,63;970,84
23.311;0,33;-0,58;-0,23;6,93;-13,58;2,25;3,2;0,32;1,01;970,84
23.311;0,33;-0,58;-0,23;3,83;-27,29;-2,69;3,2;0,32;1,01;970,84
23.312;0,07;-2,13;-0,96;3,83;-27,29;-2,69;3,2;0,32;1,01;970,84
23.372;0,07;-2,13;-0,96;3,83;-27,29;-2,69;5,58;2,38;-1,19;970,84
23.373;0,07;-2,13;-0,96;3,83;-27,29;-2,69;5,58;2,38;-1,19;970,83
23.373;0,07;-2,13;-0,96;-1,09;-42,27;-3,72;5,58;2,38;-1,19;970,83
23.411;-0,45;-4;-1,27;-1,09;-42,27;-3,72;5,58;2,38;-1,19;970,83
23.43;-0,45;-4;-1,27;-1,09;-42,27;-3,72;7,5;-0,86;-4,13;970,83
23.43;-0,45;-4;-1,27;-3,17;-11,09;-11,75;7,5;-0,86;-4,13;970,83
23.431;-0,82;-1,37;-2,04;-3,17;-11,09;-11,75;7,5;-0,86;-4,13;970,83
23.492;-0,82;-1,37;-2,04;-3,17;-11,09;-11,75;8,49;-4,65;-5,47;970,83
23.493;-0,82;-1,37;-2,04;-3,17;-11,09;-11,75;8,49;-4,65;-5,47;970,82
23.493;-0,82;-1,37;-2,04;-5,62;3,24;-9,04;8,49;-4,65;-5,47;970,82
23.51;-1,19;-0,29;-1,4;-5,62;3,24;-9,04;8,49;-4,65;-5,47;970,82
23.551;-1,19;-0,29;-1,4;-5,62;3,24;-9,04;2,3;-5,93;-3,04;970,82
23.552;-1,19;-0,29;-1,4;-5,62;3,24;-9,04;2,3;-5,93;-3,04;970,84
23.552;-1,19;-0,29;-1,4;-4,47;0,64;-13,12;2,3;-5,93;-3,04;970,84
23.613;-1,14;-0,65;-1,51;-4,47;0,64;-13,12;2,3;-5,93;-3,04;970,84
23.614;-1,14;-0,65;-1,51;-4,47;0,64;-13,12;-1,27;-10,1;-0,89;970,84
23.614;-1,14;-0,65;-1,51;-11,75;5,58;-9,76;-1,27;-10,1;-0,89;970,84
23.614;-1,88;-0,16;-0,91;-11,75;5,58;-9,76;-1,27;-10,1;-0,89;970,84
23.671;-1,88;-0,16;-0,91;-11,75;5,58;-9,76;-5,21;-4,62;1,19;970,84
23.672;-1,88;-0,16;-0,91;-11,75;5,58;-9,76;-5,21;-4,62;1,19;970,84
23.672;-1,88;-0,16;-0,91;-9,92;-3,16;-12,31;-5,21;-4,62;1,19;970,84
23.712;-1,79;-0,94;-1,17;-9,92;-3,16;-12,31;-5,21;-4,62;1,19;970,84
23.732;-1,79;-0,94;-1,17;-9,92;-3,16;-12,31;-6,43;-3,78;5,14;970,84
23.732;-1,79;-0,94;-1,17;-11;-16,3;-3,7;-6,43;-3,78;5,14;970,84
23.732;-2,09;-1,93;-0,34;-11;-16,3;-3,7;-6,43;-3,78;5,14;970,84
23.792;-2,09;-1,93;-0,34;-11;-16,3;-3,7;-6,89;-1,16;9,42;970,84
23.792;-2,09;-1,93;-0,34;-11;-16,3;-3,7;-6,89;-1,16;9,42;970,83
23.792;-2,09;-1,93;-0,34;1,2;-15,93;-1,32;-6,89;-1,16;9,42;970,83
23.81;-0,83;-1,32;-0,12;1,2;-15,93;-1,32;-6,89;-1,16;9,42;970,83
23.85;-0,83;-1,32;-0,12;1,2;-15,93;-1,32;-4,74;2,92;7,12;970,83
23.85;-0,83;-1,32;-0,12;1,2;-15,93;-1,32;-4,74;2,92;7,12;970,84
23.851;-0,83;-1,32;-0,12;1,9;-9,7;-10,04;-4,74;2,92;7,12;970,84
23.911;-0,64;-0,43;-1;1,9;-9,7;-10,04;-4,74;2,92;7,12;970,84
23.911;-0,64;-0,43;-1;1,9;-9,7;-10,04;3;-3,94;2,58;970,84
23.912;-0,64;-0,43;-1;6,98;-14,1;-5,37;3;-3,94;2,58;970,84
23.912;-0,04;-0,78;-0,48;6,98;-14,1;-5,37;3;-3,94;2,58;970,84
23.971;-0,04;-0,78;-0,48;6,98;-14,1;-5,37;5,76;-3,38;1,86;970,84
23.972;-0,04;-0,78;-0,48;6,98;-14,1;-5,37;5,76;-3,38;1,86;970,84
23.973;-0,04;-0,78;-0,48;17,89;-6,97;-3,96;5,76;-3,38;1,86;970,84
24.011;1,17;0,04;-0,45;17,89;-6,97;-3,96;5,76;-3,38;1,86;970,84
24.003;1,17;0,04;-0,45;17,89;-6,97;-3,96;4,93;0,81;0,8;970,84
24.031;1,17;0,04;-0,45;5,79;-6,77;-0,14;4,93;0,81;0,8;970,84
24.031;-0,02;0,05;-0,31;5,79;-6,77;-0,14;4,93;0,81;0,8;970,84
24.092;-0,02;0,05;-0,31;5,79;-6,77;-0,14;2,17;0;0,07;970,84
24.093;-0,02;0,05;-0,31;5,79;-6,77;-0,14;2,17;0;0,07;970,88
24.093;-0,02;0,05;-0,31;6,51;-6,18;-0,8;2,17;0;0,07;970,88
24.109;0,02;0,05;-0,44;6,51;-6,18;-0,8;2,17;0;0,07;970,88
24.15;0,02;0,05;-0,44;6,51;-6,18;-0,8;2,1;-1,35;-0,59;970,88
24.151;0,02;0,05;-0,44;6,51;-6,18;-0,8;2,1;-1,35;-0,59;970,88
24.151;0,02;0,05;-0,44;3,65;-8,92;-8,35;2,1;-1,35;-0,59;970,88
24.212;-0,3;-0,3;-1,27;3,65;-8,92;-8,35;2,1;-1,35;-0,59;970,88
24.213;-0,3;-0,3;-1,27;3,65;-8,92;-8,35;2,64;0,41;-0,28;970,88
24.213;-0,3;-0,3;-1,27;-1,21;-24,7;-7,92;2,64;0,41;-0,28;970,88
24.213;-0,78;-2;-1,35;-1,21;-24,7;-7,92;2,64;0,41;-0,28;970,88
24.27;-0,78;-2;-1,35;-1,21;-24,7;-7,92;2,2;1,32;-1,32;970,88
24.271;-0,78;-2;-1,35;-1,21;-24,7;-7,92;2,2;1,32;-1,32;970,84
24.271;-0,78;-2;-1,35;-3,48;-38,96;-2,76;2,2;1,32;-1,32;970,84
24.311;-1,07;-3,7;-0,93;-3,48;-38,96;-2,76;2,2;1,32;-1,32;970,84
24.33;-1,07;-3,7;-0,93;-3,48;-38,96;-2,76;5,9;-1,18;-6,03;970,84
24.33;-1,07;-3,7;-0,93;0,18;-2,75;-7,87;5,9;-1,18;-6,03;970,84
24.331;-0,81;-0,56;-1,29;0,18;-2,75;-7,87;5,9;-1,18;-6,03;970,84
24.39;-0,81;-0,56;-1,29;0,18;-2,75;-7,87;4,61;-5,38;-6,2;970,84
24.391;-0,81;-0,56;-1,29;0,18;-2,75;-7,87;4,61;-5,38;-6,2;970,83
24.391;-0,81;-0,56;-1,29;-0,9;6,69;-7,15;4,61;-5,38;-6,2;970,83
24.409;-0,86;0,09;-0,96;-0,9;6,69;-7,15;4,61;-5,38;-6,2;970,83
24.45;-0,86;0,09;-0,96;-0,9;6,69;-7,15;1;-0,55;-3,44;970,83
24.451;-0,86;0,09;-0,96;-0,9;6,69;-7,15;1;-0,55;-3,44;970,84
24.451;-0,86;0,09;-0,96;-5,77;0,6;-8,92;1;-0,55;-3,44;970,84
24.511;-1,27;-0,67;-1;-5,77;0,6;-8,92;1;-0,55;-3,44;970,84
24.512;-1,27;-0,67;-1;-5,77;0,6;-8,92;-1,52;-4,97;-2,3;970,84
24.513;-1,27;-0,67;-1;-8,07;4,07;-15,58;-1,52;-4,97;-2,3;970,84
24.513;-1,47;-0,35;-1,55;-8,07;4,07;-15,58;-1,52;-4,97;-2,3;970,84
24.571;-1,47;-0,35;-1,55;-8,07;4,07;-15,58;-3,93;-9,1;0,74;970,84
24.572;-1,47;-0,35;-1,55;-8,07;4,07;-15,58;-3,93;-9,1;0,74;970,83
24.572;-1,47;-0,35;-1,55;-6,37;1,81;-3,14;-3,93;-9,1;0,74;970,83
24.612;-1,35;-0,51;-0,16;-6,37;1,81;-3,14;-3,93;-9,1;0,74;970,83
24.631;-1,35;-0,51;-0,16;-6,37;1,81;-3,14;-4,35;-1,97;4,81;970,83
24.631;-1,35;-0,51;-0,16;-16,34;-12,02;-3,41;-4,35;-1,97;4,81;970,83
24.631;-2,59;-1,62;-0,35;-16,34;-12,02;-3,41;-4,35;-1,97;4,81;970,83
24.691;-2,59;-1,62;-0,35;-16,34;-12,02;-3,41;-5,43;-0,41;8,14;970,83
24.691;-2,59;-1,62;-0,35;-16,34;-12,02;-3,41;-5,43;-0,41;8,14;970,89
24.691;-2,59;-1,62;-0,35;-7,79;-26,63;-14,9;-5,43;-0,41;8,14;970,89
24.71;-1,75;-2,51;-1,73;-7,79;-26,63;-14,9;-5,43;-0,41;8,14;970,89
24.75;-1,75;-2,51;-1,73;-7,79;-26,63;-14,9;-8,13;3,61;9,23;970,89
24.751;-1,75;-2,51;-1,73;-7,79;-26,63;-14,9;-8,13;3,61;9,23;970,83
24.751;-1,75;-2,51;-1,73;5,5;-13,19;-13,7;-8,13;3,61;9,23;970,83
24.812;-0,21;-0,72;-1,51;5,5;-13,19;-13,7;-8,13;3,61;9,23;970,83
24.813;-0,21;-0,72;-1,51;5,5;-13,19;-13,7;3,19;-1,9;4,56;970,83
24.813;-0,21;-0,72;-1,51;8,51;-11,03;-11,1;3,19;-1,9;4,56;970,83
24.813;0,19;-0,39;-1,18;8,51;-11,03;-11,1;3,19;-1,9;4,56;970,83
24.871;0,19;-0,39;-1,18;8,51;-11,03;-11,1;4,5;-4,84;0,55;970,83
24.872;0,19;-0,39;-1,18;8,51;-11,03;-11,1;4,5;-4,84;0,55;970,83
24.872;0,19;-0,39;-1,18;14,88;-7,38;-1,5;4,5;-4,84;0,55;970,83
24.91;0,86;0;-0,25;14,88;-7,38;-1,5;4,5;-4,84;0,55;970,83
24.932;0,86;0;-0,25;14,88;-7,38;-1,5;2,64;-1,67;0,67;970,83
24.933;0,86;0;-0,25;6,92;-9,44;-0,51;2,64;-1,67;0,67;970,83
24.933;0,06;-0,23;-0,27;6,92;-9,44;-0,51;2,64;-1,67;0,67;970,83
24.991;0,06;-0,23;-0,27;6,92;-9,44;-0,51;2,33;0,43;0,21;970,83
24.992;0,06;-0,23;-0,27;6,92;-9,44;-0,51;2,33;0,43;0,21;970,84
24.993;0,06;-0,23;-0,27;6,4;-9,8;-0,25;2,33;0,43;0,21;970,84
25.001;0,03;-0,29;-0,35;6,4;-9,8;-0,25;2,33;0,43;0,21;970,84
25.05;0,03;-0,29;-0,35;6,4;-9,8;-0,25;2,25;1,02;0,37;970,84
25.051;0,03;-0,29;-0,35;6,4;-9,8;-0,25;2,25;1,02;0,37;970,84
25.051;0,03;-0,29;-0,35;5,25;-8,22;-5,58;2,25;1,02;0,37;970,84
25.112;-0,04;-0,16;-1,02;5,25;-8,22;-5,58;2,25;1,02;0,37;970,84
25.113;-0,04;-0,16;-1,02;5,25;-8,22;-5,58;1,86;2,1;0,38;970,84
25.114;-0,04;-0,16;-1,02;-1,51;-14,87;-16,32;1,86;2,1;0,38;970,84
25.114;-0,64;-0,91;-2,29;-1,51;-14,87;-16,32;1,86;2,1;0,38;970,84
25.17;-0,64;-0,91;-2,29;-1,51;-14,87;-16,32;1,62;5,08;-1,32;970,84
25.171;-0,64;-0,91;-2,29;-1,51;-14,87;-16,32;1,62;5,08;-1,32;970,83
25.171;-0,64;-0,91;-2,29;-9,07;-31,78;-6,19;1,62;5,08;-1,32;970,83
25.21;-1,38;-2,8;-1,41;-9,07;-31,78;-6,19;1,62;5,08;-1,32;970,83
25.23;-1,38;-2,8;-1,41;-9,07;-31,78;-6,19;6,06;-0,15;-4,04;970,83
25.231;-1,38;-2,8;-1,41;6,35;-1,31;-10,82;6,06;-0,15;-4,04;970,83
25.231;0,02;-0,14;-1,88;6,35;-1,31;-10,82;6,06;-0,15;-4,04;970,83
25.291;0,02;-0,14;-1,88;6,35;-1,31;-10,82;6,68;-6,24;-1,77;970,83
25.292;0,02;-0,14;-1,88;6,35;-1,31;-10,82;6,68;-6,24;-1,77;970,87
25.293;0,02;-0,14;-1,88;8,15;0,73;-5,43;6,68;-6,24;-1,77;970,87
25.311;-0,06;-0,25;-0,88;8,15;0,73;-5,43;6,68;-6,24;-1,77;970,87
25.35;-0,06;-0,25;-0,88;8,15;0,73;-5,43;0,5;-6,8;-5,12;970,87
25.351;-0,06;-0,25;-0,88;8,15;0,73;-5,43;0,5;-6,8;-5,12;970,87
25.351;-0,06;-0,25;-0,88;-6,72;0,67;-14,23;0,5;-6,8;-5,12;970,87
25.412;-1,53;-0,47;-1,53;-6,72;0,67;-14,23;0,5;-6,8;-5,12;970,87
25.413;-1,53;-0,47;-1,53;-6,72;0,67;-14,23;-2,69;-4,45;-2,56;970,87
25.413;-1,53;-0,47;-1,53;-3,43;-1,35;-14,39;-2,69;-4,45;-2,56;970,87
25.413;-1,15;-0,72;-1,34;-3,43;-1,35;-14,39;-2,69;-4,45;-2,56;970,87
25.474;-1,15;-0,72;-1,34;-3,43;-1,35;-14,39;-4,49;-6,12;1,11;970,87
25.474;-1,15;-0,72;-1,34;-3,43;-1,35;-14,39;-4,49;-6,12;1,11;970,84
25.475;-1,15;-0,72;-1,34;-10,65;-6,07;-7,02;-4,49;-6,12;1,11;970,84
25.511;-1,95;-1,11;-0,61;-10,65;-6,07;-7,02;-4,49;-6,12;1,11;970,84
25.531;-1,95;-1,11;-0,61;-10,65;-6,07;-7,02;-4,9;3,01;6,12;970,84
25.531;-1,95;-1,11;-0,61;-8,49;-10,17;-3,31;-4,9;3,01;6,12;970,84
25.531;-1,86;-1,11;-0,44;-8,49;-10,17;-3,31;-4,9;3,01;6,12;970,84
25.591;-1,86;-1,11;-0,44;-8,49;-10,17;-3,31;-7,18;-0,48;7,58;970,84
25.592;-1,86;-1,11;-0,44;-8,49;-10,17;-3,31;-7,18;-0,48;7,58;970,85
25.592;-1,86;-1,11;-0,44;1,24;-16,73;3,46;-7,18;-0,48;7,58;970,85
25.61;-0,76;-1,24;0,33;1,24;-16,73;3,46;-7,18;-0,48;7,58;970,85
25.651;-0,76;-1,24;0,33;1,24;-16,73;3,46;-5,11;3,1;8,62;970,85
25.652;-0,76;-1,24;0,33;1,24;-16,73;3,46;-5,11;3,1;8,62;970,85
25.652;-0,76;-1,24;0,33;-1,14;-7,14;-12,67;-5,11;3,1;8,62;970,85
25.71;-0,82;-0,02;-1,35;-1,14;-7,14;-12,67;-5,11;3,1;8,62;970,85
25.711;-0,82;-0,02;-1,35;-1,14;-7,14;-12,67;3,31;-2,4;1,64;970,85
25.711;-0,82;-0,02;-1,35;8,83;-6,24;-6,19;3,31;-2,4;1,64;970,85
25.711;0,22;0,09;-0,55;8,83;-6,24;-6,19;3,31;-2,4;1,64;970,85
25.771;0,22;0,09;-0,55;8,83;-6,24;-6,19;3,88;-6,73;-1,14;970,85
25.771;0,22;0,09;-0,55;8,83;-6,24;-6,19;3,88;-6,73;-1,14;970,84
25.771;0,22;0,09;-0,55;10,26;-4,95;-3,56;3,88;-6,73;-1,14;970,84
25.809;0,37;0,23;-0,35;10,26;-4,95;-3,56;3,88;-6,73;-1,14;970,84
25.832;0,37;0,23;-0,35;10,26;-4,95;-3,56;2,66;1,33;1,44;970,84
25.833;0,37;0,23;-0,35;4,73;-8,1;0,6;2,66;1,33;1,44;970,84
25.833;-0,12;-0,05;-0,11;4,73;-8,1;0,6;2,66;1,33;1,44;970,84
25.89;-0,12;-0,05;-0,11;4,73;-8,1;0,6;1,65;4,46;1,44;970,84
25.89;-0,12;-0,05;-0,11;4,73;-8,1;0,6;1,65;4,46;1,44;970,87
25.891;-0,12;-0,05;-0,11;4,75;-7,86;1,23;1,65;4,46;1,44;970,87
25.911;-0,02;0;-0,2;4,75;-7,86;1,23;1,65;4,46;1,44;970,87
25.951;-0,02;0;-0,2;4,75;-7,86;1,23;1,37;-0,96;1,3;970,87
25.952;-0,02;0;-0,2;4,75;-7,86;1,23;1,37;-0,96;1,3;970,87
25.952;-0,02;0;-0,2;5,22;-10,7;-2,93;1,37;-0,96;1,3;970,87
26.011;0,07;-0,3;-0,7;5,22;-10,7;-2,93;1,37;-0,96;1,3;970,87
26.012;0,07;-0,3;-0,7;5,22;-10,7;-2,93;2,42;1,06;0,97;970,87
26.012;0,07;-0,3;-0,7;1,74;-24,66;-13,09;2,42;1,06;0,97;970,87
26.012;-0,19;-1,79;-1,92;1,74;-24,66;-13,09;2,42;1,06;0,97;970,87
26.071;-0,19;-1,79;-1,92;1,74;-24,66;-13,09;3,62;3,77;0,67;970,87
26.071;-0,19;-1,79;-1,92;1,74;-24,66;-13,09;3,62;3,77;0,67;970,87
26.072;-0,19;-1,79;-1,92;-6,57;-34,18;-16,33;3,62;3,77;0,67;970,87
26.111;-0,95;-2,95;-2,46;-6,57;-34,18;-16,33;3,62;3,77;0,67;970,87
26.131;-0,95;-2,95;-2,46;-6,57;-34,18;-16,33;6,61;-0,36;-2,83;970,87
26.131;-0,95;-2,95;-2,46;0,43;-4,93;-11,74;6,61;-0,36;-2,83;970,87
26.131;-0,63;-0,46;-1,94;0,43;-4,93;-11,74;6,61;-0,36;-2,83;970,87
26.19;-0,63;-0,46;-1,94;0,43;-4,93;-11,74;6,18;-9,71;-6,26;970,87
26.191;-0,63;-0,46;-1,94;0,43;-4,93;-11,74;6,18;-9,71;-6,26;970,84
26.191;-0,63;-0,46;-1,94;3,38;-0,87;-3,82;6,18;-9,71;-6,26;970,84
26.21;-0,53;-0,45;-0,71;3,38;-0,87;-3,82;6,18;-9,71;-6,26;970,84
26.251;-0,53;-0,45;-0,71;3,38;-0,87;-3,82;0,7;-6,07;-5,27;970,84
26.251;-0,53;-0,45;-0,71;3,38;-0,87;-3,82;0,7;-6,07;-5,27;970,84
26.251;-0,53;-0,45;-0,71;-6;0,95;-7,63;0,7;-6,07;-5,27;970,84
26.312;-1,4;-0,5;-0,92;-6;0,95;-7,63;0,7;-6,07;-5,27;970,84
26.313;-1,4;-0,5;-0,92;-6;0,95;-7,63;-0,88;-3,15;-3,29;970,84
26.313;-1,4;-0,5;-0,92;-7,31;0,13;-5,2;-0,88;-3,15;-3,29;970,84
26.314;-1,48;-0,66;-0,5;-7,31;0,13;-5,2;-0,88;-3,15;-3,29;970,84
26.371;-1,48;-0,66;-0,5;-7,31;0,13;-5,2;-3,33;-6,66;-0,02;970,84
26.371;-1,48;-0,66;-0,5;-7,31;0,13;-5,2;-3,33;-6,66;-0,02;970,87
26.371;-1,48;-0,66;-0,5;-11,08;3,74;-4,3;-3,33;-6,66;-0,02;970,87
26.41;-1,89;-0,26;-0,31;-11,08;3,74;-4,3;-3,33;-6,66;-0,02;970,87
26.431;-1,89;-0,26;-0,31;-11,08;3,74;-4,3;-5,48;-1,71;3,53;970,87
26.432;-1,89;-0,26;-0,31;-12,18;-6,23;-5,89;-5,48;-1,71;3,53;970,87
26.432;-2,17;-1,01;-0,62;-12,18;-6,23;-5,89;-5,48;-1,71;3,53;970,87
26.491;-2,17;-1,01;-0,62;-12,18;-6,23;-5,89;-5,45;-0,69;7,98;970,87
26.492;-2,17;-1,01;-0,62;-12,18;-6,23;-5,89;-5,45;-0,69;7,98;970,91
26.492;-2,17;-1,01;-0,62;-8,25;-17,33;-12,78;-5,45;-0,69;7,98;970,91
26.509;-1,8;-1,55;-1,49;-8,25;-17,33;-12,78;-5,45;-0,69;7,98;970,91
26.55;-1,8;-1,55;-1,49;-8,25;-17,33;-12,78;-8,57;4,13;9,23;970,91
26.55;-1,8;-1,55;-1,49;-8,25;-17,33;-12,78;-8,57;4,13;9,23;970,91
26.551;-1,8;-1,55;-1,49;-1,75;-13,89;-8,68;-8,57;4,13;9,23;970,91
26.611;-0,94;-0,79;-1,05;-1,75;-13,89;-8,68;-8,57;4,13;9,23;970,91
26.612;-0,94;-0,79;-1,05;-1,75;-13,89;-8,68;2,54;-2,73;4,12;970,91
26.612;-0,94;-0,79;-1,05;-2,67;-15;-9,6;2,54;-2,73;4,12;970,91
26.612;0,45;-0,72;-1,07;-2,67;-15;-9,6;2,54;-2,73;4,12;970,91
26.671;0,45;-0,72;-1,07;-2,67;-15;-9,6;5,33;-7;1,81;970,91
26.672;0,45;-0,72;-1,07;-2,67;-15;-9,6;5,33;-7;1,81;970,91
26.672;0,45;-0,72;-1,07;14,13;-8,68;3,71;5,33;-7;1,81;970,91
26.71;0,87;-0,08;0,24;14,13;-8,68;3,71;5,33;-7;1,81;970,91
26.73;0,87;-0,08;0,24;14,13;-8,68;3,71;2,4;1,11;2,26;970,91
26.731;0,87;-0,08;0,24;4,62;-11,42;0,87;2,4;1,11;2,26;970,91
26.731;0;-0,33;-0,21;4,62;-11,42;0,87;2,4;1,11;2,26;970,91
26.79;0;-0,33;-0,21;4,62;-11,42;0,87;1,66;0,9;0,94;970,91
26.79;0;-0,33;-0,21;4,62;-11,42;0,87;1,66;0,9;0,94;970,92
26.79;0;-0,33;-0,21;5,47;-9,4;3,97;1,66;0,9;0,94;970,92
26.81;0,12;-0,15;0,01;5,47;-9,4;3,97;1,66;0,9;0,94;970,92
26.851;0,12;-0,15;0,01;5,47;-9,4;3,97;2,08;-0,82;0,4;970,92
26.852;0,12;-0,15;0,01;5,47;-9,4;3,97;2,08;-0,82;0,4;970,88
26.852;0,12;-0,15;0,01;4,95;-8,3;1,78;2,08;-0,82;0,4;970,88
26.911;0,08;-0,08;-0,3;4,95;-8,3;1,78;2,08;-0,82;0,4;970,88
26.912;0,08;-0,08;-0,3;4,95;-8,3;1,78;1,91;1,01;0,21;970,88
26.912;0,08;-0,08;-0,3;5,71;-26,6;-4,11;1,91;1,01;0,21;970,88
26.913;0,21;-2,02;-1,04;5,71;-26,6;-4,11;1,91;1,01;0,21;970,88
26.971;0,21;-2,02;-1,04;5,71;-26,6;-4,11;3,75;1,64;-0,25;970,88
26.972;0,21;-2,02;-1,04;5,71;-26,6;-4,11;3,75;1,64;-0,25;970,88
26.972;0,21;-2,02;-1,04;2,11;-48,89;-4,78;3,75;1,64;-0,25;970,88
27.011;-0,14;-4,58;-1,33;2,11;-48,89;-4,78;3,75;1,64;-0,25;970,88
27.032;-0,14;-4,58;-1,33;2,11;-48,89;-4,78;8,62;0,32;-3,96;970,88
27.032;-0,14;-4,58;-1,33;-2,57;-17,28;-16,7;8,62;0,32;-3,96;970,88
27.033;-0,69;-2,04;-2,57;-2,57;-17,28;-16,7;8,62;0,32;-3,96;970,88
27.09;-0,69;-2,04;-2,57;-2,57;-17,28;-16,7;9,78;-5,03;-4,83;970,88
27.09;-0,69;-2,04;-2,57;-2,57;-17,28;-16,7;9,78;-5,03;-4,83;970,83
27.09;-0,69;-2,04;-2,57;-8,26;5,13;-10,34;9,78;-5,03;-4,83;970,83
27.11;-1,39;-0,17;-1,52;-8,26;5,13;-10,34;9,78;-5,03;-4,83;970,83
27.15;-1,39;-0,17;-1,52;-8,26;5,13;-10,34;2,84;-7,71;-4,33;970,83
27.151;-1,39;-0,17;-1,52;-8,26;5,13;-10,34;2,84;-7,71;-4,33;970,84
27.151;-1,39;-0,17;-1,52;-3,62;4,51;-16,96;2,84;-7,71;-4,33;970,84
27.21;-0,96;-0,34;-1,82;-3,62;4,51;-16,96;2,84;-7,71;-4,33;970,84
27.211;-0,96;-0,34;-1,82;-3,62;4,51;-16,96;-2,49;-15,2;-0,97;970,84
27.212;-0,96;-0,34;-1,82;-4,44;-4,99;5,5;-2,49;-15,2;-0,97;970,84
27.212;-1,01;-1,33;0,72;-4,44;-4,99;5,5;-2,49;-15,2;-0,97;970,84
27.27;-1,01;-1,33;0,72;-4,44;-4,99;5,5;-4,32;-5,85;2,31;970,84
27.271;-1,01;-1,33;0,72;-4,44;-4,99;5,5;-4,32;-5,85;2,31;970,86
27.271;-1,01;-1,33;0,72;-12,92;3,58;-0,13;-4,32;-5,85;2,31;970,86
27.313;-2,03;-0,33;0,1;-12,92;3,58;-0,13;-4,32;-5,85;2,31;970,86
27.331;-2,03;-0,33;0,1;-12,92;3,58;-0,13;-3,11;-0,87;5,2;970,86
27.332;-2,03;-0,33;0,1;-9,9;-2,69;-8,71;-3,11;-0,87;5,2;970,86
27.332;-1,94;-0,65;-0,92;-9,9;-2,69;-8,71;-3,11;-0,87;5,2;970,86
27.392;-1,94;-0,65;-0,92;-9,9;-2,69;-8,71;-3,49;2,86;8,54;970,86
27.393;-1,94;-0,65;-0,92;-9,9;-2,69;-8,71;-3,49;2,86;8,54;970,91
27.393;-1,94;-0,65;-0,92;-4,16;-19,39;-6,92;-3,49;2,86;8,54;970,91
27.41;-1,38;-1,77;-0,9;-4,16;-19,39;-6,92;-3,49;2,86;8,54;970,91
27.451;-1,38;-1,77;-0,9;-4,16;-19,39;-6,92;-6,02;1,89;9,7;970,91
27.452;-1,38;-1,77;-0,9;-4,16;-19,39;-6,92;-6,02;1,89;9,7;970,88
27.453;-1,38;-1,77;-0,9;-2,17;-16,35;-17,44;-6,02;1,89;9,7;970,88
27.512;-0,96;-1,03;-1,98;-2,17;-16,35;-17,44;-6,02;1,89;9,7;970,88
27.513;-0,96;-1,03;-1,98;-2,17;-16,35;-17,44;2,66;-3,98;3,5;970,88
27.513;-0,96;-1,03;-1,98;6,86;-16,01;-8,48;2,66;-3,98;3,5;970,88
27.514;0,02;-0,91;-0,91;6,86;-16,01;-8,48;2,66;-3,98;3,5;970,88
27.573;0,02;-0,91;-0,91;6,86;-16,01;-8,48;4,06;-5,03;1,01;970,88
27.573;0,02;-0,91;-0,91;6,86;-16,01;-8,48;4,06;-5,03;1,01;970,86
27.573;0,02;-0,91;-0,91;15,04;-8,46;-2,89;4,06;-5,03;1,01;970,86
27.611;0,89;-0,11;-0,42;15,04;-8,46;-2,89;4,06;-5,03;1,01;970,86
27.632;0,89;-0,11;-0,42;15,04;-8,46;-2,89;3,9;0,72;1,99;970,86
27.633;0,89;-0,11;-0,42;7,96;-9,14;2,69;3,9;0,72;1,99;970,86
27.633;0,27;-0,16;-0,06;7,96;-9,14;2,69;3,9;0,72;1,99;970,86
27.69;0,27;-0,16;-0,06;7,96;-9,14;2,69;2,39;0,7;0,82;970,86
27.691;0,27;-0,16;-0,06;7,96;-9,14;2,69;2,39;0,7;0,82;970,91
27.691;0,27;-0,16;-0,06;7,54;-9,34;3,74;2,39;0,7;0,82;970,91
27.711;0,25;-0,21;-0,05;7,54;-9,34;3,74;2,39;0,7;0,82;970,91
27.75;0,25;-0,21;-0,05;7,54;-9,34;3,74;1,91;0,39;0,4;970,91
27.751;0,25;-0,21;-0,05;7,54;-9,34;3,74;1,91;0,39;0,4;970,9
27.751;0,25;-0,21;-0,05;5,54;-9,61;-0,72;1,91;0,39;0,4;970,9
27.811;0,1;-0,29;-0,63;5,54;-9,61;-0,72;1,91;0,39;0,4;970,9
27.812;0,1;-0,29;-0,63;5,54;-9,61;-0,72;2,12;1,39;0,16;970,9
27.812;0,1;-0,29;-0,63;6,6;-25,21;-3,45;2,12;1,39;0,16;970,9
27.812;0,22;-1,97;-1,01;6,6;-25,21;-3,45;2,12;1,39;0,16;970,9
27.871;0,22;-1,97;-1,01;6,6;-25,21;-3,45;2,74;0,14;-1,5;970,9
27.872;0,22;-1,97;-1,01;6,6;-25,21;-3,45;2,74;0,14;-1,5;970,85
27.872;0,22;-1,97;-1,01;-2,85;-49,8;-6,11;2,74;0,14;-1,5;970,85
27.91;-0,8;-4,78;-1,43;-2,85;-49,8;-6,11;2,74;0,14;-1,5;970,85
27.933;-0,8;-4,78;-1,43;-2,85;-49,8;-6,11;6,65;1,08;-5,89;970,85
27.933;-0,8;-4,78;-1,43;-12,47;-14,78;-15,66;6,65;1,08;-5,89;970,85
27.933;-1,83;-1,81;-2,37;-12,47;-14,78;-15,66;6,65;1,08;-5,89;970,85
27.99;-1,83;-1,81;-2,37;-12,47;-14,78;-15,66;7,4;-4,36;-6,7;970,85
27.991;-1,83;-1,81;-2,37;-12,47;-14,78;-15,66;7,4;-4,36;-6,7;970,85
27.991;-1,83;-1,81;-2,37;-6,8;9,02;-6,56;7,4;-4,36;-6,7;970,85
28.011;-1,33;0,26;-1,06;-6,8;9,02;-6,56;7,4;-4,36;-6,7;970,85
28.051;-1,33;0,26;-1,06;-6,8;9,02;-6,56;0,2;-7,55;-2,58;970,85
28.052;-1,33;0,26;-1,06;-6,8;9,02;-6,56;0,2;-7,55;-2,58;970,85
28.052;-1,33;0,26;-1,06;-3,83;1,96;-20,46;0,2;-7,55;-2,58;970,85
28.11;-1,13;-0,46;-2,23;-3,83;1,96;-20,46;0,2;-7,55;-2,58;970,85
28.111;-1,13;-0,46;-2,23;-3,83;1,96;-20,46;-3,05;-10,26;1,59;970,85
28.111;-1,13;-0,46;-2,23;-0,42;-10,11;-5,63;-3,05;-10,26;1,59;970,85
28.111;-0,85;-1,59;-0,39;-0,42;-10,11;-5,63;-3,05;-10,26;1,59;970,85
28.173;-0,85;-1,59;-0,39;-0,42;-10,11;-5,63;-6,26;-7,37;3,53;970,85
28.173;-0,85;-1,59;-0,39;-0,42;-10,11;-5,63;-6,26;-7,37;3,53;970,82
28.173;-0,85;-1,59;-0,39;-8,5;2,81;-1,48;-6,26;-7,37;3,53;970,82
28.212;-1,76;-0,13;0,06;-8,5;2,81;-1,48;-6,26;-7,37;3,53;970,82
28.23;-1,76;-0,13;0,06;-8,5;2,81;-1,48;-3,45;-1,46;5,28;970,82
28.231;-1,76;-0,13;0,06;-13,3;-3,69;-10,31;-3,45;-1,46;5,28;970,82
28.231;-2,36;-0,41;-1,01;-13,3;-3,69;-10,31;-3,45;-1,46;5,28;970,82
28.29;-2,36;-0,41;-1,01;-13,3;-3,69;-10,31;-5,02;3,94;8,96;970,82
28.291;-2,36;-0,41;-1,01;-13,3;-3,69;-10,31;-5,02;3,94;8,96;970,86
28.291;-2,36;-0,41;-1,01;-1,79;-18,51;-5,06;-5,02;3,94;8,96;970,86
28.312;-1,04;-1,38;-0,49;-1,79;-18,51;-5,06;-5,02;3,94;8,96;970,86
28.351;-1,04;-1,38;-0,49;-1,79;-18,51;-5,06;-5,55;-0,67;9,07;970,86
28.352;-1,04;-1,38;-0,49;-1,79;-18,51;-5,06;-5,55;-0,67;9,07;970,82
28.353;-1,04;-1,38;-0,49;0,9;-9,03;-13,59;-5,55;-0,67;9,07;970,82
28.411;-0,5;-0,13;-1,26;0,9;-9,03;-13,59;-5,55;-0,67;9,07;970,82
28.412;-0,5;-0,13;-1,26;0,9;-9,03;-13,59;2,58;-1,83;3;970,82
28.413;-0,5;-0,13;-1,26;5,8;-11,97;-7,24;2,58;-1,83;3;970,82
28.413;0,1;-0,36;-0,6;5,8;-11,97;-7,24;2,58;-1,83;3;970,82
28.472;0,1;-0,36;-0,6;5,8;-11,97;-7,24;4,19;-6,06;-0,28;970,82
28.472;0,1;-0,36;-0,6;5,8;-11,97;-7,24;4,19;-6,06;-0,28;970,84
28.473;0,1;-0,36;-0,6;9,62;-9,01;-0,78;4,19;-6,06;-0,28;970,84
28.511;0,5;-0,04;-0,03;9,62;-9,01;-0,78;4,19;-6,06;-0,28;970,84
28.531;0,5;-0,04;-0,03;9,62;-9,01;-0,78;2,64;-1,42;0,18;970,84
28.531;0,5;-0,04;-0,03;4;-12,56;-0,01;2,64;-1,42;0,18;970,84
28.531;-0,07;-0,41;-0,09;4;-12,56;-0,01;2,64;-1,42;0,18;970,84
28.591;-0,07;-0,41;-0,09;4;-12,56;-0,01;2,3;1,48;-0,21;970,84
28.591;-0,07;-0,41;-0,09;4;-12,56;-0,01;2,3;1,48;-0,21;970,85
28.592;-0,07;-0,41;-0,09;4,55;-10,85;-1,59;2,3;1,48;-0,21;970,85
28.611;-0,01;-0,26;-0,4;4,55;-10,85;-1,59;2,3;1,48;-0,21;970,85
28.652;-0,01;-0,26;-0,4;4,55;-10,85;-1,59;2,83;-0,34;0;970,85
28.653;-0,01;-0,26;-0,4;4,55;-10,85;-1,59;2,83;-0,34;0;970,85
28.653;-0,01;-0,26;-0,4;4,25;-10,75;-4,59;2,83;-0,34;0;970,85
28.712;-0,03;-0,3;-0,85;4,25;-10,75;-4,59;2,83;-0,34;0;970,85
28.713;-0,03;-0,3;-0,85;4,25;-10,75;-4,59;3,2;0,72;0,58;970,85
28.713;-0,03;-0,3;-0,85;6,2;-24,9;-7,79;3,2;0,72;0,58;970,85
28.713;0,25;-1,83;-1,38;6,2;-24,9;-7,79;3,2;0,72;0,58;970,85
28.77;0,25;-1,83;-1,38;6,2;-24,9;-7,79;4,17;4,45;0,12;970,85
28.771;0,25;-1,83;-1,38;6,2;-24,9;-7,79;4,17;4,45;0,12;970,81
28.771;0,25;-1,83;-1,38;3,57;-44,37;-8,71;4,17;4,45;0,12;970,81
28.81;0,16;-4,09;-1,77;3,57;-44,37;-8,71;4,17;4,45;0,12;970,81
28.831;0,16;-4,09;-1,77;3,57;-44,37;-8,71;8,5;4,33;-3,52;970,81
28.832;0,16;-4,09;-1,77;-7,43;-24,07;-14,33;8,5;4,33;-3,52;970,81
28.832;-0,88;-2,64;-2,44;-7,43;-24,07;-14,33;8,5;4,33;-3,52;970,81
28.89;-0,88;-2,64;-2,44;-7,43;-24,07;-14,33;11,53;-2,31;-4,27;970,81
28.891;-0,88;-2,64;-2,44;-7,43;-24,07;-14,33;11,53;-2,31;-4,27;970,79
28.891;-0,88;-2,64;-2,44;-13,36;9,71;-1,22;11,53;-2,31;-4,27;970,79
28.91;-1,67;0,34;-0,82;-13,36;9,71;-1,22;11,53;-2,31;-4,27;970,79
28.953;-1,67;0,34;-0,82;-13,36;9,71;-1,22;1,87;-6,83;-3,15;970,79
28.954;-1,67;0,34;-0,82;-13,36;9,71;-1,22;1,87;-6,83;-3,15;970,79
28.954;-1,67;0,34;-0,82;-1,84;0,96;1,76;1,87;-6,83;-3,15;970,79
29.011;-0,74;-0,59;-0,29;-1,84;0,96;1,76;1,87;-6,83;-3,15;970,79
29.012;-0,74;-0,59;-0,29;-1,84;0,96;1,76;-1,98;-9,16;-0,31;970,79
29.012;-0,74;-0,59;-0,29;2,21;-6,64;-14,37;-1,98;-9,16;-0,31;970,79
29.013;-0,56;-1,29;-1,59;2,21;-6,64;-14,37;-1,98;-9,16;-0,31;970,79
29.072;-0,56;-1,29;-1,59;2,21;-6,64;-14,37;-6,97;-14,76;2,3;970,79
29.072;-0,56;-1,29;-1,59;2,21;-6,64;-14,37;-6,97;-14,76;2,3;970,8
29.072;-0,56;-1,29;-1,59;-2,44;1,11;-4,14;-6,97;-14,76;2,3;970,8
29.113;-1,11;-0,35;-0,22;-2,44;1,11;-4,14;-6,97;-14,76;2,3;970,8
29.131;-1,11;-0,35;-0,22;-2,44;1,11;-4,14;-3,94;-5,11;5,73;970,8
29.131;-1,11;-0,35;-0,22;-8,41;-4,77;-8,38;-3,94;-5,11;5,73;970,8
29.131;-1,84;-0,58;-0,69;-8,41;-4,77;-8,38;-3,94;-5,11;5,73;970,8
29.191;-1,84;-0,58;-0,69;-8,41;-4,77;-8,38;-3,09;4,43;9,88;970,8
29.191;-1,84;-0,58;-0,69;-8,41;-4,77;-8,38;-3,09;4,43;9,88;970,87
29.191;-1,84;-0,58;-0,69;-2,02;-17,37;-6,1;-3,09;4,43;9,88;970,87
29.21;-1,09;-1,29;-0,64;-2,02;-17,37;-6,1;-3,09;4,43;9,88;970,87
29.25;-1,09;-1,29;-0,64;-2,02;-17,37;-6,1;-5,9;2,48;9,05;970,87
29.251;-1,09;-1,29;-0,64;-2,02;-17,37;-6,1;-5,9;2,48;9,05;970,87
29.251;-1,09;-1,29;-0,64;-0,18;-7,67;-14,64;-5,9;2,48;9,05;970,87
29.312;-0,67;-0,02;-1,54;-0,18;-7,67;-14,64;-5,9;2,48;9,05;970,87
29.313;-0,67;-0,02;-1,54;-0,18;-7,67;-14,64;3,34;-2,76;1,94;970,87
29.313;-0,67;-0,02;-1,54;6,46;-10,6;5,6;3,34;-2,76;1,94;970,87
29.314;0,05;-0,29;0,61;6,46;-10,6;5,6;3,34;-2,76;1,94;970,87
29.371;0,05;-0,29;0,61;6,46;-10,6;5,6;3,4;-5,27;0,29;970,87
29.372;0,05;-0,29;0,61;6,46;-10,6;5,6;3,4;-5,27;0,29;970,9
29.372;0,05;-0,29;0,61;17,08;-11,63;0,62;3,4;-5,27;0,29;970,9
29.41;1,19;-0,36;0,01;17,08;-11,63;0,62;3,4;-5,27;0,29;970,9
29.431;1,19;-0,36;0,01;17,08;-11,63;0,62;3,14;-0,79;1,25;970,9
29.432;1,19;-0,36;0,01;5,44;-11,3;5,25;3,14;-0,79;1,25;970,9
29.432;0,06;-0,33;0,25;5,44;-11,3;5,25;3,14;-0,79;1,25;970,9
29.49;0,06;-0,33;0,25;5,44;-11,3;5,25;3,39;2,46;-0,3;970,9
29.49;0,06;-0,33;0,25;5,44;-11,3;5,25;3,39;2,46;-0,3;970,92
29.49;0,06;-0,33;0,25;6,43;-9,16;4,49;3,39;2,46;-0,3;970,92
29.511;0,13;-0,2;0,04;6,43;-9,16;4,49;3,39;2,46;-0,3;970,92
29.55;0,13;-0,2;0,04;6,43;-9,16;4,49;3,5;-2,09;-1,39;970,92
29.551;0,13;-0,2;0,04;6,43;-9,16;4,49;3,5;-2,09;-1,39;970,92
29.551;0,13;-0,2;0,04;-3,65;-11,54;-23,83;3,5;-2,09;-1,39;970,92
29.615;-0,92;-0,54;-2,97;-3,65;-11,54;-23,83;3,5;-2,09;-1,39;970,92
29.617;-0,92;-0,54;-2,97;-3,65;-11,54;-23,83;0,84;2,48;1,1;970,92
29.617;-0,92;-0,54;-2,97;1,51;-24,58;-12,5;0,84;2,48;1,1;970,92
29.617;-0,34;-1,89;-1,88;1,51;-24,58;-12,5;0,84;2,48;1,1;970,92
29.67;-0,34;-1,89;-1,88;1,51;-24,58;-12,5;1,35;-3,83;-1,24;970,92
29.671;-0,34;-1,89;-1,88;1,51;-24,58;-12,5;1,35;-3,83;-1,24;970,87
29.671;-0,34;-1,89;-1,88;-3,25;-38,65;-6,45;1,35;-3,83;-1,24;970,87
29.711;-1;-3,62;-1,32;-3,25;-38,65;-6,45;1,35;-3,83;-1,24;970,87
29.73;-1;-3,62;-1,32;-3,25;-38,65;-6,45;7,74;-1,13;-5,84;970,87
29.732;-1;-3,62;-1,32;1,14;8,29;-8,33;7,74;-1,13;-5,84;970,87
29.732;-0,64;0,61;-1,46;1,14;8,29;-8,33;7,74;-1,13;-5,84;970,87
29.79;-0,64;0,61;-1,46;1,14;8,29;-8,33;4,02;-2,99;-5,79;970,87
29.791;-0,64;0,61;-1,46;1,14;8,29;-8,33;4,02;-2,99;-5,79;970,83
29.791;-0,64;0,61;-1,46;-5,39;3,35;-11,91;4,02;-2,99;-5,79;970,83
29.809;-1,32;-0,2;-1,55;-5,39;3,35;-11,91;4,02;-2,99;-5,79;970,83
29.85;-1,32;-0,2;-1,55;-5,39;3,35;-11,91;-0,6;-3,66;-3,33;970,83
29.851;-1,32;-0,2;-1,55;-5,39;3,35;-11,91;-0,6;-3,66;-3,33;970,83
29.851;-1,32;-0,2;-1,55;-5,34;1,24;-10,64;-0,6;-3,66;-3,33;970,83
29.91;-1,34;-0,47;-1,18;-5,34;1,24;-10,64;-0,6;-3,66;-3,33;970,83
29.911;-1,34;-0,47;-1,18;-5,34;1,24;-10,64;-3,35;-10,75;0,45;970,83
29.911;-1,34;-0,47;-1,18;-5,18;-6,72;-0,66;-3,35;-10,75;0,45;970,83
29.911;-1,33;-1,23;0,16;-5,18;-6,72;-0,66;-3,35;-10,75;0,45;970,83
29.97;-1,33;-1,23;0,16;-5,18;-6,72;-0,66;-6,12;-4,63;3,95;970,83
29.971;-1,33;-1,23;0,16;-5,18;-6,72;-0,66;-6,12;-4,63;3,95;970,86
29.971;-1,33;-1,23;0,16;-7,36;-1,39;-10,2;-6,12;-4,63;3,95;970,86
30.001;-1,69;-0,44;-0,89;-7,36;-1,39;-10,2;-6,12;-4,63;3,95;970,86
30.029;-1,69;-0,44;-0,89;-7,36;-1,39;-10,2;-4,74;0,57;6,83;970,86
30.003;-1,69;-0,44;-0,89;-9,5;-5,92;-18,49;-4,74;0,57;6,83;970,86
30.003;-1,96;-0,45;-1,97;-9,5;-5,92;-18,49;-4,74;0,57;6,83;970,86
30.091;-1,96;-0,45;-1,97;-9,5;-5,92;-18,49;-6,56;4,97;8,57;970,86
30.092;-1,96;-0,45;-1,97;-9,5;-5,92;-18,49;-6,56;4,97;8,57;970,84
30.092;-1,96;-0,45;-1,97;-1,82;-15,67;-4,54;-6,56;4,97;8,57;970,84
30.11;-0,94;-0,95;-0,56;-1,82;-15,67;-4,54;-6,56;4,97;8,57;970,84
30.151;-0,94;-0,95;-0,56;-1,82;-15,67;-4,54;-5,27;1,79;5,93;970,84
30.152;-0,94;-0,95;-0,56;-1,82;-15,67;-4,54;-5,27;1,79;5,93;970,84
30.152;-0,94;-0,95;-0,56;4,02;-9,17;-5,45;-5,27;1,79;5,93;970,84
30.209;-0,2;-0,14;-0,57;4,02;-9,17;-5,45;-5,27;1,79;5,93;970,84
30.21;-0,2;-0,14;-0,57;4,02;-9,17;-5,45;2,5;-7,18;1,29;970,84
30.21;-0,2;-0,14;-0,57;7,99;-6,39;-3,92;2,5;-7,18;1,29;970,84
30.211;0,25;0,17;-0,36;7,99;-6,39;-3,92;2,5;-7,18;1,29;970,84
30.272;0,25;0,17;-0,36;7,99;-6,39;-3,92;3,31;-3,8;0,98;970,84
30.273;0,25;0,17;-0,36;7,99;-6,39;-3,92;3,31;-3,8;0,98;970,85
30.273;0,25;0,17;-0,36;6,27;-9,56;3,22;3,31;-3,8;0,98;970,85
30.309;0,15;-0,1;0,31;6,27;-9,56;3,22;3,31;-3,8;0,98;970,85
30.33;0,15;-0,1;0,31;6,27;-9,56;3,22;1,89;1,35;0,88;970,85
30.331;0,15;-0,1;0,31;5,13;-8,72;3,65;1,89;1,35;0,88;970,85
30.332;0,07;-0,02;0,19;5,13;-8,72;3,65;1,89;1,35;0,88;970,85
30.39;0,07;-0,02;0,19;5,13;-8,72;3,65;2,79;-1,62;-0,14;970,85
30.39;0,07;-0,02;0,19;5,13;-8,72;3,65;2,79;-1,62;-0,14;970,86
30.391;0,07;-0,02;0,19;2,84;-14,1;-1,64;2,79;-1,62;-0,14;970,86
30.41;-0,21;-0,63;-0,47;2,84;-14,1;-1,64;2,79;-1,62;-0,14;970,86
30.449;-0,21;-0,63;-0,47;2,84;-14,1;-1,64;3,24;-0,18;-0,76;970,86
30.45;-0,21;-0,63;-0,47;2,84;-14,1;-1,64;3,24;-0,18;-0,76;970,86
30.45;-0,21;-0,63;-0,47;5,92;-14,69;-4,14;3,24;-0,18;-0,76;970,86
30.51;0,08;-0,78;-0,88;5,92;-14,69;-4,14;3,24;-0,18;-0,76;970,86
30.51;0,08;-0,78;-0,88;5,92;-14,69;-4,14;4,01;0,22;-0,12;970,86
30.51;0,08;-0,78;-0,88;1,7;-28,33;-5,45;4,01;0,22;-0,12;970,86
30.511;-0,34;-2,33;-1,2;1,7;-28,33;-5,45;4,01;0,22;-0,12;970,86
30.57;-0,34;-2,33;-1,2;1,7;-28,33;-5,45;4,59;1,58;-1,28;970,86
30.571;-0,34;-2,33;-1,2;1,7;-28,33;-5,45;4,59;1,58;-1,28;970,84
30.571;-0,34;-2,33;-1,2;-3,49;-34,01;-13,36;4,59;1,58;-1,28;970,84
30.61;-0,88;-3,19;-2,17;-3,49;-34,01;-13,36;4,59;1,58;-1,28;970,84
30.63;-0,88;-3,19;-2,17;-3,49;-34,01;-13,36;6,58;0,3;-3,72;970,84
30.631;-0,88;-3,19;-2,17;2,56;-0,74;0,8;6,58;0,3;-3,72;970,84
30.631;-0,46;-0,25;-0,59;2,56;-0,74;0,8;6,58;0,3;-3,72;970,84
30.692;-0,46;-0,25;-0,59;2,56;-0,74;0,8;3,18;-8,87;-6,67;970,84
30.692;-0,46;-0,25;-0,59;2,56;-0,74;0,8;3,18;-8,87;-6,67;970,84
30.693;-0,46;-0,25;-0,59;-7,1;7,99;-9,72;3,18;-8,87;-6,67;970,84
