time;gFx;gFy;gFz;ax;ay;az;wx;wy;wz;P
0.027;-0,29;0,36;0,95;-0,66;-0,23;0,52;0,11;-0,19;0,05;964,26
0.035;-0,24;0,35;0,92;-0,66;-0,23;0,52;0,11;-0,19;0,05;964,26
0.035;-0,20;0,35;0,94;-0,66;-0,23;0,52;0,11;-0,19;0,05;964,26
0.035;-0,20;0,37;0,98;-0,66;-0,23;0,52;0,11;-0,19;0,05;964,26
0.048;-0,20;0,37;0,98;-0,66;-0,23;0,52;0,14;0,08;-0,01;964,26
0.048;-0,20;0,37;0,98;0,18;-0,25;0,80;0,14;0,08;-0,01;964,26
0.096;-0,22;0,37;0,96;0,18;-0,25;0,80;0,14;0,08;-0,01;964,26
0.098;-0,23;0,37;0,97;0,18;-0,25;0,80;0,14;0,08;-0,01;964,26
0.098;-0,22;0,38;1,00;0,18;-0,25;0,80;0,14;0,08;-0,01;964,26
0.11;-0,22;0,38;1,00;0,18;-0,25;0,80;0,16;0,05;-0,16;964,26
0.11;-0,22;0,38;1,00;-0,00;-0,17;1,07;0,16;0,05;-0,16;964,26
0.128;-0,22;0,38;1,00;-0,00;-0,17;1,07;0,16;0,05;-0,16;964,26
0.156;-0,24;0,37;0,99;-0,00;-0,17;1,07;0,16;0,05;-0,16;964,26
0.156;-0,28;0,35;0,99;-0,00;-0,17;1,07;0,16;0,05;-0,16;964,26
0.156;-0,30;0,33;0,99;-0,00;-0,17;1,07;0,16;0,05;-0,16;964,26
0.168;-0,30;0,33;0,99;-0,00;-0,17;1,07;0,36;0,08;-0,24;964,26
0.168;-0,30;0,33;0,99;-0,70;-0,79;1,06;0,36;0,08;-0,24;964,26
0.216;-0,29;0,31;1,01;-0,70;-0,79;1,06;0,36;0,08;-0,24;964,26
0.216;-0,26;0,31;1,03;-0,70;-0,79;1,06;0,36;0,08;-0,24;964,26
0.217;-0,21;0,30;1,03;-0,70;-0,79;1,06;0,36;0,08;-0,24;964,26
0.228;-0,21;0,30;1,03;-0,70;-0,79;1,06;0,59;0,23;-0,49;964,26
0.228;-0,21;0,30;1,03;0,35;-1,26;1,55;0,59;0,23;-0,49;964,26
0.228;-0,21;0,30;1,03;0,35;-1,26;1,55;0,59;0,23;-0,49;964,28
0.278;-0,18;0,28;1,02;0,35;-1,26;1,55;0,59;0,23;-0,49;964,28
0.278;-0,13;0,26;0,96;0,35;-1,26;1,55;0,59;0,23;-0,49;964,28
0.278;-0,09;0,23;0,85;0,35;-1,26;1,55;0,59;0,23;-0,49;964,28
0.289;-0,09;0,23;0,85;0,35;-1,26;1,55;0,99;1,08;-1,32;964,28
0.289;-0,09;0,23;0,85;1,97;-2,17;0,06;0,99;1,08;-1,32;964,28
0.328;-0,09;0,23;0,85;1,97;-2,17;0,06;0,99;1,08;-1,32;964,27
0.336;-0,07;0,19;0,72;1,97;-2,17;0,06;0,99;1,08;-1,32;964,27
0.336;-0,03;0,17;0,62;1,97;-2,17;0,06;0,99;1,08;-1,32;964,27
0.336;-0,07;0,10;0,57;1,97;-2,17;0,06;0,99;1,08;-1,32;964,27
0.349;-0,07;0,10;0,57;1,97;-2,17;0,06;1,43;2,58;-2,87;964,27
0.349;-0,07;0,10;0,57;3,62;-3,54;-2,00;1,43;2,58;-2,87;964,27
0.394;-0,15;0,04;0,55;3,62;-3,54;-2,00;1,43;2,58;-2,87;964,27
0.395;-0,21;-0,00;0,48;3,62;-3,54;-2,00;1,43;2,58;-2,87;964,27
0.395;-0,21;-0,05;0,42;3,62;-3,54;-2,00;1,43;2,58;-2,87;964,27
0.409;-0,21;-0,05;0,42;3,62;-3,54;-2,00;2,17;2,09;-4,64;964,27
0.41;-0,21;-0,05;0,42;4,07;-4,59;-2,34;2,17;2,09;-4,64;964,27
0.429;-0,21;-0,05;0,42;4,07;-4,59;-2,34;2,17;2,09;-4,64;964,18
0.456;-0,25;-0,10;0,39;4,07;-4,59;-2,34;2,17;2,09;-4,64;964,18
0.456;-0,38;-0,13;0,34;4,07;-4,59;-2,34;2,17;2,09;-4,64;964,18
0.456;-0,63;-0,18;0,32;4,07;-4,59;-2,34;2,17;2,09;-4,64;964,18
0.469;-0,63;-0,18;0,32;4,07;-4,59;-2,34;2,49;2,83;-5,02;964,18
0.47;-0,63;-0,18;0,32;1,89;-4,53;-1,65;2,49;2,83;-5,02;964,18
0.518;-0,84;-0,17;0,30;1,89;-4,53;-1,65;2,49;2,83;-5,02;964,18
0.519;-0,81;-0,19;0,40;1,89;-4,53;-1,65;2,49;2,83;-5,02;964,18
0.519;-0,69;-0,25;0,42;1,89;-4,53;-1,65;2,49;2,83;-5,02;964,18
0.529;-0,69;-0,25;0,42;1,89;-4,53;-1,65;2,79;1,79;-5,55;964,18
0.529;-0,69;-0,25;0,42;2,42;-3,18;0,71;2,79;1,79;-5,55;964,18
0.529;-0,69;-0,25;0,42;2,42;-3,18;0,71;2,79;1,79;-5,55;964,18
0.577;-1,04;-0,37;0,31;2,42;-3,18;0,71;2,79;1,79;-5,55;964,18
0.577;-1,49;-0,44;0,27;2,42;-3,18;0,71;2,79;1,79;-5,55;964,18
0.578;-1,79;-0,42;0,29;2,42;-3,18;0,71;2,79;1,79;-5,55;964,18
0.589;-1,79;-0,42;0,29;2,42;-3,18;0,71;2,16;1,84;-4,99;964,18
0.589;-1,79;-0,42;0,29;-8,30;-2,19;0,31;2,16;1,84;-4,99;964,18
0.63;-1,79;-0,42;0,29;-8,30;-2,19;0,31;2,16;1,84;-4,99;964,21
0.637;-1,83;-0,35;0,28;-8,30;-2,19;0,31;2,16;1,84;-4,99;964,21
0.637;-1,74;-0,31;0,29;-8,30;-2,19;0,31;2,16;1,84;-4,99;964,21
0.638;-1,68;-0,31;0,23;-8,30;-2,19;0,31;2,16;1,84;-4,99;964,21
0.649;-1,68;-0,31;0,23;-8,30;-2,19;0,31;1,10;2,38;-3,06;964,21
0.65;-1,68;-0,31;0,23;-7,66;0,96;0,79;1,10;2,38;-3,06;964,21
0.695;-1,63;-0,34;0,09;-7,66;0,96;0,79;1,10;2,38;-3,06;964,21
0.696;-1,51;-0,34;0,02;-7,66;0,96;0,79;1,10;2,38;-3,06;964,21
0.696;-1,51;-0,37;0,08;-7,66;0,96;0,79;1,10;2,38;-3,06;964,21
0.709;-1,51;-0,37;0,08;-7,66;0,96;0,79;0,84;-0,21;-1,76;964,21
0.71;-1,51;-0,37;0,08;-6,54;1,58;-0,17;0,84;-0,21;-1,76;964,21
0.729;-1,51;-0,37;0,08;-6,54;1,58;-0,17;0,84;-0,21;-1,76;964,15
0.756;-1,31;-0,32;0,10;-6,54;1,58;-0,17;0,84;-0,21;-1,76;964,15
0.756;-1,14;-0,28;0,09;-6,54;1,58;-0,17;0,84;-0,21;-1,76;964,15
0.757;-1,08;-0,27;0,11;-6,54;1,58;-0,17;0,84;-0,21;-1,76;964,15
0.771;-1,08;-0,27;0,11;-6,54;1,58;-0,17;0,68;0,77;-0,63;964,15
0.771;-1,08;-0,27;0,11;-2,71;3,11;-0,24;0,68;0,77;-0,63;964,15
0.818;-0,99;-0,23;0,13;-2,71;3,11;-0,24;0,68;0,77;-0,63;964,15
0.819;-0,90;-0,17;0,13;-2,71;3,11;-0,24;0,68;0,77;-0,63;964,15
0.819;-0,84;-0,16;0,11;-2,71;3,11;-0,24;0,68;0,77;-0,63;964,15
0.829;-0,84;-0,16;0,11;-2,71;3,11;-0,24;0,13;2,07;0,30;964,15
0.83;-0,84;-0,16;0,11;-0,39;4,23;0,29;0,13;2,07;0,30;964,15
0.83;-0,84;-0,16;0,11;-0,39;4,23;0,29;0,13;2,07;0,30;964,14
0.877;-0,83;-0,19;0,08;-0,39;4,23;0,29;0,13;2,07;0,30;964,14
0.878;-0,80;-0,21;0,07;-0,39;4,23;0,29;0,13;2,07;0,30;964,14
0.878;-0,73;-0,21;0,10;-0,39;4,23;0,29;0,13;2,07;0,30;964,14
0.89;-0,73;-0,21;0,10;-0,39;4,23;0,29;-0,17;1,40;0,34;964,14
0.89;-0,73;-0,21;0,10;0,88;3,53;1,07;-0,17;1,40;0,34;964,14
0.93;-0,73;-0,21;0,10;0,88;3,53;1,07;-0,17;1,40;0,34;964,11
0.935;-0,62;-0,23;0,12;0,88;3,53;1,07;-0,17;1,40;0,34;964,11
0.936;-0,54;-0,32;0,16;0,88;3,53;1,07;-0,17;1,40;0,34;964,11
0.936;-0,49;-0,45;0,19;0,88;3,53;1,07;-0,17;1,40;0,34;964,11
0.95;-0,49;-0,45;0,19;0,88;3,53;1,07;-0,13;1,74;-0,60;964,11
0.951;-0,49;-0,45;0,19;3,24;1,08;2,84;-0,13;1,74;-0,60;964,11
0.995;-0,47;-0,59;0,15;3,24;1,08;2,84;-0,13;1,74;-0,60;964,11
0.996;-0,51;-0,73;0,06;3,24;1,08;2,84;-0,13;1,74;-0,60;964,11
0.996;-0,51;-0,81;0,01;3,24;1,08;2,84;-0,13;1,74;-0,60;964,11
1.01;-0,51;-0,81;0,01;3,24;1,08;2,84;0,48;0,83;-2,26;964,11
1.01;-0,51;-0,81;0,01;2,42;-1,81;1,76;0,48;0,83;-2,26;964,11
1.028;-0,51;-0,81;0,01;2,42;-1,81;1,76;0,48;0,83;-2,26;964,12
1.056;-0,51;-0,97;-0,08;2,42;-1,81;1,76;0,48;0,83;-2,26;964,12
1.056;-0,57;-1,06;-0,25;2,42;-1,81;1,76;0,48;0,83;-2,26;964,12
1.057;-0,61;-1,02;-0,41;2,42;-1,81;1,76;0,48;0,83;-2,26;964,12
1.07;-0,61;-1,02;-0,41;2,42;-1,81;1,76;0,16;1,62;-2,73;964,12
1.071;-0,61;-1,02;-0,41;0,37;-2,70;-2,21;0,16;1,62;-2,73;964,12
1.117;-0,60;-1,06;-0,42;0,37;-2,70;-2,21;0,16;1,62;-2,73;964,12
1.118;-0,55;-0,99;-0,38;0,37;-2,70;-2,21;0,16;1,62;-2,73;964,12
1.118;-0,45;-0,90;-0,31;0,37;-2,70;-2,21;0,16;1,62;-2,73;964,12
1.13;-0,45;-0,90;-0,31;0,37;-2,70;-2,21;-0,26;0,06;-2,38;964,12
1.13;-0,45;-0,90;-0,31;0,52;-0,63;-0,84;-0,26;0,06;-2,38;964,12
1.13;-0,45;-0,90;-0,31;0,52;-0,63;-0,84;-0,26;0,06;-2,38;964,13
1.178;-0,37;-0,82;-0,29;0,52;-0,63;-0,84;-0,26;0,06;-2,38;964,13
1.178;-0,38;-0,76;-0,28;0,52;-0,63;-0,84;-0,26;0,06;-2,38;964,13
1.179;-0,56;-0,73;-0,25;0,52;-0,63;-0,84;-0,26;0,06;-2,38;964,13
1.188;-0,56;-0,73;-0,25;0,52;-0,63;-0,84;-0,31;0,07;-1,01;964,13
1.189;-0,56;-0,73;-0,25;-1,49;1,52;-0,09;-0,31;0,07;-1,01;964,13
1.23;-0,56;-0,73;-0,25;-1,49;1,52;-0,09;-0,31;0,07;-1,01;964,16
1.236;-0,82;-0,75;-0,31;-1,49;1,52;-0,09;-0,31;0,07;-1,01;964,16
1.237;-0,86;-0,66;-0,33;-1,49;1,52;-0,09;-0,31;0,07;-1,01;964,16
1.237;-0,75;-0,50;-0,29;-1,49;1,52;-0,09;-0,31;0,07;-1,01;964,16
1.249;-0,75;-0,50;-0,29;-1,49;1,52;-0,09;-0,34;-0,84;0,27;964,16
1.25;-0,75;-0,50;-0,29;-3,57;3,80;-0,33;-0,34;-0,84;0,27;964,16
1.295;-0,85;-0,35;-0,27;-3,57;3,80;-0,33;-0,34;-0,84;0,27;964,16
1.296;-0,98;-0,26;-0,30;-3,57;3,80;-0,33;-0,34;-0,84;0,27;964,16
1.296;-1,13;-0,22;-0,34;-3,57;3,80;-0,33;-0,34;-0,84;0,27;964,16
1.309;-1,13;-0,22;-0,34;-3,57;3,80;-0,33;0,06;-0,98;1,49;964,16
1.31;-1,13;-0,22;-0,34;-6,66;6,26;-1,11;0,06;-0,98;1,49;964,16
1.328;-1,13;-0,22;-0,34;-6,66;6,26;-1,11;0,06;-0,98;1,49;964,20
1.356;-1,22;-0,23;-0,29;-6,66;6,26;-1,11;0,06;-0,98;1,49;964,20
1.357;-1,31;-0,30;-0,26;-6,66;6,26;-1,11;0,06;-0,98;1,49;964,20
1.357;-1,32;-0,33;-0,26;-6,66;6,26;-1,11;0,06;-0,98;1,49;964,20
1.368;-1,32;-0,33;-0,26;-6,66;6,26;-1,11;0,34;-0,32;2,72;964,20
1.369;-1,32;-0,33;-0,26;-7,44;4,60;-0,47;0,34;-0,32;2,72;964,20
1.417;-1,25;-0,33;-0,29;-7,44;4,60;-0,47;0,34;-0,32;2,72;964,20
1.418;-1,30;-0,33;-0,30;-7,44;4,60;-0,47;0,34;-0,32;2,72;964,20
1.418;-1,36;-0,39;-0,23;-7,44;4,60;-0,47;0,34;-0,32;2,72;964,20
1.43;-1,36;-0,39;-0,23;-7,44;4,60;-0,47;0,59;-0,85;3,34;964,20
1.431;-1,36;-0,39;-0,23;-6,39;3,02;-0,72;0,59;-0,85;3,34;964,20
1.431;-1,36;-0,39;-0,23;-6,39;3,02;-0,72;0,59;-0,85;3,34;964,21
1.476;-1,42;-0,44;-0,12;-6,39;3,02;-0,72;0,59;-0,85;3,34;964,21
1.477;-1,29;-0,42;-0,06;-6,39;3,02;-0,72;0,59;-0,85;3,34;964,21
1.477;-1,41;-0,41;-0,10;-6,39;3,02;-0,72;0,59;-0,85;3,34;964,21
1.491;-1,41;-0,41;-0,10;-6,39;3,02;-0,72;0,74;-1,01;3,58;964,21
1.492;-1,41;-0,41;-0,10;-5,58;1,20;0,02;0,74;-1,01;3,58;964,21
1.529;-1,41;-0,41;-0,10;-5,58;1,20;0,02;0,74;-1,01;3,58;964,25
1.537;-1,48;-0,38;-0,15;-5,58;1,20;0,02;0,74;-1,01;3,58;964,25
1.537;-1,59;-0,37;-0,15;-5,58;1,20;0,02;0,74;-1,01;3,58;964,25
1.538;-1,68;-0,36;-0,06;-5,58;1,20;0,02;0,74;-1,01;3,58;964,25
1.549;-1,68;-0,36;-0,06;-5,58;1,20;0,02;1,01;-1,52;3,62;964,25
1.55;-1,68;-0,36;-0,06;-7,30;-0,17;-0,57;1,01;-1,52;3,62;964,25
1.596;-1,80;-0,37;0,08;-7,30;-0,17;-0,57;1,01;-1,52;3,62;964,25
1.598;-1,95;-0,40;0,02;-7,30;-0,17;-0,57;1,01;-1,52;3,62;964,25
1.599;-2,05;-0,42;0,05;-7,30;-0,17;-0,57;1,01;-1,52;3,62;964,25
1.61;-2,05;-0,42;0,05;-7,30;-0,17;-0,57;1,70;-0,62;4,53;964,25
1.611;-2,05;-0,42;0,05;-10,37;-3,07;-0,18;1,70;-0,62;4,53;964,25
1.627;-2,05;-0,42;0,05;-10,37;-3,07;-0,18;1,70;-0,62;4,53;964,25
1.655;-2,25;-0,48;0,09;-10,37;-3,07;-0,18;1,70;-0,62;4,53;964,25
1.656;-2,36;-0,53;0,01;-10,37;-3,07;-0,18;1,70;-0,62;4,53;964,25
1.657;-2,31;-0,51;-0,03;-10,37;-3,07;-0,18;1,70;-0,62;4,53;964,25
1.67;-2,31;-0,51;-0,03;-10,37;-3,07;-0,18;1,30;-0,18;4,44;964,25
1.671;-2,31;-0,51;-0,03;-12,99;-6,68;-1,24;1,30;-0,18;4,44;964,25
1.716;-2,23;-0,50;0,04;-12,99;-6,68;-1,24;1,30;-0,18;4,44;964,25
1.717;-1,94;-0,43;0,03;-12,99;-6,68;-1,24;1,30;-0,18;4,44;964,25
1.717;-1,60;-0,29;-0,01;-12,99;-6,68;-1,24;1,30;-0,18;4,44;964,25
1.728;-1,60;-0,29;-0,01;-12,99;-6,68;-1,24;0,74;-0,76;2,66;964,25
1.729;-1,60;-0,29;-0,01;-6,77;-6,75;-1,06;0,74;-0,76;2,66;964,25
1.73;-1,60;-0,29;-0,01;-6,77;-6,75;-1,06;0,74;-0,76;2,66;964,27
1.777;-1,22;-0,23;0,01;-6,77;-6,75;-1,06;0,74;-0,76;2,66;964,27
1.778;-0,93;-0,15;-0,05;-6,77;-6,75;-1,06;0,74;-0,76;2,66;964,27
1.778;-0,69;-0,10;-0,11;-6,77;-6,75;-1,06;0,74;-0,76;2,66;964,27
1.788;-0,69;-0,10;-0,11;-6,77;-6,75;-1,06;0,43;-0,24;1,50;964,27
1.789;-0,69;-0,10;-0,11;1,58;-6,02;-2,21;0,43;-0,24;1,50;964,27
1.828;-0,69;-0,10;-0,11;1,58;-6,02;-2,21;0,43;-0,24;1,50;964,22
1.835;-0,51;-0,10;-0,13;1,58;-6,02;-2,21;0,43;-0,24;1,50;964,22
1.836;-0,27;-0,08;-0,16;1,58;-6,02;-2,21;0,43;-0,24;1,50;964,22
1.836;-0,09;-0,07;-0,15;1,58;-6,02;-2,21;0,43;-0,24;1,50;964,22
1.851;-0,09;-0,07;-0,15;1,58;-6,02;-2,21;0,23;0,32;1,21;964,22
1.851;-0,09;-0,07;-0,15;7,09;-6,35;-2,42;0,23;0,32;1,21;964,22
1.894;0,03;-0,05;-0,12;7,09;-6,35;-2,42;0,23;0,32;1,21;964,22
1.895;0,09;-0,06;-0,05;7,09;-6,35;-2,42;0,23;0,32;1,21;964,22
1.895;0,13;-0,11;-0,03;7,09;-6,35;-2,42;0,23;0,32;1,21;964,22
1.908;0,13;-0,11;-0,03;7,09;-6,35;-2,42;0,39;-0,48;0,40;964,22
1.909;0,13;-0,11;-0,03;8,86;-7,20;-1,12;0,39;-0,48;0,40;964,22
1.928;0,13;-0,11;-0,03;8,86;-7,20;-1,12;0,39;-0,48;0,40;964,19
1.954;0,14;-0,14;-0,03;8,86;-7,20;-1,12;0,39;-0,48;0,40;964,19
1.954;0,15;-0,17;-0,07;8,86;-7,20;-1,12;0,39;-0,48;0,40;964,19
1.955;0,13;-0,17;-0,15;8,86;-7,20;-1,12;0,39;-0,48;0,40;964,19
1.967;0,13;-0,17;-0,15;8,86;-7,20;-1,12;0,19;0,37;-0,23;964,19
1.968;0,13;-0,17;-0,15;8,83;-7,81;-2,29;0,19;0,37;-0,23;964,19
2.018;0,10;-0,17;-0,15;8,83;-7,81;-2,29;0,19;0,37;-0,23;964,19
2.019;0,10;-0,22;-0,11;8,83;-7,81;-2,29;0,19;0,37;-0,23;964,19
2.019;0,11;-0,26;-0,07;8,83;-7,81;-2,29;0,19;0,37;-0,23;964,19
2.027;0,11;-0,26;-0,07;8,83;-7,81;-2,29;0,35;1,33;-0,74;964,19
2.027;0,11;-0,26;-0,07;8,83;-8,58;-1,10;0,35;1,33;-0,74;964,19
2.028;0,11;-0,26;-0,07;8,83;-8,58;-1,10;0,35;1,33;-0,74;964,17
2.075;0,12;-0,28;-0,06;8,83;-8,58;-1,10;0,35;1,33;-0,74;964,17
2.075;0,10;-0,23;-0,08;8,83;-8,58;-1,10;0,35;1,33;-0,74;964,17
2.076;0,05;-0,18;-0,12;8,83;-8,58;-1,10;0,35;1,33;-0,74;964,17
2.088;0,05;-0,18;-0,12;8,83;-8,58;-1,10;0,68;1,21;-1,40;964,17
2.089;0,05;-0,18;-0,12;8,59;-7,33;-0,72;0,68;1,21;-1,40;964,17
2.128;0,05;-0,18;-0,12;8,59;-7,33;-0,72;0,68;1,21;-1,40;964,16
2.139;-0,07;-0,09;-0,19;8,59;-7,33;-0,72;0,68;1,21;-1,40;964,16
2.14;-0,22;0,04;-0,28;8,59;-7,33;-0,72;0,68;1,21;-1,40;964,16
2.14;-0,36;0,22;-0,27;8,59;-7,33;-0,72;0,68;1,21;-1,40;964,16
2.148;-0,36;0,22;-0,27;8,59;-7,33;-0,72;0,39;0,81;-2,57;964,16
2.149;-0,36;0,22;-0,27;5,00;-2,48;-1,54;0,39;0,81;-2,57;964,16
2.195;-0,76;0,34;-0,18;5,00;-2,48;-1,54;0,39;0,81;-2,57;964,16
2.196;-1,35;0,16;-0,12;5,00;-2,48;-1,54;0,39;0,81;-2,57;964,16
2.196;-1,42;0,20;-0,26;5,00;-2,48;-1,54;0,39;0,81;-2,57;964,16
2.208;-1,42;0,20;-0,26;5,00;-2,48;-1,54;0,56;0,48;-5,27;964,16
2.209;-1,42;0,20;-0,26;-4,55;-0,64;-0,91;0,56;0,48;-5,27;964,16
2.227;-1,42;0,20;-0,26;-4,55;-0,64;-0,91;0,56;0,48;-5,27;964,27
2.255;-1,24;0,04;-0,27;-4,55;-0,64;-0,91;0,56;0,48;-5,27;964,27
2.256;-1,32;-0,36;-0,22;-4,55;-0,64;-0,91;0,56;0,48;-5,27;964,27
2.256;-1,91;-0,81;-0,27;-4,55;-0,64;-0,91;0,56;0,48;-5,27;964,27
2.267;-1,91;-0,81;-0,27;-4,55;-0,64;-0,91;0,31;0,27;-7,48;964,27
2.268;-1,91;-0,81;-0,27;-9,13;-6,70;-0,93;0,31;0,27;-7,48;964,27
2.315;-2,39;-1,25;-0,49;-9,13;-6,70;-0,93;0,31;0,27;-7,48;964,27
2.316;-2,18;-1,36;-0,88;-9,13;-6,70;-0,93;0,31;0,27;-7,48;964,27
2.316;-1,65;-1,55;-0,75;-9,13;-6,70;-0,93;0,31;0,27;-7,48;964,27
2.328;-1,65;-1,55;-0,75;-9,13;-6,70;-0,93;-0,32;1,17;-6,50;964,27
2.329;-1,65;-1,55;-0,75;-8,13;-10,05;-4,91;-0,32;1,17;-6,50;964,27
2.329;-1,65;-1,55;-0,75;-8,13;-10,05;-4,91;-0,32;1,17;-6,50;964,32
2.375;-1,60;-1,74;-0,71;-8,13;-10,05;-4,91;-0,32;1,17;-6,50;964,32
2.376;-1,63;-1,81;-0,62;-8,13;-10,05;-4,91;-0,32;1,17;-6,50;964,32
2.376;-1,64;-2,07;-0,64;-8,13;-10,05;-4,91;-0,32;1,17;-6,50;964,32
2.388;-1,64;-2,07;-0,64;-8,13;-10,05;-4,91;-1,02;-0,11;-3,76;964,32
2.389;-1,64;-2,07;-0,64;-9,99;-13,01;-3,70;-1,02;-0,11;-3,76;964,32
2.428;-1,64;-2,07;-0,64;-9,99;-13,01;-3,70;-1,02;-0,11;-3,76;964,30
2.436;-1,69;-2,25;-0,52;-9,99;-13,01;-3,70;-1,02;-0,11;-3,76;964,30
2.437;-1,64;-2,06;-0,42;-9,99;-13,01;-3,70;-1,02;-0,11;-3,76;964,30
2.437;-1,56;-1,62;-0,36;-9,99;-13,01;-3,70;-1,02;-0,11;-3,76;964,30
2.449;-1,56;-1,62;-0,36;-9,99;-13,01;-3,70;-0,74;-2,93;-2,49;964,30
2.449;-1,56;-1,62;-0,36;-10,54;-7,78;-0,67;-0,74;-2,93;-2,49;964,30
2.497;-1,51;-1,26;-0,29;-10,54;-7,78;-0,67;-0,74;-2,93;-2,49;964,30
2.498;-1,32;-0,94;-0,23;-10,54;-7,78;-0,67;-0,74;-2,93;-2,49;964,30
2.498;-1,20;-0,69;-0,18;-10,54;-7,78;-0,67;-0,74;-2,93;-2,49;964,30
2.508;-1,20;-0,69;-0,18;-10,54;-7,78;-0,67;-0,34;-1,16;-1,30;964,30
2.508;-1,20;-0,69;-0,18;-7,66;1,82;0,66;-0,34;-1,16;-1,30;964,30
2.528;-1,20;-0,69;-0,18;-7,66;1,82;0,66;-0,34;-1,16;-1,30;964,29
2.555;-1,10;-0,47;-0,14;-7,66;1,82;0,66;-0,34;-1,16;-1,30;964,29
2.556;-0,98;-0,35;-0,18;-7,66;1,82;0,66;-0,34;-1,16;-1,30;964,29
2.556;-0,79;-0,21;-0,18;-7,66;1,82;0,66;-0,34;-1,16;-1,30;964,29
2.568;-0,79;-0,21;-0,18;-7,66;1,82;0,66;-0,01;-1,54;-0,63;964,29
2.569;-0,79;-0,21;-0,18;-3,95;6,66;0,52;-0,01;-1,54;-0,63;964,29
2.614;-0,60;-0,08;-0,17;-3,95;6,66;0,52;-0,01;-1,54;-0,63;964,29
2.615;-0,44;0,07;-0,14;-3,95;6,66;0,52;-0,01;-1,54;-0,63;964,29
2.616;-0,37;0,12;-0,14;-3,95;6,66;0,52;-0,01;-1,54;-0,63;964,29
2.628;-0,37;0,12;-0,14;-3,95;6,66;0,52;0,28;-0,78;-0,29;964,29
2.628;-0,37;0,12;-0,14;0,08;10,01;0,53;0,28;-0,78;-0,29;964,29
2.629;-0,37;0,12;-0,14;0,08;10,01;0,53;0,28;-0,78;-0,29;964,22
2.677;-0,35;0,17;-0,14;0,08;10,01;0,53;0,28;-0,78;-0,29;964,22
2.677;-0,34;0,22;-0,14;0,08;10,01;0,53;0,28;-0,78;-0,29;964,22
2.677;-0,30;0,23;-0,16;0,08;10,01;0,53;0,28;-0,78;-0,29;964,22
2.69;-0,30;0,23;-0,16;0,08;10,01;0,53;0,30;0,28;0,28;964,22
2.691;-0,30;0,23;-0,16;0,82;11,18;0,13;0,30;0,28;0,28;964,22
2.727;-0,30;0,23;-0,16;0,82;11,18;0,13;0,30;0,28;0,28;964,20
2.735;-0,25;0,24;-0,18;0,82;11,18;0,13;0,30;0,28;0,28;964,20
2.736;-0,20;0,23;-0,13;0,82;11,18;0,13;0,30;0,28;0,28;964,20
2.736;-0,16;0,20;-0,04;0,82;11,18;0,13;0,30;0,28;0,28;964,20
2.747;-0,16;0,20;-0,04;0,82;11,18;0,13;0,11;0,03;0,69;964,20
2.748;-0,16;0,20;-0,04;2,41;10,78;1,25;0,11;0,03;0,69;964,20
2.795;-0,12;0,17;-0,00;2,41;10,78;1,25;0,11;0,03;0,69;964,20
2.796;-0,12;0,16;-0,05;2,41;10,78;1,25;0,11;0,03;0,69;964,20
2.796;-0,13;0,12;-0,12;2,41;10,78;1,25;0,11;0,03;0,69;964,20
2.807;-0,13;0,12;-0,12;2,41;10,78;1,25;-0,13;0,40;1,16;964,20
2.808;-0,13;0,12;-0,12;3,13;9,72;0,45;-0,13;0,40;1,16;964,20
2.827;-0,13;0,12;-0,12;3,13;9,72;0,45;-0,13;0,40;1,16;964,20
2.855;-0,20;0,04;-0,16;3,13;9,72;0,45;-0,13;0,40;1,16;964,20
2.856;-0,33;-0,12;-0,18;3,13;9,72;0,45;-0,13;0,40;1,16;964,20
2.856;-0,42;-0,29;-0,25;3,13;9,72;0,45;-0,13;0,40;1,16;964,20
2.869;-0,42;-0,29;-0,25;3,13;9,72;0,45;-0,37;0,09;1,41;964,20
2.87;-0,42;-0,29;-0,25;0,89;5,40;-0,59;-0,37;0,09;1,41;964,20
2.915;-0,66;-0,58;-0,28;0,89;5,40;-0,59;-0,37;0,09;1,41;964,20
2.917;-1,12;-0,71;-0,46;0,89;5,40;-0,59;-0,37;0,09;1,41;964,20
2.917;-1,45;-0,84;-0,60;0,89;5,40;-0,59;-0,37;0,09;1,41;964,20
2.927;-1,45;-0,84;-0,60;0,89;5,40;-0,59;-0,34;0,63;1,54;964,20
2.929;-1,45;-0,84;-0,60;-8,50;-0,49;-3,72;-0,34;0,63;1,54;964,20
2.929;-1,45;-0,84;-0,60;-8,50;-0,49;-3,72;-0,34;0,63;1,54;964,23
2.975;-1,52;-1,03;-0,61;-8,50;-0,49;-3,72;-0,34;0,63;1,54;964,23
2.976;-1,54;-0,97;-0,50;-8,50;-0,49;-3,72;-0,34;0,63;1,54;964,23
2.977;-1,86;-1,12;-0,32;-8,50;-0,49;-3,72;-0,34;0,63;1,54;964,23
2.987;-1,86;-1,12;-0,32;-8,50;-0,49;-3,72;0,28;0,28;2,13;964,23
2.987;-1,86;-1,12;-0,32;-11,83;-3,96;-0,76;0,28;0,28;2,13;964,23
3.027;-1,86;-1,12;-0,32;-11,83;-3,96;-0,76;0,28;0,28;2,13;964,29
3.036;-2,26;-1,31;-0,35;-11,83;-3,96;-0,76;0,28;0,28;2,13;964,29
3.037;-2,09;-1,25;-0,51;-11,83;-3,96;-0,76;0,28;0,28;2,13;964,29
3.038;-1,94;-1,11;-0,43;-11,83;-3,96;-0,76;0,28;0,28;2,13;964,29
3.047;-1,94;-1,11;-0,43;-11,83;-3,96;-0,76;0,42;0,65;3,56;964,29
3.047;-1,94;-1,11;-0,43;-11,68;-4,93;-1,67;0,42;0,65;3,56;964,29
3.095;-2,07;-1,12;-0,27;-11,68;-4,93;-1,67;0,42;0,65;3,56;964,29
3.096;-2,36;-1,29;-0,13;-11,68;-4,93;-1,67;0,42;0,65;3,56;964,29
3.096;-2,43;-1,27;-0,14;-11,68;-4,93;-1,67;0,42;0,65;3,56;964,29
3.107;-2,43;-1,27;-0,14;-11,68;-4,93;-1,67;0,64;1,48;4,99;964,29
3.108;-2,43;-1,27;-0,14;-15,26;-8,40;1,25;0,64;1,48;4,99;964,29
3.127;-2,43;-1,27;-0,14;-15,26;-8,40;1,25;0,64;1,48;4,99;964,29
3.155;-2,68;-1,37;-0,34;-15,26;-8,40;1,25;0,64;1,48;4,99;964,29
3.156;-2,79;-1,47;-0,54;-15,26;-8,40;1,25;0,64;1,48;4,99;964,29
3.156;-2,56;-1,42;-0,52;-15,26;-8,40;1,25;0,64;1,48;4,99;964,29
3.167;-2,56;-1,42;-0,52;-15,26;-8,40;1,25;0,09;-0,46;5,26;964,29
3.168;-2,56;-1,42;-0,52;-15,89;-12,62;-1,85;0,09;-0,46;5,26;964,29
3.214;-2,21;-1,16;-0,44;-15,89;-12,62;-1,85;0,09;-0,46;5,26;964,29
3.215;-1,85;-1,13;-0,34;-15,89;-12,62;-1,85;0,09;-0,46;5,26;964,29
3.215;-1,38;-1,14;-0,31;-15,89;-12,62;-1,85;0,09;-0,46;5,26;964,29
3.227;-1,38;-1,14;-0,31;-15,89;-12,62;-1,85;-0,20;-0,74;4,18;964,29
3.228;-1,38;-1,14;-0,31;-4,17;-12,67;-0,36;-0,20;-0,74;4,18;964,29
3.228;-1,38;-1,14;-0,31;-4,17;-12,67;-0,36;-0,20;-0,74;4,18;964,29
3.275;-0,82;-0,99;-0,37;-4,17;-12,67;-0,36;-0,20;-0,74;4,18;964,29
3.276;-0,46;-0,81;-0,35;-4,17;-12,67;-0,36;-0,20;-0,74;4,18;964,29
3.276;-0,19;-0,62;-0,39;-4,17;-12,67;-0,36;-0,20;-0,74;4,18;964,29
3.287;-0,19;-0,62;-0,39;-4,17;-12,67;-0,36;-0,70;-0,61;3,48;964,29
3.288;-0,19;-0,62;-0,39;6,95;-9,68;-1,53;-0,70;-0,61;3,48;964,29
3.327;-0,19;-0,62;-0,39;6,95;-9,68;-1,53;-0,70;-0,61;3,48;964,20
3.334;-0,10;-0,46;-0,31;6,95;-9,68;-1,53;-0,70;-0,61;3,48;964,20
3.335;-0,01;-0,55;-0,17;6,95;-9,68;-1,53;-0,70;-0,61;3,48;964,20
3.335;0,07;-0,64;-0,12;6,95;-9,68;-1,53;-0,70;-0,61;3,48;964,20
3.347;0,07;-0,64;-0,12;6,95;-9,68;-1,53;-0,88;-0,31;2,54;964,20
3.348;0,07;-0,64;-0,12;8,69;-11,59;0,59;-0,88;-0,31;2,54;964,20
3.394;0,09;-0,64;-0,16;8,69;-11,59;0,59;-0,88;-0,31;2,54;964,20
3.395;0,08;-0,59;-0,24;8,69;-11,59;0,59;-0,88;-0,31;2,54;964,20
3.395;0,13;-0,48;-0,24;8,69;-11,59;0,59;-0,88;-0,31;2,54;964,20
3.409;0,13;-0,48;-0,24;8,69;-11,59;0,59;-0,99;-0,57;1,49;964,20
3.409;0,13;-0,48;-0,24;8,64;-11,10;-1,12;-0,99;-0,57;1,49;964,20
3.426;0,13;-0,48;-0,24;8,64;-11,10;-1,12;-0,99;-0,57;1,49;964,17
3.454;0,14;-0,38;-0,20;8,64;-11,10;-1,12;-0,99;-0,57;1,49;964,17
3.455;0,18;-0,27;-0,08;8,64;-11,10;-1,12;-0,99;-0,57;1,49;964,17
3.456;0,21;-0,32;0,00;8,64;-11,10;-1,12;-0,99;-0,57;1,49;964,17
3.467;0,21;-0,32;0,00;8,64;-11,10;-1,12;-0,68;-0,03;0,43;964,17
3.468;0,21;-0,32;0,00;8,98;-10,01;0,73;-0,68;-0,03;0,43;964,17
3.514;0,23;-0,38;0,05;8,98;-10,01;0,73;-0,68;-0,03;0,43;964,17
3.514;0,18;-0,38;0,01;8,98;-10,01;0,73;-0,68;-0,03;0,43;964,17
3.515;0,09;-0,32;-0,05;8,98;-10,01;0,73;-0,68;-0,03;0,43;964,17
3.527;0,09;-0,32;-0,05;8,98;-10,01;0,73;-0,01;0,93;-0,60;964,17
3.528;0,09;-0,32;-0,05;7,87;-10,05;0,27;-0,01;0,93;-0,60;964,17
3.529;0,09;-0,32;-0,05;7,87;-10,05;0,27;-0,01;0,93;-0,60;964,16
3.574;0,00;-0,27;-0,06;7,87;-10,05;0,27;-0,01;0,93;-0,60;964,16
3.575;-0,02;-0,21;-0,02;7,87;-10,05;0,27;-0,01;0,93;-0,60;964,16
3.575;-0,03;-0,12;0,04;7,87;-10,05;0,27;-0,01;0,93;-0,60;964,16
3.588;-0,03;-0,12;0,04;7,87;-10,05;0,27;0,39;0,82;-1,27;964,16
3.588;-0,03;-0,12;0,04;7,00;-7,68;1,51;0,39;0,82;-1,27;964,16
3.626;-0,03;-0,12;0,04;7,00;-7,68;1,51;0,39;0,82;-1,27;964,16
3.634;-0,17;0,02;-0,03;7,00;-7,68;1,51;0,39;0,82;-1,27;964,16
3.635;-0,38;0,29;-0,25;7,00;-7,68;1,51;0,39;0,82;-1,27;964,16
3.635;-0,53;0,89;-0,52;7,00;-7,68;1,51;0,39;0,82;-1,27;964,16
3.646;-0,53;0,89;-0,52;7,00;-7,68;1,51;-0,34;0,27;-3,54;964,16
3.647;-0,53;0,89;-0,52;2,61;3,00;-3,47;-0,34;0,27;-3,54;964,16
3.694;-1,20;0,79;-0,22;2,61;3,00;-3,47;-0,34;0,27;-3,54;964,16
3.694;-1,93;0,62;-0,07;2,61;3,00;-3,47;-0,34;0,27;-3,54;964,16
3.695;-1,85;0,31;-0,27;2,61;3,00;-3,47;-0,34;0,27;-3,54;964,16
3.707;-1,85;0,31;-0,27;2,61;3,00;-3,47;0,06;0,83;-5,68;964,16
3.708;-1,85;0,31;-0,27;-9,02;-0,26;-0,90;0,06;0,83;-5,68;964,16
3.726;-1,85;0,31;-0,27;-9,02;-0,26;-0,90;0,06;0,83;-5,68;964,30
3.755;-1,39;0,11;-0,66;-9,02;-0,26;-0,90;0,06;0,83;-5,68;964,30
3.756;-1,46;-0,27;-0,84;-9,02;-0,26;-0,90;0,06;0,83;-5,68;964,30
3.757;-1,70;-0,60;-0,65;-9,02;-0,26;-0,90;0,06;0,83;-5,68;964,30
3.768;-1,70;-0,60;-0,65;-9,02;-0,26;-0,90;-0,52;1,51;-6,37;964,30
3.768;-1,70;-0,60;-0,65;-7,18;-5,79;-3,96;-0,52;1,51;-6,37;964,30
3.814;-1,69;-0,75;-0,56;-7,18;-5,79;-3,96;-0,52;1,51;-6,37;964,30
3.815;-1,25;-0,96;-0,47;-7,18;-5,79;-3,96;-0,52;1,51;-6,37;964,30
3.816;-0,92;-1,39;-0,14;-7,18;-5,79;-3,96;-0,52;1,51;-6,37;964,30
3.828;-0,92;-1,39;-0,14;-7,18;-5,79;-3,96;-1,25;-0,53;-6,67;964,30
3.829;-0,92;-1,39;-0,14;-0,36;-10,04;1,45;-1,25;-0,53;-6,67;964,30
3.829;-0,92;-1,39;-0,14;-0,36;-10,04;1,45;-1,25;-0,53;-6,67;964,32
3.874;-1,23;-1,75;-0,02;-0,36;-10,04;1,45;-1,25;-0,53;-6,67;964,32
3.876;-1,60;-1,98;0,08;-0,36;-10,04;1,45;-1,25;-0,53;-6,67;964,32
3.876;-1,44;-1,99;0,22;-0,36;-10,04;1,45;-1,25;-0,53;-6,67;964,32
3.889;-1,44;-1,99;0,22;-0,36;-10,04;1,45;-1,03;-3,02;-5,22;964,32
3.89;-1,44;-1,99;0,22;-6,82;-13,48;4,81;-1,03;-3,02;-5,22;964,32
3.926;-1,44;-1,99;0,22;-6,82;-13,48;4,81;-1,03;-3,02;-5,22;964,34
3.934;-1,34;-1,99;0,22;-6,82;-13,48;4,81;-1,03;-3,02;-5,22;964,34
3.934;-1,35;-2,22;0,24;-6,82;-13,48;4,81;-1,03;-3,02;-5,22;964,34
3.935;-1,73;-2,47;0,21;-6,82;-13,48;4,81;-1,03;-3,02;-5,22;964,34
3.946;-1,73;-2,47;0,21;-6,82;-13,48;4,81;-0,19;-2,24;-4,02;964,34
3.947;-1,73;-2,47;0,21;-11,27;-16,33;3,55;-0,19;-2,24;-4,02;964,34
3.994;-1,70;-2,18;-0,25;-11,27;-16,33;3,55;-0,19;-2,24;-4,02;964,34
3.994;-1,64;-1,63;-0,42;-11,27;-16,33;3,55;-0,19;-2,24;-4,02;964,34
3.994;-1,56;-0,99;-0,33;-11,27;-16,33;3,55;-0,19;-2,24;-4,02;964,34
4.007;-1,56;-0,99;-0,33;-11,27;-16,33;3,55;0,22;-3,02;-2,37;964,34
4.008;-1,56;-0,99;-0,33;-11,15;-0,92;-2,28;0,22;-3,02;-2,37;964,34
4.029;-1,56;-0,99;-0,33;-11,15;-0,92;-2,28;0,22;-3,02;-2,37;964,31
4.056;-1,35;-0,47;-0,20;-11,15;-0,92;-2,28;0,22;-3,02;-2,37;964,31
4.057;-1,08;-0,18;-0,10;-11,15;-0,92;-2,28;0,22;-3,02;-2,37;964,31
4.057;-0,88;-0,14;-0,08;-11,15;-0,92;-2,28;0,22;-3,02;-2,37;964,31
4.067;-0,88;-0,14;-0,08;-11,15;-0,92;-2,28;-0,04;-2,79;-1,17;964,31
4.067;-0,88;-0,14;-0,08;-5,32;7,90;-0,64;-0,04;-2,79;-1,17;964,31
4.116;-0,73;-0,07;-0,12;-5,32;7,90;-0,64;-0,04;-2,79;-1,17;964,31
4.118;-0,74;-0,08;-0,04;-5,32;7,90;-0,64;-0,04;-2,79;-1,17;964,31
4.118;-0,68;-0,09;0,01;-5,32;7,90;-0,64;-0,04;-2,79;-1,17;964,31
4.127;-0,68;-0,09;0,01;-5,32;7,90;-0,64;0,23;-2,35;-0,79;964,31
4.128;-0,68;-0,09;0,01;-3,86;8,55;-0,13;0,23;-2,35;-0,79;964,31
4.128;-0,68;-0,09;0,01;-3,86;8,55;-0,13;0,23;-2,35;-0,79;964,26
4.175;-0,54;-0,01;-0,07;-3,86;8,55;-0,13;0,23;-2,35;-0,79;964,26
4.176;-0,46;0,09;-0,11;-3,86;8,55;-0,13;0,23;-2,35;-0,79;964,26
4.177;-0,49;0,17;-0,15;-3,86;8,55;-0,13;0,23;-2,35;-0,79;964,26
4.187;-0,49;0,17;-0,15;-3,86;8,55;-0,13;0,80;-1,24;-0,35;964,26
4.187;-0,49;0,17;-0,15;-2,42;11,14;-2,27;0,80;-1,24;-0,35;964,26
4.226;-0,49;0,17;-0,15;-2,42;11,14;-2,27;0,80;-1,24;-0,35;964,24
4.235;-0,51;0,24;-0,17;-2,42;11,14;-2,27;0,80;-1,24;-0,35;964,24
4.236;-0,52;0,19;-0,15;-2,42;11,14;-2,27;0,80;-1,24;-0,35;964,24
4.237;-0,44;0,11;-0,13;-2,42;11,14;-2,27;0,80;-1,24;-0,35;964,24
4.247;-0,44;0,11;-0,13;-2,42;11,14;-2,27;1,05;-0,35;0,61;964,24
4.247;-0,44;0,11;-0,13;-2,03;10,48;-2,78;1,05;-0,35;0,61;964,24
4.294;-0,38;0,06;-0,17;-2,03;10,48;-2,78;1,05;-0,35;0,61;964,24
4.295;-0,39;-0,03;-0,32;-2,03;10,48;-2,78;1,05;-0,35;0,61;964,24
4.296;-0,45;-0,15;-0,46;-2,03;10,48;-2,78;1,05;-0,35;0,61;964,24
4.311;-0,45;-0,15;-0,46;-2,03;10,48;-2,78;0,79;0,22;1,59;964,24
4.312;-0,45;-0,15;-0,46;-1,43;7,71;-6,52;0,79;0,22;1,59;964,24
4.326;-0,45;-0,15;-0,46;-1,43;7,71;-6,52;0,79;0,22;1,59;964,19
4.355;-0,39;-0,32;-0,58;-1,43;7,71;-6,52;0,79;0,22;1,59;964,19
4.356;-0,28;-0,52;-0,65;-1,43;7,71;-6,52;0,79;0,22;1,59;964,19
4.356;-0,34;-0,72;-0,48;-1,43;7,71;-6,52;0,79;0,22;1,59;964,19
4.367;-0,34;-0,72;-0,48;-1,43;7,71;-6,52;-0,48;-1,04;2,29;964,19
4.368;-0,34;-0,72;-0,48;0,64;1,61;-6,98;-0,48;-1,04;2,29;964,19
4.414;-0,52;-0,84;-0,24;0,64;1,61;-6,98;-0,48;-1,04;2,29;964,19
4.415;-0,81;-1,01;-0,19;0,64;1,61;-6,98;-0,48;-1,04;2,29;964,19
4.415;-1,11;-1,31;-0,17;0,64;1,61;-6,98;-0,48;-1,04;2,29;964,19
4.427;-1,11;-1,31;-0,17;0,64;1,61;-6,98;-1,56;0,56;2,01;964,19
4.427;-1,11;-1,31;-0,17;-5,89;-4,56;-3,51;-1,56;0,56;2,01;964,19
4.428;-1,11;-1,31;-0,17;-5,89;-4,56;-3,51;-1,56;0,56;2,01;964,21
4.474;-1,13;-1,35;-0,40;-5,89;-4,56;-3,51;-1,56;0,56;2,01;964,21
4.475;-1,30;-1,31;-0,52;-5,89;-4,56;-3,51;-1,56;0,56;2,01;964,21
4.475;-1,32;-1,15;-0,34;-5,89;-4,56;-3,51;-1,56;0,56;2,01;964,21
4.487;-1,32;-1,15;-0,34;-5,89;-4,56;-3,51;-0,58;-2,04;2,16;964,21
4.487;-1,32;-1,15;-0,34;-7,10;-3,53;-4,90;-0,58;-2,04;2,16;964,21
4.526;-1,32;-1,15;-0,34;-7,10;-3,53;-4,90;-0,58;-2,04;2,16;964,24
4.534;-1,53;-0,97;-0,02;-7,10;-3,53;-4,90;-0,58;-2,04;2,16;964,24
4.534;-1,75;-0,88;0,02;-7,10;-3,53;-4,90;-0,58;-2,04;2,16;964,24
4.534;-1,77;-0,84;-0,21;-7,10;-3,53;-4,90;-0,58;-2,04;2,16;964,24
4.547;-1,77;-0,84;-0,21;-7,10;-3,53;-4,90;-0,61;0,30;3,45;964,24
4.547;-1,77;-0,84;-0,21;-10,52;-1,38;-3,77;-0,61;0,30;3,45;964,24
4.594;-1,61;-0,95;-0,47;-10,52;-1,38;-3,77;-0,61;0,30;3,45;964,24
4.595;-1,55;-1,15;-0,51;-10,52;-1,38;-3,77;-0,61;0,30;3,45;964,24
4.596;-2,07;-1,43;-0,35;-10,52;-1,38;-3,77;-0,61;0,30;3,45;964,24
4.613;-2,07;-1,43;-0,35;-10,52;-1,38;-3,77;-1,16;-0,23;4,58;964,24
4.613;-2,07;-1,43;-0,35;-11,93;-8,97;-4,54;-1,16;-0,23;4,58;964,24
4.628;-2,07;-1,43;-0,35;-11,93;-8,97;-4,54;-1,16;-0,23;4,58;964,25
4.654;-2,35;-1,57;-0,34;-11,93;-8,97;-4,54;-1,16;-0,23;4,58;964,25
4.656;-2,33;-1,61;-0,29;-11,93;-8,97;-4,54;-1,16;-0,23;4,58;964,25
4.657;-2,40;-1,66;-0,30;-11,93;-8,97;-4,54;-1,16;-0,23;4,58;964,25
4.668;-2,40;-1,66;-0,30;-11,93;-8,97;-4,54;-1,54;0,90;5,07;964,25
4.668;-2,40;-1,66;-0,30;-14,11;-13,74;-3,86;-1,54;0,90;5,07;964,25
4.716;-2,42;-1,64;-0,21;-14,11;-13,74;-3,86;-1,54;0,90;5,07;964,25
4.716;-2,14;-1,40;-0,15;-14,11;-13,74;-3,86;-1,54;0,90;5,07;964,25
4.717;-1,64;-1,12;-0,28;-14,11;-13,74;-3,86;-1,54;0,90;5,07;964,25
4.745;-1,64;-1,12;-0,28;-14,11;-13,74;-3,86;-1,97;-0,14;3,80;964,25
4.746;-1,64;-1,12;-0,28;-6,26;-10,92;-3,37;-1,97;-0,14;3,80;964,25
4.746;-1,64;-1,12;-0,28;-6,26;-10,92;-3,37;-1,97;-0,14;3,80;964,32
4.774;-1,23;-0,94;-0,25;-6,26;-10,92;-3,37;-1,97;-0,14;3,80;964,32
4.775;-0,86;-0,75;-0,22;-6,26;-10,92;-3,37;-1,97;-0,14;3,80;964,32
4.775;-0,47;-0,58;-0,21;-6,26;-10,92;-3,37;-1,97;-0,14;3,80;964,32
4.786;-0,47;-0,58;-0,21;-6,26;-10,92;-3,37;-2,29;0,56;3,03;964,32
4.787;-0,47;-0,58;-0,21;4,96;-7,64;-2,59;-2,29;0,56;3,03;964,32
4.827;-0,47;-0,58;-0,21;4,96;-7,64;-2,59;-2,29;0,56;3,03;964,23
4.834;-0,10;-0,42;-0,24;4,96;-7,64;-2,59;-2,29;0,56;3,03;964,23
4.834;0,09;-0,38;-0,16;4,96;-7,64;-2,59;-2,29;0,56;3,03;964,23
4.835;0,21;-0,29;-0,15;4,96;-7,64;-2,59;-2,29;0,56;3,03;964,23
4.846;0,21;-0,29;-0,15;4,96;-7,64;-2,59;-1,55;-0,25;2,10;964,23
4.847;0,21;-0,29;-0,15;11,21;-6,21;-2,29;-1,55;-0,25;2,10;964,23
4.894;0,21;-0,18;-0,16;11,21;-6,21;-2,29;-1,55;-0,25;2,10;964,23
4.895;0,11;-0,12;-0,11;11,21;-6,21;-2,29;-1,55;-0,25;2,10;964,23
4.896;0,04;-0,10;-0,02;11,21;-6,21;-2,29;-1,55;-0,25;2,10;964,23
4.912;0,04;-0,10;-0,02;11,21;-6,21;-2,29;-1,36;0,54;1,50;964,23
4.913;0,04;-0,10;-0,02;9,23;-5,20;-1,31;-1,36;0,54;1,50;964,23
4.929;0,04;-0,10;-0,02;9,23;-5,20;-1,31;-1,36;0,54;1,50;964,19
4.954;0,08;-0,14;0,06;9,23;-5,20;-1,31;-1,36;0,54;1,50;964,19
4.954;0,08;-0,19;0,09;9,23;-5,20;-1,31;-1,36;0,54;1,50;964,19
4.954;0,04;-0,24;0,06;9,23;-5,20;-1,31;-1,36;0,54;1,50;964,19
4.966;0,04;-0,24;0,06;9,23;-5,20;-1,31;-1,05;1,13;1,01;964,19
4.967;0,04;-0,24;0,06;8,93;-7,10;-0,42;-1,05;1,13;1,01;964,19
5.014;0,01;-0,29;0,04;8,93;-7,10;-0,42;-1,05;1,13;1,01;964,19
5.015;0,02;-0,32;-0,04;8,93;-7,10;-0,42;-1,05;1,13;1,01;964,19
5.015;-0,01;-0,32;-0,05;8,93;-7,10;-0,42;-1,05;1,13;1,01;964,19
5.03;-0,01;-0,32;-0,05;8,93;-7,10;-0,42;-1,10;1,12;0,63;964,19
5.03;-0,01;-0,32;-0,05;8,16;-8,34;-1,22;-1,10;1,12;0,63;964,19
5.03;-0,01;-0,32;-0,05;8,16;-8,34;-1,22;-1,10;1,12;0,63;964,21
5.074;-0,08;-0,28;-0,02;8,16;-8,34;-1,22;-1,10;1,12;0,63;964,21
5.075;-0,17;-0,29;0,02;8,16;-8,34;-1,22;-1,10;1,12;0,63;964,21
5.075;-0,24;-0,27;-0,03;8,16;-8,34;-1,22;-1,10;1,12;0,63;964,21
5.086;-0,24;-0,27;-0,03;8,16;-8,34;-1,22;-0,54;0,06;-0,49;964,21
5.086;-0,24;-0,27;-0,03;5,89;-7,88;-0,94;-0,54;0,06;-0,49;964,21
5.126;-0,24;-0,27;-0,03;5,89;-7,88;-0,94;-0,54;0,06;-0,49;964,20
5.134;-0,35;-0,09;-0,30;5,89;-7,88;-0,94;-0,54;0,06;-0,49;964,20
5.135;-0,59;0,15;-0,52;5,89;-7,88;-0,94;-0,54;0,06;-0,49;964,20
5.135;-0,97;0,14;-0,52;5,89;-7,88;-0,94;-0,54;0,06;-0,49;964,20
5.146;-0,97;0,14;-0,52;5,89;-7,88;-0,94;-1,17;0,23;-3,37;964,20
5.147;-0,97;0,14;-0,52;-0,78;-2,99;-5,97;-1,17;0,23;-3,37;964,20
5.194;-1,08;0,18;-0,27;-0,78;-2,99;-5,97;-1,17;0,23;-3,37;964,20
5.195;-1,32;0,08;0,10;-0,78;-2,99;-5,97;-1,17;0,23;-3,37;964,20
5.195;-1,67;-0,18;0,04;-0,78;-2,99;-5,97;-1,17;0,23;-3,37;964,20
5.208;-1,67;-0,18;0,04;-0,78;-2,99;-5,97;-1,33;2,33;-6,50;964,20
5.208;-1,67;-0,18;0,04;-6,72;-3,36;-0,05;-1,33;2,33;-6,50;964,20
5.231;-1,67;-0,18;0,04;-6,72;-3,36;-0,05;-1,33;2,33;-6,50;964,31
5.255;-1,85;-0,47;-0,25;-6,72;-3,36;-0,05;-1,33;2,33;-6,50;964,31
5.256;-1,98;-0,78;-0,41;-6,72;-3,36;-0,05;-1,33;2,33;-6,50;964,31
5.256;-1,62;-1,04;-0,18;-6,72;-3,36;-0,05;-1,33;2,33;-6,50;964,31
5.269;-1,62;-1,04;-0,18;-6,72;-3,36;-0,05;-1,18;2,07;-6,69;964,31
5.27;-1,62;-1,04;-0,18;-6,43;-7,86;-0,87;-1,18;2,07;-6,69;964,31
5.315;-1,54;-1,23;-0,13;-6,43;-7,86;-0,87;-1,18;2,07;-6,69;964,31
5.316;-1,62;-1,40;-0,41;-6,43;-7,86;-0,87;-1,18;2,07;-6,69;964,31
5.316;-2,20;-1,69;-0,71;-6,43;-7,86;-0,87;-1,18;2,07;-6,69;964,31
5.33;-2,20;-1,69;-0,71;-6,43;-7,86;-0,87;-1,54;-0,98;-4,57;964,31
5.331;-2,20;-1,69;-0,71;-13,52;-11,27;-4,99;-1,54;-0,98;-4,57;964,31
5.331;-2,20;-1,69;-0,71;-13,52;-11,27;-4,99;-1,54;-0,98;-4,57;964,30
5.374;-1,97;-1,77;-0,79;-13,52;-11,27;-4,99;-1,54;-0,98;-4,57;964,30
5.375;-1,85;-1,95;-0,50;-13,52;-11,27;-4,99;-1,54;-0,98;-4,57;964,30
5.376;-1,81;-2,12;-0,42;-13,52;-11,27;-4,99;-1,54;-0,98;-4,57;964,30
5.387;-1,81;-2,12;-0,42;-13,52;-11,27;-4,99;-1,76;-1,14;-3,23;964,30
5.388;-1,81;-2,12;-0,42;-10,90;-13,97;-2,36;-1,76;-1,14;-3,23;964,30
5.426;-1,81;-2,12;-0,42;-10,90;-13,97;-2,36;-1,76;-1,14;-3,23;964,33
5.434;-1,56;-1,91;-0,42;-10,90;-13,97;-2,36;-1,76;-1,14;-3,23;964,33
5.435;-1,51;-1,49;-0,52;-10,90;-13,97;-2,36;-1,76;-1,14;-3,23;964,33
5.436;-1,34;-1,04;-0,69;-10,90;-13,97;-2,36;-1,76;-1,14;-3,23;964,33
5.446;-1,34;-1,04;-0,69;-10,90;-13,97;-2,36;-0,86;-2,32;-3,16;964,33
5.447;-1,34;-1,04;-0,69;-7,61;-2,33;-4,85;-0,86;-2,32;-3,16;964,33
5.494;-1,25;-0,66;-0,54;-7,61;-2,33;-4,85;-0,86;-2,32;-3,16;964,33
5.495;-1,17;-0,29;-0,32;-7,61;-2,33;-4,85;-0,86;-2,32;-3,16;964,33
5.495;-1,11;0,01;-0,14;-7,61;-2,33;-4,85;-0,86;-2,32;-3,16;964,33
5.508;-1,11;0,01;-0,14;-7,61;-2,33;-4,85;-0,59;-1,13;-2,18;964,33
5.508;-1,11;0,01;-0,14;-6,48;8,66;0,32;-0,59;-1,13;-2,18;964,33
5.532;-1,11;0,01;-0,14;-6,48;8,66;0,32;-0,59;-1,13;-2,18;964,27
5.555;-1,04;0,17;-0,12;-6,48;8,66;0,32;-0,59;-1,13;-2,18;964,27
5.556;-0,92;0,25;-0,12;-6,48;8,66;0,32;-0,59;-1,13;-2,18;964,27
5.556;-0,73;0,26;-0,06;-6,48;8,66;0,32;-0,59;-1,13;-2,18;964,27
5.567;-0,73;0,26;-0,06;-6,48;8,66;0,32;-0,55;-2,11;-1,53;964,27
5.567;-0,73;0,26;-0,06;-3,61;11,55;1,13;-0,55;-2,11;-1,53;964,27
5.615;-0,47;0,27;-0,07;-3,61;11,55;1,13;-0,55;-2,11;-1,53;964,27
5.616;-0,41;0,23;0,03;-3,61;11,55;1,13;-0,55;-2,11;-1,53;964,27
5.617;-0,30;0,10;0,11;-3,61;11,55;1,13;-0,55;-2,11;-1,53;964,27
5.63;-0,30;0,10;0,11;-3,61;11,55;1,13;-0,83;-1,49;-0,77;964,27
5.63;-0,30;0,10;0,11;0,19;10,17;2,74;-0,83;-1,49;-0,77;964,27
5.631;-0,30;0,10;0,11;0,19;10,17;2,74;-0,83;-1,49;-0,77;964,21
5.674;-0,30;0,10;0,06;0,19;10,17;2,74;-0,83;-1,49;-0,77;964,21
5.677;-0,25;0,12;-0,02;0,19;10,17;2,74;-0,83;-1,49;-0,77;964,21
5.677;-0,18;0,11;-0,05;0,19;10,17;2,74;-0,83;-1,49;-0,77;964,21
5.686;-0,18;0,11;-0,05;0,19;10,17;2,74;-0,72;-1,66;0,08;964,21
5.687;-0,18;0,11;-0,05;1,27;10,20;1,37;-0,72;-1,66;0,08;964,21
5.726;-0,18;0,11;-0,05;1,27;10,20;1,37;-0,72;-1,66;0,08;964,18
5.734;-0,13;0,09;-0,09;1,27;10,20;1,37;-0,72;-1,66;0,08;964,18
5.734;-0,16;0,00;-0,19;1,27;10,20;1,37;-0,72;-1,66;0,08;964,18
5.735;-0,20;-0,11;-0,28;1,27;10,20;1,37;-0,72;-1,66;0,08;964,18
5.747;-0,20;-0,11;-0,28;1,27;10,20;1,37;-0,88;-1,67;0,65;964,18
5.748;-0,20;-0,11;-0,28;1,44;7,90;-0,87;-0,88;-1,67;0,65;964,18
5.794;-0,23;-0,17;-0,34;1,44;7,90;-0,87;-0,88;-1,67;0,65;964,18
5.794;-0,32;-0,24;-0,47;1,44;7,90;-0,87;-0,88;-1,67;0,65;964,18
5.795;-0,49;-0,41;-0,75;1,44;7,90;-0,87;-0,88;-1,67;0,65;964,18
5.806;-0,49;-0,41;-0,75;1,44;7,90;-0,87;-1,06;-0,48;1,45;964,18
5.807;-0,49;-0,41;-0,75;-0,67;4,56;-5,21;-1,06;-0,48;1,45;964,18
5.827;-0,49;-0,41;-0,75;-0,67;4,56;-5,21;-1,06;-0,48;1,45;964,15
5.854;-0,97;-0,48;-1,03;-0,67;4,56;-5,21;-1,06;-0,48;1,45;964,15
5.854;-1,56;-0,73;-1,03;-0,67;4,56;-5,21;-1,06;-0,48;1,45;964,15
5.855;-2,07;-1,01;-1,03;-0,67;4,56;-5,21;-1,06;-0,48;1,45;964,15
5.866;-2,07;-1,01;-1,03;-0,67;4,56;-5,21;-1,34;-0,50;1,36;964,15
5.867;-2,07;-1,01;-1,03;-15,59;-1,70;-7,44;-1,34;-0,50;1,36;964,15
5.914;-2,02;-0,86;-1,06;-15,59;-1,70;-7,44;-1,34;-0,50;1,36;964,15
5.915;-2,07;-0,68;-1,06;-15,59;-1,70;-7,44;-1,34;-0,50;1,36;964,15
5.915;-2,24;-0,55;-1,13;-15,59;-1,70;-7,44;-1,34;-0,50;1,36;964,15
5.932;-2,24;-0,55;-1,13;-15,59;-1,70;-7,44;-0,53;-1,32;2,77;964,15
5.933;-2,24;-0,55;-1,13;-16,18;2,06;-8,25;-0,53;-1,32;2,77;964,15
5.934;-2,24;-0,55;-1,13;-16,18;2,06;-8,25;-0,53;-1,32;2,77;964,24
5.974;-2,03;-0,30;-0,91;-16,18;2,06;-8,25;-0,53;-1,32;2,77;964,24
5.975;-1,88;-0,14;-0,62;-16,18;2,06;-8,25;-0,53;-1,32;2,77;964,24
5.976;-1,91;-0,30;-0,40;-16,18;2,06;-8,25;-0,53;-1,32;2,77;964,24
5.987;-1,91;-0,30;-0,40;-16,18;2,06;-8,25;-0,02;-0,56;5,06;964,24
5.988;-1,91;-0,30;-0,40;-11,39;3,00;-1,24;-0,02;-0,56;5,06;964,24
6.026;-1,91;-0,30;-0,40;-11,39;3,00;-1,24;-0,02;-0,56;5,06;964,25
6.034;-1,84;-0,50;-0,30;-11,39;3,00;-1,24;-0,02;-0,56;5,06;964,25
6.035;-1,97;-0,72;-0,28;-11,39;3,00;-1,24;-0,02;-0,56;5,06;964,25
6.035;-2,56;-1,12;-0,22;-11,39;3,00;-1,24;-0,02;-0,56;5,06;964,25
6.05;-2,56;-1,12;-0,22;-11,39;3,00;-1,24;0,45;-0,22;6,40;964,25
6.053;-2,56;-1,12;-0,22;-16,05;-7,92;0,24;0,45;-0,22;6,40;964,25
6.095;-3,07;-1,39;-0,28;-16,05;-7,92;0,24;0,45;-0,22;6,40;964,25
6.096;-2,97;-1,32;-0,10;-16,05;-7,92;0,24;0,45;-0,22;6,40;964,25
6.096;-2,79;-1,25;0,03;-16,05;-7,92;0,24;0,45;-0,22;6,40;964,25
6.107;-2,79;-1,25;0,03;-16,05;-7,92;0,24;0,57;-0,94;5,37;964,25
6.108;-2,79;-1,25;0,03;-17,76;-12,56;2,13;0,57;-0,94;5,37;964,25
6.126;-2,79;-1,25;0,03;-17,76;-12,56;2,13;0,57;-0,94;5,37;964,33
6.154;-2,52;-1,24;-0,17;-17,76;-12,56;2,13;0,57;-0,94;5,37;964,33
6.155;-1,94;-1,06;-0,21;-17,76;-12,56;2,13;0,57;-0,94;5,37;964,33
6.155;-1,28;-0,86;-0,17;-17,76;-12,56;2,13;0,57;-0,94;5,37;964,33
6.166;-1,28;-0,86;-0,17;-17,76;-12,56;2,13;-0,14;-1,29;3,88;964,33
6.167;-1,28;-0,86;-0,17;-3,32;-11,40;-0,32;-0,14;-1,29;3,88;964,33
6.214;-0,78;-0,68;-0,14;-3,32;-11,40;-0,32;-0,14;-1,29;3,88;964,33
6.215;-0,40;-0,58;-0,14;-3,32;-11,40;-0,32;-0,14;-1,29;3,88;964,33
6.216;-0,16;-0,53;-0,20;-3,32;-11,40;-0,32;-0,14;-1,29;3,88;964,33
6.227;-0,16;-0,53;-0,20;-3,32;-11,40;-0,32;0,02;-1,11;3,39;964,33
6.227;-0,16;-0,53;-0,20;6,93;-10,10;-1,39;0,02;-1,11;3,39;964,33
6.228;-0,16;-0,53;-0,20;6,93;-10,10;-1,39;0,02;-1,11;3,39;964,25
6.275;-0,09;-0,50;-0,25;6,93;-10,10;-1,39;0,02;-1,11;3,39;964,25
6.276;-0,07;-0,46;-0,22;6,93;-10,10;-1,39;0,02;-1,11;3,39;964,25
6.276;-0,03;-0,46;-0,15;6,93;-10,10;-1,39;0,02;-1,11;3,39;964,25
6.286;-0,03;-0,46;-0,15;6,93;-10,10;-1,39;0,06;-0,99;2,36;964,25
6.287;-0,03;-0,46;-0,15;7,22;-10,88;-1,31;0,06;-0,99;2,36;964,25
6.327;-0,03;-0,46;-0,15;7,22;-10,88;-1,31;0,06;-0,99;2,36;964,20
6.334;0,08;-0,46;-0,12;7,22;-10,88;-1,31;0,06;-0,99;2,36;964,20
6.334;0,20;-0,45;-0,23;7,22;-10,88;-1,31;0,06;-0,99;2,36;964,20
6.334;0,21;-0,40;-0,29;7,22;-10,88;-1,31;0,06;-0,99;2,36;964,20
6.349;0,21;-0,40;-0,29;7,22;-10,88;-1,31;-0,01;0,23;1,44;964,20
6.349;0,21;-0,40;-0,29;8,79;-11,04;-2,86;-0,01;0,23;1,44;964,20
6.394;0,20;-0,36;-0,23;8,79;-11,04;-2,86;-0,01;0,23;1,44;964,20
6.395;0,18;-0,36;-0,18;8,79;-11,04;-2,86;-0,01;0,23;1,44;964,20
6.396;0,19;-0,31;-0,17;8,79;-11,04;-2,86;-0,01;0,23;1,44;964,20
6.406;0,19;-0,31;-0,17;8,79;-11,04;-2,86;0,10;0,24;0,13;964,20
6.406;0,19;-0,31;-0,17;8,13;-10,55;-1,59;0,10;0,24;0,13;964,20
6.427;0,19;-0,31;-0,17;8,13;-10,55;-1,59;0,10;0,24;0,13;964,19
6.454;0,19;-0,30;-0,17;8,13;-10,55;-1,59;0,10;0,24;0,13;964,19
6.455;0,17;-0,27;-0,15;8,13;-10,55;-1,59;0,10;0,24;0,13;964,19
6.455;0,13;-0,25;-0,08;8,13;-10,55;-1,59;0,10;0,24;0,13;964,19
6.468;0,13;-0,25;-0,08;8,13;-10,55;-1,59;0,06;0,70;-0,97;964,19
6.468;0,13;-0,25;-0,08;7,71;-9,79;-0,55;0,06;0,70;-0,97;964,19
6.514;0,09;-0,19;-0,03;7,71;-9,79;-0,55;0,06;0,70;-0,97;964,19
6.515;0,06;-0,07;0,00;7,71;-9,79;-0,55;0,06;0,70;-0,97;964,19
6.515;0,01;0,08;-0,14;7,71;-9,79;-0,55;0,06;0,70;-0,97;964,19
6.527;0,01;0,08;-0,14;7,71;-9,79;-0,55;0,54;1,72;-1,77;964,19
6.528;0,01;0,08;-0,14;7,16;-5,98;-0,57;0,54;1,72;-1,77;964,19
6.528;0,01;0,08;-0,14;7,16;-5,98;-0,57;0,54;1,72;-1,77;964,20
6.574;-0,14;0,42;-0,26;7,16;-5,98;-0,57;0,54;1,72;-1,77;964,20
6.575;-0,34;0,95;-0,24;7,16;-5,98;-0,57;0,54;1,72;-1,77;964,20
6.575;-0,73;0,92;-0,07;7,16;-5,98;-0,57;0,54;1,72;-1,77;964,20
6.587;-0,73;0,92;-0,07;7,16;-5,98;-0,57;1,19;0,07;-4,72;964,20
6.588;-0,73;0,92;-0,07;0,74;3,40;0,90;1,19;0,07;-4,72;964,20
6.628;-0,73;0,92;-0,07;0,74;3,40;0,90;1,19;0,07;-4,72;964,30
6.634;-0,99;0,70;-0,22;0,74;3,40;0,90;1,19;0,07;-4,72;964,30
6.635;-1,01;0,65;-0,35;0,74;3,40;0,90;1,19;0,07;-4,72;964,30
6.635;-1,37;0,15;-0,29;0,74;3,40;0,90;1,19;0,07;-4,72;964,30
6.649;-1,37;0,15;-0,29;0,74;3,40;0,90;0,99;2,39;-7,64;964,30
6.65;-1,37;0,15;-0,29;-4,15;-0,96;-0,74;0,99;2,39;-7,64;964,30
6.694;-1,56;-0,33;-0,44;-4,15;-0,96;-0,74;0,99;2,39;-7,64;964,30
6.695;-1,51;-0,79;-0,84;-4,15;-0,96;-0,74;0,99;2,39;-7,64;964,30
6.696;-1,57;-1,20;-1,27;-4,15;-0,96;-0,74;0,99;2,39;-7,64;964,30
6.708;-1,57;-1,20;-1,27;-4,15;-0,96;-0,74;0,73;1,46;-8,30;964,30
6.709;-1,57;-1,20;-1,27;-6,46;-9,31;-9,10;0,73;1,46;-8,30;964,30
6.726;-1,57;-1,20;-1,27;-6,46;-9,31;-9,10;0,73;1,46;-8,30;964,31
6.754;-1,83;-1,63;-1,20;-6,46;-9,31;-9,10;0,73;1,46;-8,30;964,31
6.755;-1,55;-1,82;-1,05;-6,46;-9,31;-9,10;0,73;1,46;-8,30;964,31
6.755;-1,10;-2,06;-0,63;-6,46;-9,31;-9,10;0,73;1,46;-8,30;964,31
6.767;-1,10;-2,06;-0,63;-6,46;-9,31;-9,10;-0,58;0,18;-5,86;964,31
6.768;-1,10;-2,06;-0,63;-3,99;-14,36;-2,32;-0,58;0,18;-5,86;964,31
6.814;-1,18;-2,42;-0,34;-3,99;-14,36;-2,32;-0,58;0,18;-5,86;964,31
6.815;-1,77;-2,81;-0,70;-3,99;-14,36;-2,32;-0,58;0,18;-5,86;964,31
6.816;-1,84;-2,90;-0,87;-3,99;-14,36;-2,32;-0,58;0,18;-5,86;964,31
6.827;-1,84;-2,90;-0,87;-3,99;-14,36;-2,32;-0,88;-0,78;-4,44;964,31
6.827;-1,84;-2,90;-0,87;-13,36;-20,81;-4,48;-0,88;-0,78;-4,44;964,31
6.828;-1,84;-2,90;-0,87;-13,36;-20,81;-4,48;-0,88;-0,78;-4,44;964,32
6.874;-1,72;-2,45;-0,43;-13,36;-20,81;-4,48;-0,88;-0,78;-4,44;964,32
6.875;-1,66;-1,81;-0,37;-13,36;-20,81;-4,48;-0,88;-0,78;-4,44;964,32
6.875;-1,48;-1,18;-0,44;-13,36;-20,81;-4,48;-0,88;-0,78;-4,44;964,32
6.886;-1,48;-1,18;-0,44;-13,36;-20,81;-4,48;0,54;-1,55;-2,67;964,32
6.887;-1,48;-1,18;-0,44;-11,31;-3,14;-0,44;0,54;-1,55;-2,67;964,32
6.926;-1,48;-1,18;-0,44;-11,31;-3,14;-0,44;0,54;-1,55;-2,67;964,31
6.935;-1,32;-0,73;-0,33;-11,31;-3,14;-0,44;0,54;-1,55;-2,67;964,31
6.936;-1,11;-0,37;-0,19;-11,31;-3,14;-0,44;0,54;-1,55;-2,67;964,31
6.936;-0,89;-0,15;-0,15;-11,31;-3,14;-0,44;0,54;-1,55;-2,67;964,31
6.953;-0,89;-0,15;-0,15;-11,31;-3,14;-0,44;0,72;-1,54;-1,87;964,31
6.954;-0,89;-0,15;-0,15;-6,42;7,48;1,85;0,72;-1,54;-1,87;964,31
6.994;-0,72;-0,03;-0,15;-6,42;7,48;1,85;0,72;-1,54;-1,87;964,31
6.995;-0,60;0,04;-0,14;-6,42;7,48;1,85;0,72;-1,54;-1,87;964,31
6.996;-0,55;0,09;-0,13;-6,42;7,48;1,85;0,72;-1,54;-1,87;964,31
7.006;-0,55;0,09;-0,13;-6,42;7,48;1,85;0,78;-0,81;-1,47;964,31
7.007;-0,55;0,09;-0,13;-3,70;10,13;1,45;0,78;-0,81;-1,47;964,31
7.026;-0,55;0,09;-0,13;-3,70;10,13;1,45;0,78;-0,81;-1,47;964,22
7.055;-0,54;0,10;-0,16;-3,70;10,13;1,45;0,78;-0,81;-1,47;964,22
7.056;-0,51;0,11;-0,30;-3,70;10,13;1,45;0,78;-0,81;-1,47;964,22
7.056;-0,48;0,09;-0,36;-3,70;10,13;1,45;0,78;-0,81;-1,47;964,22
7.067;-0,48;0,09;-0,36;-3,70;10,13;1,45;0,49;0,88;-0,59;964,22
7.067;-0,48;0,09;-0,36;-3,70;10,34;-1,19;0,49;0,88;-0,59;964,22
7.114;-0,48;0,04;-0,34;-3,70;10,34;-1,19;0,49;0,88;-0,59;964,22
7.115;-0,52;0,03;-0,29;-3,70;10,34;-1,19;0,49;0,88;-0,59;964,22
7.115;-0,43;0,08;-0,22;-3,70;10,34;-1,19;0,49;0,88;-0,59;964,22
7.128;-0,43;0,08;-0,22;-3,70;10,34;-1,19;0,32;0,41;0,30;964,22
7.128;-0,43;0,08;-0,22;-3,39;10,35;0,05;0,32;0,41;0,30;964,22
7.129;-0,43;0,08;-0,22;-3,39;10,35;0,05;0,32;0,41;0,30;964,21
7.174;-0,30;0,12;-0,22;-3,39;10,35;0,05;0,32;0,41;0,30;964,21
7.175;-0,21;0,12;-0,23;-3,39;10,35;0,05;0,32;0,41;0,30;964,21
7.175;-0,16;0,07;-0,25;-3,39;10,35;0,05;0,32;0,41;0,30;964,21
7.187;-0,16;0,07;-0,25;-3,39;10,35;0,05;-0,27;0,69;1,13;964,21
7.188;-0,16;0,07;-0,25;-0,49;10,15;-0,35;-0,27;0,69;1,13;964,21
7.226;-0,16;0,07;-0,25;-0,49;10,15;-0,35;-0,27;0,69;1,13;964,22
7.236;-0,18;-0,03;-0,27;-0,49;10,15;-0,35;-0,27;0,69;1,13;964,22
7.237;-0,19;-0,16;-0,31;-0,49;10,15;-0,35;-0,27;0,69;1,13;964,22
7.237;-0,16;-0,22;-0,35;-0,49;10,15;-0,35;-0,27;0,69;1,13;964,22
7.246;-0,16;-0,22;-0,35;-0,49;10,15;-0,35;-0,96;-0,08;1,74;964,22
7.247;-0,16;-0,22;-0,35;0,19;7,12;-0,95;-0,96;-0,08;1,74;964,22
7.294;-0,28;-0,44;-0,36;0,19;7,12;-0,95;-0,96;-0,08;1,74;964,22
7.295;-0,55;-0,91;-0,31;0,19;7,12;-0,95;-0,96;-0,08;1,74;964,22
7.296;-0,84;-1,40;-0,30;0,19;7,12;-0,95;-0,96;-0,08;1,74;964,22
7.306;-0,84;-1,40;-0,30;0,19;7,12;-0,95;-1,05;-0,59;2,18;964,22
7.307;-0,84;-1,40;-0,30;-5,10;-4,95;0,07;-1,05;-0,59;2,18;964,22
7.327;-0,84;-1,40;-0,30;-5,10;-4,95;0,07;-1,05;-0,59;2,18;964,24
7.354;-1,03;-1,45;-0,40;-5,10;-4,95;0,07;-1,05;-0,59;2,18;964,24
7.354;-1,11;-1,49;-0,50;-5,10;-4,95;0,07;-1,05;-0,59;2,18;964,24
7.354;-1,43;-1,48;-0,21;-5,10;-4,95;0,07;-1,05;-0,59;2,18;964,24
7.367;-1,43;-1,48;-0,21;-5,10;-4,95;0,07;-0,37;-0,23;1,11;964,24
7.368;-1,43;-1,48;-0,21;-9,90;-6,24;1,34;-0,37;-0,23;1,11;964,24
7.414;-1,94;-1,55;-0,08;-9,90;-6,24;1,34;-0,37;-0,23;1,11;964,24
7.415;-2,12;-1,49;-0,45;-9,90;-6,24;1,34;-0,37;-0,23;1,11;964,24
7.415;-1,67;-1,29;-0,56;-9,90;-6,24;1,34;-0,37;-0,23;1,11;964,24
7.427;-1,67;-1,29;-0,56;-9,90;-6,24;1,34;0,17;-0,16;2,97;964,24
7.428;-1,67;-1,29;-0,56;-11,46;-4,85;-2,21;0,17;-0,16;2,97;964,24
7.428;-1,67;-1,29;-0,56;-11,46;-4,85;-2,21;0,17;-0,16;2,97;964,31
7.474;-1,49;-1,02;-0,29;-11,46;-4,85;-2,21;0,17;-0,16;2,97;964,31
7.475;-1,46;-0,87;-0,16;-11,46;-4,85;-2,21;0,17;-0,16;2,97;964,31
7.475;-1,46;-0,91;-0,23;-11,46;-4,85;-2,21;0,17;-0,16;2,97;964,31
7.486;-1,46;-0,91;-0,23;-11,46;-4,85;-2,21;0,82;-0,75;4,48;964,31
7.487;-1,46;-0,91;-0,23;-7,71;-2,30;0,79;0,82;-0,75;4,48;964,31
7.526;-1,46;-0,91;-0,23;-7,71;-2,30;0,79;0,82;-0,75;4,48;964,30
7.537;-1,66;-1,37;-0,40;-7,71;-2,30;0,79;0,82;-0,75;4,48;964,30
7.537;-2,01;-1,92;-0,56;-7,71;-2,30;0,79;0,82;-0,75;4,48;964,30
7.538;-2,71;-2,57;-0,71;-7,71;-2,30;0,79;0,82;-0,75;4,48;964,30
7.546;-2,71;-2,57;-0,71;-7,71;-2,30;0,79;0,57;1,20;5,92;964,30
7.547;-2,71;-2,57;-0,71;-18,29;-20,73;-4,01;0,57;1,20;5,92;964,30
7.594;-2,59;-2,92;-0,81;-18,29;-20,73;-4,01;0,57;1,20;5,92;964,30
7.595;-2,14;-2,78;-0,79;-18,29;-20,73;-4,01;0,57;1,20;5,92;964,30
7.596;-1,61;-2,36;-0,64;-18,29;-20,73;-4,01;0,57;1,20;5,92;964,30
7.606;-1,61;-2,36;-0,64;-18,29;-20,73;-4,01;0,27;-1,31;5,40;964,30
7.607;-1,61;-2,36;-0,64;-6,51;-21,79;-3,47;0,27;-1,31;5,40;964,30
7.626;-1,61;-2,36;-0,64;-6,51;-21,79;-3,47;0,27;-1,31;5,40;964,35
7.653;-1,06;-1,83;-0,51;-6,51;-21,79;-3,47;0,27;-1,31;5,40;964,35
7.654;-0,66;-1,35;-0,46;-6,51;-21,79;-3,47;0,27;-1,31;5,40;964,35
7.654;-0,43;-1,03;-0,40;-6,51;-21,79;-3,47;0,27;-1,31;5,40;964,35
7.671;-0,43;-1,03;-0,40;-6,51;-21,79;-3,47;-0,37;-0,60;3,32;964,35
7.672;-0,43;-1,03;-0,40;5,24;-11,27;-1,63;-0,37;-0,60;3,32;964,35
7.714;-0,26;-0,79;-0,32;5,24;-11,27;-1,63;-0,37;-0,60;3,32;964,35
7.714;-0,11;-0,59;-0,30;5,24;-11,27;-1,63;-0,37;-0,60;3,32;964,35
7.715;0,01;-0,45;-0,30;5,24;-11,27;-1,63;-0,37;-0,60;3,32;964,35
7.728;0,01;-0,45;-0,30;5,24;-11,27;-1,63;-0,68;-1,10;2,88;964,35
7.728;0,01;-0,45;-0,30;9,35;-7,29;-1,18;-0,68;-1,10;2,88;964,35
7.729;0,01;-0,45;-0,30;9,35;-7,29;-1,18;-0,68;-1,10;2,88;964,25
7.774;0,13;-0,33;-0,27;9,35;-7,29;-1,18;-0,68;-1,10;2,88;964,25
7.775;0,20;-0,26;-0,23;9,35;-7,29;-1,18;-0,68;-1,10;2,88;964,25
7.775;0,20;-0,25;-0,15;9,35;-7,29;-1,18;-0,68;-1,10;2,88;964,25
7.788;0,20;-0,25;-0,15;9,35;-7,29;-1,18;-0,83;-0,51;2,44;964,25
7.789;0,20;-0,25;-0,15;10,65;-6,86;-0,40;-0,83;-0,51;2,44;964,25
7.827;0,20;-0,25;-0,15;10,65;-6,86;-0,40;-0,83;-0,51;2,44;964,19
7.837;0,20;-0,18;-0,14;10,65;-6,86;-0,40;-0,83;-0,51;2,44;964,19
7.838;0,16;-0,15;-0,14;10,65;-6,86;-0,40;-0,83;-0,51;2,44;964,19
7.838;0,15;-0,15;-0,12;10,65;-6,86;-0,40;-0,83;-0,51;2,44;964,19
7.847;0,15;-0,15;-0,12;10,65;-6,86;-0,40;-0,73;-0,13;1,50;964,19
7.847;0,15;-0,15;-0,12;9,61;-6,98;-0,48;-0,73;-0,13;1,50;964,19
7.894;0,18;-0,19;-0,11;9,61;-6,98;-0,48;-0,73;-0,13;1,50;964,19
7.895;0,23;-0,17;-0,12;9,61;-6,98;-0,48;-0,73;-0,13;1,50;964,19
7.896;0,24;-0,15;-0,11;9,61;-6,98;-0,48;-0,73;-0,13;1,50;964,19
7.906;0,24;-0,15;-0,11;9,61;-6,98;-0,48;-0,49;0,53;1,24;964,19
7.907;0,24;-0,15;-0,11;9,96;-7,59;-0,53;-0,49;0,53;1,24;964,19
7.927;0,24;-0,15;-0,11;9,96;-7,59;-0,53;-0,49;0,53;1,24;964,16
7.96;0,21;-0,12;-0,08;9,96;-7,59;-0,53;-0,49;0,53;1,24;964,16
7.96;0,18;-0,10;-0,05;9,96;-7,59;-0,53;-0,49;0,53;1,24;964,16
7.96;0,17;-0,09;-0,04;9,96;-7,59;-0,53;-0,49;0,53;1,24;964,16
7.966;0,17;-0,09;-0,04;9,96;-7,59;-0,53;-0,42;0,91;0,70;964,16
7.967;0,17;-0,09;-0,04;8,83;-7,51;0,32;-0,42;0,91;0,70;964,16
8.014;0,13;-0,07;-0,05;8,83;-7,51;0,32;-0,42;0,91;0,70;964,16
8.015;0,06;0,01;-0,08;8,83;-7,51;0,32;-0,42;0,91;0,70;964,16
8.016;-0,05;0,24;-0,30;8,83;-7,51;0,32;-0,42;0,91;0,70;964,16
8.027;-0,05;0,24;-0,30;8,83;-7,51;0,32;-0,55;1,38;-0,03;964,16
8.028;-0,05;0,24;-0,30;6,48;-4,52;-1,97;-0,55;1,38;-0,03;964,16
8.028;-0,05;0,24;-0,30;6,48;-4,52;-1,97;-0,55;1,38;-0,03;964,17
8.073;-0,15;0,50;-0,47;6,48;-4,52;-1,97;-0,55;1,38;-0,03;964,17
8.074;-0,19;0,65;-0,30;6,48;-4,52;-1,97;-0,55;1,38;-0,03;964,17
8.074;-0,60;0,33;0,06;6,48;-4,52;-1,97;-0,55;1,38;-0,03;964,17
8.091;-0,60;0,33;0,06;6,48;-4,52;-1,97;-1,23;-0,71;-5,12;964,17
8.092;-0,60;0,33;0,06;1,79;-2,89;1,32;-1,23;-0,71;-5,12;964,17
8.126;-0,60;0,33;0,06;1,79;-2,89;1,32;-1,23;-0,71;-5,12;964,26
8.135;-1,12;0,22;0,10;1,79;-2,89;1,32;-1,23;-0,71;-5,12;964,26
8.136;-1,29;-0,29;-0,14;1,79;-2,89;1,32;-1,23;-0,71;-5,12;964,26
8.137;-1,11;-0,73;-0,74;1,79;-2,89;1,32;-1,23;-0,71;-5,12;964,26
8.148;-1,11;-0,73;-0,74;1,79;-2,89;1,32;-1,16;3,32;-7,85;964,26
8.149;-1,11;-0,73;-0,74;-1,52;-9,87;-6,40;-1,16;3,32;-7,85;964,26
8.194;-1,11;-1,19;-1,14;-1,52;-9,87;-6,40;-1,16;3,32;-7,85;964,26
8.195;-1,06;-1,50;-0,93;-1,52;-9,87;-6,40;-1,16;3,32;-7,85;964,26
8.196;-1,30;-2,16;-0,59;-1,52;-9,87;-6,40;-1,16;3,32;-7,85;964,26
8.206;-1,30;-2,16;-0,59;-1,52;-9,87;-6,40;-1,83;0,44;-9,05;964,26
8.207;-1,30;-2,16;-0,59;-3,28;-19,18;-4,06;-1,83;0,44;-9,05;964,26
8.227;-1,30;-2,16;-0,59;-3,28;-19,18;-4,06;-1,83;0,44;-9,05;964,27
8.256;-2,20;-2,89;-0,88;-3,28;-19,18;-4,06;-1,83;0,44;-9,05;964,27
8.257;-2,24;-3,37;-1,33;-3,28;-19,18;-4,06;-1,83;0,44;-9,05;964,27
8.257;-2,20;-3,24;-1,09;-3,28;-19,18;-4,06;-1,83;0,44;-9,05;964,27
8.266;-2,20;-3,24;-1,09;-3,28;-19,18;-4,06;-2,44;-1,37;-6,09;964,27
8.267;-2,20;-3,24;-1,09;-14,07;-26,00;-7,93;-2,44;-1,37;-6,09;964,27
8.314;-2,28;-2,91;-0,65;-14,07;-26,00;-7,93;-2,44;-1,37;-6,09;964,27
8.315;-1,97;-2,43;-0,45;-14,07;-26,00;-7,93;-2,44;-1,37;-6,09;964,27
8.316;-1,69;-1,95;-0,22;-14,07;-26,00;-7,93;-2,44;-1,37;-6,09;964,27
8.326;-1,69;-1,95;-0,22;-14,07;-26,00;-7,93;-2,62;-1,37;-4,25;964,27
8.327;-1,69;-1,95;-0,22;-10,73;-11,76;0,64;-2,62;-1,37;-4,25;964,27
8.328;-1,69;-1,95;-0,22;-10,73;-11,76;0,64;-2,62;-1,37;-4,25;964,34
8.373;-1,60;-1,58;-0,06;-10,73;-11,76;0,64;-2,62;-1,37;-4,25;964,34
8.374;-1,48;-1,21;-0,02;-10,73;-11,76;0,64;-2,62;-1,37;-4,25;964,34
8.374;-1,27;-0,91;0,10;-10,73;-11,76;0,64;-2,62;-1,37;-4,25;964,34
8.389;-1,27;-0,91;0,10;-10,73;-11,76;0,64;-1,22;-1,93;-3,38;964,34
8.389;-1,27;-0,91;0,10;-8,25;-0,71;4,42;-1,22;-1,93;-3,38;964,34
8.426;-1,27;-0,91;0,10;-8,25;-0,71;4,42;-1,22;-1,93;-3,38;964,32
8.434;-1,05;-0,63;0,23;-8,25;-0,71;4,42;-1,22;-1,93;-3,38;964,32
8.434;-0,85;-0,36;0,25;-8,25;-0,71;4,42;-1,22;-1,93;-3,38;964,32
8.435;-0,68;-0,09;0,17;-8,25;-0,71;4,42;-1,22;-1,93;-3,38;964,32
8.447;-0,68;-0,09;0,17;-8,25;-0,71;4,42;0,04;-1,96;-2,95;964,32
8.448;-0,68;-0,09;0,17;-3,56;7,79;4,93;0,04;-1,96;-2,95;964,32
8.494;-0,60;-0,00;0,25;-3,56;7,79;4,93;0,04;-1,96;-2,95;964,32
8.494;-0,54;0,02;0,31;-3,56;7,79;4,93;0,04;-1,96;-2,95;964,32
8.496;-0,51;0,07;0,28;-3,56;7,79;4,93;0,04;-1,96;-2,95;964,32
8.507;-0,51;0,07;0,28;-3,56;7,79;4,93;0,53;-1,76;-2,90;964,32
8.508;-0,51;0,07;0,28;-3,10;9,92;5,60;0,53;-1,76;-2,90;964,32
8.526;-0,51;0,07;0,28;-3,10;9,92;5,60;0,53;-1,76;-2,90;964,27
8.558;-0,51;0,08;0,28;-3,10;9,92;5,60;0,53;-1,76;-2,90;964,27
8.558;-0,42;0,12;0,15;-3,10;9,92;5,60;0,53;-1,76;-2,90;964,27
8.559;-0,47;0,12;0,14;-3,10;9,92;5,60;0,53;-1,76;-2,90;964,27
8.566;-0,47;0,12;0,14;-3,10;9,92;5,60;0,40;-1,13;-2,63;964,27
8.567;-0,47;0,12;0,14;-4,08;10,66;3,85;0,40;-1,13;-2,63;964,27
8.612;-0,56;0,11;0,15;-4,08;10,66;3,85;0,40;-1,13;-2,63;964,27
8.613;-0,56;0,16;0,13;-4,08;10,66;3,85;0,40;-1,13;-2,63;964,27
8.613;-0,53;0,15;0,13;-4,08;10,66;3,85;0,40;-1,13;-2,63;964,27
8.627;-0,53;0,15;0,13;-4,08;10,66;3,85;0,27;-1,69;-1,74;964,27
8.628;-0,53;0,15;0,13;-5,81;10,97;3,49;0,27;-1,69;-1,74;964,27
8.628;-0,53;0,15;0,13;-5,81;10,97;3,49;0,27;-1,69;-1,74;964,28
8.674;-0,53;0,03;0,10;-5,81;10,97;3,49;0,27;-1,69;-1,74;964,28
8.674;-0,55;-0,05;0,01;-5,81;10,97;3,49;0,27;-1,69;-1,74;964,28
8.675;-0,61;-0,20;-0,19;-5,81;10,97;3,49;0,27;-1,69;-1,74;964,28
8.689;-0,61;-0,20;-0,19;-5,81;10,97;3,49;0,33;-1,66;0,07;964,28
8.69;-0,61;-0,20;-0,19;-6,99;7,50;0,26;0,33;-1,66;0,07;964,28
8.727;-0,61;-0,20;-0,19;-6,99;7,50;0,26;0,33;-1,66;0,07;964,26
8.734;-0,61;-0,54;-0,59;-6,99;7,50;0,26;0,33;-1,66;0,07;964,26
8.735;-0,72;-1,33;-1,01;-6,99;7,50;0,26;0,33;-1,66;0,07;964,26
8.735;-0,85;-2,25;-1,16;-6,99;7,50;0,26;0,33;-1,66;0,07;964,26
8.747;-0,85;-2,25;-1,16;-6,99;7,50;0,26;-0,09;-1,89;0,52;964,26
8.747;-0,85;-2,25;-1,16;-8,93;-12,54;-9,14;-0,09;-1,89;0,52;964,26
8.795;-0,77;-2,07;-1,48;-8,93;-12,54;-9,14;-0,09;-1,89;0,52;964,26
8.796;-0,50;-1,78;-1,83;-8,93;-12,54;-9,14;-0,09;-1,89;0,52;964,26
8.796;-0,36;-1,41;-1,96;-8,93;-12,54;-9,14;-0,09;-1,89;0,52;964,26
8.809;-0,36;-1,41;-1,96;-8,93;-12,54;-9,14;-0,08;-3,71;2,21;964,26
8.81;-0,36;-1,41;-1,96;-2,86;-4,27;-17,08;-0,08;-3,71;2,21;964,26
8.826;-0,36;-1,41;-1,96;-2,86;-4,27;-17,08;-0,08;-3,71;2,21;964,24
8.863;-0,55;-1,26;-1,68;-2,86;-4,27;-17,08;-0,08;-3,71;2,21;964,24
8.864;-0,90;-1,53;-1,52;-2,86;-4,27;-17,08;-0,08;-3,71;2,21;964,24
8.864;-0,94;-1,39;-1,68;-2,86;-4,27;-17,08;-0,08;-3,71;2,21;964,24
8.873;-0,94;-1,39;-1,68;-2,86;-4,27;-17,08;-0,42;-2,70;2,66;964,24
8.873;-0,94;-1,39;-1,68;-6,89;-4,28;-14,42;-0,42;-2,70;2,66;964,24
8.913;-1,00;-1,17;-1,98;-6,89;-4,28;-14,42;-0,42;-2,70;2,66;964,24
8.914;-0,94;-1,16;-1,77;-6,89;-4,28;-14,42;-0,42;-2,70;2,66;964,24
8.914;-1,29;-1,59;-1,53;-6,89;-4,28;-14,42;-0,42;-2,70;2,66;964,24
8.926;-1,29;-1,59;-1,53;-6,89;-4,28;-14,42;-1,20;-1,66;5,72;964,24
8.927;-1,29;-1,59;-1,53;-7,94;-7,21;-13,10;-1,20;-1,66;5,72;964,24
8.927;-1,29;-1,59;-1,53;-7,94;-7,21;-13,10;-1,20;-1,66;5,72;964,26
8.973;-1,65;-2,26;-1,44;-7,94;-7,21;-13,10;-1,20;-1,66;5,72;964,26
8.973;-1,85;-2,93;-1,33;-7,94;-7,21;-13,10;-1,20;-1,66;5,72;964,26
8.973;-1,83;-3,10;-1,20;-7,94;-7,21;-13,10;-1,20;-1,66;5,72;964,26
8.985;-1,83;-3,10;-1,20;-7,94;-7,21;-13,10;-2,01;-2,11;6,45;964,26
8.986;-1,83;-3,10;-1,20;-10,43;-24,47;-9,57;-2,01;-2,11;6,45;964,26
9.025;-1,83;-3,10;-1,20;-10,43;-24,47;-9,57;-2,01;-2,11;6,45;964,36
9.035;-1,41;-2,79;-1,01;-10,43;-24,47;-9,57;-2,01;-2,11;6,45;964,36
9.035;-1,14;-2,32;-0,73;-10,43;-24,47;-9,57;-2,01;-2,11;6,45;964,36
9.035;-0,96;-1,95;-0,37;-10,43;-24,47;-9,57;-2,01;-2,11;6,45;964,36
9.046;-0,96;-1,95;-0,37;-10,43;-24,47;-9,57;-1,75;-1,43;5,23;964,36
9.046;-0,96;-1,95;-0,37;-0,09;-16,58;-2,16;-1,75;-1,43;5,23;964,36
9.092;-0,65;-1,41;-0,26;-0,09;-16,58;-2,16;-1,75;-1,43;5,23;964,36
9.092;-0,33;-0,96;-0,21;-0,09;-16,58;-2,16;-1,75;-1,43;5,23;964,36
9.092;-0,16;-0,68;-0,21;-0,09;-16,58;-2,16;-1,75;-1,43;5,23;964,36
9.106;-0,16;-0,68;-0,21;-0,09;-16,58;-2,16;-1,10;-0,64;4,20;964,36
9.107;-0,16;-0,68;-0,21;8,22;-6,85;-0,97;-1,10;-0,64;4,20;964,36
9.126;-0,16;-0,68;-0,21;8,22;-6,85;-0,97;-1,10;-0,64;4,20;964,30
9.162;-0,00;-0,54;-0,30;8,22;-6,85;-0,97;-1,10;-0,64;4,20;964,30
9.162;0,16;-0,42;-0,31;8,22;-6,85;-0,97;-1,10;-0,64;4,20;964,30
9.162;0,27;-0,32;-0,19;8,22;-6,85;-0,97;-1,10;-0,64;4,20;964,30
9.165;0,27;-0,32;-0,19;8,22;-6,85;-0,97;-0,93;-0,10;4,15;964,30
9.165;0,27;-0,32;-0,19;12,08;-5,86;-1,17;-0,93;-0,10;4,15;964,30
9.212;0,34;-0,28;-0,08;12,08;-5,86;-1,17;-0,93;-0,10;4,15;964,30
9.213;0,32;-0,41;-0,02;12,08;-5,86;-1,17;-0,93;-0,10;4,15;964,30
9.213;0,34;-0,45;-0,03;12,08;-5,86;-1,17;-0,93;-0,10;4,15;964,30
9.225;0,34;-0,45;-0,03;12,08;-5,86;-1,17;-0,99;0,90;3,23;964,30
9.226;0,34;-0,45;-0,03;11,88;-9,22;0,36;-0,99;0,90;3,23;964,30
9.226;0,34;-0,45;-0,03;11,88;-9,22;0,36;-0,99;0,90;3,23;964,23
9.273;0,36;-0,49;-0,11;11,88;-9,22;0,36;-0,99;0,90;3,23;964,23
9.274;0,37;-0,43;-0,13;11,88;-9,22;0,36;-0,99;0,90;3,23;964,23
9.274;0,35;-0,39;-0,07;11,88;-9,22;0,36;-0,99;0,90;3,23;964,23
9.288;0,35;-0,39;-0,07;11,88;-9,22;0,36;-1,35;0,72;2,04;964,23
9.288;0,35;-0,39;-0,07;10,99;-9,96;0,03;-1,35;0,72;2,04;964,23
9.325;0,35;-0,39;-0,07;10,99;-9,96;0,03;-1,35;0,72;2,04;964,21
9.333;0,33;-0,50;0,05;10,99;-9,96;0,03;-1,35;0,72;2,04;964,21
9.333;0,31;-0,48;0,08;10,99;-9,96;0,03;-1,35;0,72;2,04;964,21
9.333;0,31;-0,41;0,03;10,99;-9,96;0,03;-1,35;0,72;2,04;964,21
9.346;0,31;-0,41;0,03;10,99;-9,96;0,03;-0,88;1,67;0,13;964,21
9.346;0,31;-0,41;0,03;10,11;-10,76;0,96;-0,88;1,67;0,13;964,21
9.394;0,28;-0,32;-0,02;10,11;-10,76;0,96;-0,88;1,67;0,13;964,21
9.395;0,27;-0,14;-0,14;10,11;-10,76;0,96;-0,88;1,67;0,13;964,21
9.396;0,22;0,08;-0,19;10,11;-10,76;0,96;-0,88;1,67;0,13;964,21
9.407;0,22;0,08;-0,19;10,11;-10,76;0,96;0,21;2,32;-2,09;964,21
9.409;0,22;0,08;-0,19;9,32;-5,73;-0,43;0,21;2,32;-2,09;964,21
9.427;0,22;0,08;-0,19;9,32;-5,73;-0,43;0,21;2,32;-2,09;964,24
9.455;0,12;0,31;-0,27;9,32;-5,73;-0,43;0,21;2,32;-2,09;964,24
9.456;-0,09;0,31;-0,47;9,32;-5,73;-0,43;0,21;2,32;-2,09;964,24
9.456;-0,40;0,21;-0,37;9,32;-5,73;-0,43;0,21;2,32;-2,09;964,24
9.466;-0,40;0,21;-0,37;9,32;-5,73;-0,43;0,81;-0,86;-7,23;964,24
9.467;-0,40;0,21;-0,37;4,50;-2,52;-1,48;0,81;-0,86;-7,23;964,24
9.513;-1,02;-0,20;-0,24;4,50;-2,52;-1,48;0,81;-0,86;-7,23;964,24
9.514;-1,33;-0,78;-0,10;4,50;-2,52;-1,48;0,81;-0,86;-7,23;964,24
9.514;-1,82;-1,43;-0,37;4,50;-2,52;-1,48;0,81;-0,86;-7,23;964,24
9.526;-1,82;-1,43;-0,37;4,50;-2,52;-1,48;0,46;0,84;-11,03;964,24
9.526;-1,82;-1,43;-0,37;-8,27;-13,25;-1,77;0,46;0,84;-11,03;964,24
9.527;-1,82;-1,43;-0,37;-8,27;-13,25;-1,77;0,46;0,84;-11,03;964,33
9.573;-1,77;-2,02;-0,58;-8,27;-13,25;-1,77;0,46;0,84;-11,03;964,33
9.574;-2,19;-2,45;-0,44;-8,27;-13,25;-1,77;0,46;0,84;-11,03;964,33
9.574;-2,46;-2,49;-0,61;-8,27;-13,25;-1,77;0,46;0,84;-11,03;964,33
9.587;-2,46;-2,49;-0,61;-8,27;-13,25;-1,77;1,02;-0,27;-9,00;964,33
9.588;-2,46;-2,49;-0,61;-17,03;-18,19;-3,30;1,02;-0,27;-9,00;964,33
9.626;-2,46;-2,49;-0,61;-17,03;-18,19;-3,30;1,02;-0,27;-9,00;964,37
9.635;-1,99;-2,39;-0,72;-17,03;-18,19;-3,30;1,02;-0,27;-9,00;964,37
9.636;-1,66;-2,69;-0,63;-17,03;-18,19;-3,30;1,02;-0,27;-9,00;964,37
9.636;-1,67;-2,85;-0,48;-17,03;-18,19;-3,30;1,02;-0,27;-9,00;964,37
9.646;-1,67;-2,85;-0,48;-17,03;-18,19;-3,30;-0,19;-0,61;-6,35;964,37
9.647;-1,67;-2,85;-0,48;-12,68;-19,03;-2,62;-0,19;-0,61;-6,35;964,37
9.694;-1,54;-2,64;-0,58;-12,68;-19,03;-2,62;-0,19;-0,61;-6,35;964,37
9.696;-1,32;-2,38;-0,56;-12,68;-19,03;-2,62;-0,19;-0,61;-6,35;964,37
9.696;-1,12;-1,99;-0,43;-12,68;-19,03;-2,62;-0,19;-0,61;-6,35;964,37
9.707;-1,12;-1,99;-0,43;-12,68;-19,03;-2,62;0,01;-1,55;-3,75;964,37
9.708;-1,12;-1,99;-0,43;-10,03;-9,95;-2,19;0,01;-1,55;-3,75;964,37
9.725;-1,12;-1,99;-0,43;-10,03;-9,95;-2,19;0,01;-1,55;-3,75;964,36
9.753;-1,02;-1,58;-0,41;-10,03;-9,95;-2,19;0,01;-1,55;-3,75;964,36
9.754;-0,99;-1,24;-0,40;-10,03;-9,95;-2,19;0,01;-1,55;-3,75;964,36
9.754;-0,93;-0,91;-0,32;-10,03;-9,95;-2,19;0,01;-1,55;-3,75;964,36
9.766;-0,93;-0,91;-0,32;-10,03;-9,95;-2,19;0,42;0,42;-2,19;964,36
9.766;-0,93;-0,91;-0,32;-9,87;0,66;-1,29;0,42;0,42;-2,19;964,36
9.812;-0,84;-0,68;-0,26;-9,87;0,66;-1,29;0,42;0,42;-2,19;964,36
9.813;-0,76;-0,64;-0,27;-9,87;0,66;-1,29;0,42;0,42;-2,19;964,36
9.813;-0,65;-0,45;-0,28;-9,87;0,66;-1,29;0,42;0,42;-2,19;964,36
9.826;-0,65;-0,45;-0,28;-9,87;0,66;-1,29;0,51;0,01;-0,87;964,36
9.827;-0,65;-0,45;-0,28;-8,05;5,10;-1,20;0,51;0,01;-0,87;964,36
9.827;-0,65;-0,45;-0,28;-8,05;5,10;-1,20;0,51;0,01;-0,87;964,29
9.872;-0,53;-0,26;-0,31;-8,05;5,10;-1,20;0,51;0,01;-0,87;964,29
9.873;-0,45;-0,07;-0,36;-8,05;5,10;-1,20;0,51;0,01;-0,87;964,29
9.873;-0,40;0,06;-0,31;-8,05;5,10;-1,20;0,51;0,01;-0,87;964,29
9.885;-0,40;0,06;-0,31;-8,05;5,10;-1,20;0,43;0,01;0,12;964,29
9.885;-0,40;0,06;-0,31;-5,78;10,12;-1,65;0,43;0,01;0,12;964,29
9.925;-0,40;0,06;-0,31;-5,78;10,12;-1,65;0,43;0,01;0,12;964,23
9.934;-0,36;0,09;-0,29;-5,78;10,12;-1,65;0,43;0,01;0,12;964,23
9.935;-0,33;0,15;-0,33;-5,78;10,12;-1,65;0,43;0,01;0,12;964,23
9.935;-0,35;0,20;-0,35;-5,78;10,12;-1,65;0,43;0,01;0,12;964,23
9.947;-0,35;0,20;-0,35;-5,78;10,12;-1,65;0,12;0,95;0,23;964,23
9.947;-0,35;0,20;-0,35;-5,20;11,53;-2,30;0,12;0,95;0,23;964,23
9.995;-0,38;0,18;-0,32;-5,20;11,53;-2,30;0,12;0,95;0,23;964,23
9.996;-0,35;0,19;-0,30;-5,20;11,53;-2,30;0,12;0,95;0,23;964,23
9.996;-0,39;0,24;-0,32;-5,20;11,53;-2,30;0,12;0,95;0,23;964,23
10.009;-0,39;0,24;-0,32;-5,20;11,53;-2,30;-0,23;0,83;0,50;964,23
10.01;-0,39;0,24;-0,32;-5,43;12,00;-2,06;-0,23;0,83;0,50;964,23
10.026;-0,39;0,24;-0,32;-5,43;12,00;-2,06;-0,23;0,83;0,50;964,23
10.054;-0,41;0,26;-0,35;-5,43;12,00;-2,06;-0,23;0,83;0,50;964,23
10.054;-0,44;0,15;-0,36;-5,43;12,00;-2,06;-0,23;0,83;0,50;964,23
10.054;-0,48;-0,01;-0,39;-5,43;12,00;-2,06;-0,23;0,83;0,50;964,23
10.071;-0,48;-0,01;-0,39;-5,43;12,00;-2,06;-0,91;1,40;1,06;964,23
10.071;-0,48;-0,01;-0,39;-6,06;9,55;-2,59;-0,91;1,40;1,06;964,23
10.114;-0,60;-0,23;-0,45;-6,06;9,55;-2,59;-0,91;1,40;1,06;964,23
10.115;-0,58;-0,26;-0,40;-6,06;9,55;-2,59;-0,91;1,40;1,06;964,23
10.115;-0,62;-0,59;-0,35;-6,06;9,55;-2,59;-0,91;1,40;1,06;964,23
10.126;-0,62;-0,59;-0,35;-6,06;9,55;-2,59;-1,66;0,51;2,25;964,23
10.127;-0,62;-0,59;-0,35;-6,60;3,86;-1,58;-1,66;0,51;2,25;964,23
10.127;-0,62;-0,59;-0,35;-6,60;3,86;-1,58;-1,66;0,51;2,25;964,25
10.173;-0,97;-1,30;-0,39;-6,60;3,86;-1,58;-1,66;0,51;2,25;964,25
10.173;-1,30;-1,94;-0,49;-6,60;3,86;-1,58;-1,66;0,51;2,25;964,25
10.174;-1,46;-2,41;-0,52;-6,60;3,86;-1,58;-1,66;0,51;2,25;964,25
10.186;-1,46;-2,41;-0,52;-6,60;3,86;-1,58;-2,09;-0,97;3,05;964,25
10.186;-1,46;-2,41;-0,52;-13,42;-14,29;-2,15;-2,09;-0,97;3,05;964,25
10.226;-1,46;-2,41;-0,52;-13,42;-14,29;-2,15;-2,09;-0,97;3,05;964,25
10.233;-1,51;-2,68;-0,54;-13,42;-14,29;-2,15;-2,09;-0,97;3,05;964,25
10.234;-1,73;-2,69;-0,48;-13,42;-14,29;-2,15;-2,09;-0,97;3,05;964,25
10.234;-1,60;-2,37;-0,53;-13,42;-14,29;-2,15;-2,09;-0,97;3,05;964,25
10.246;-1,60;-2,37;-0,53;-13,42;-14,29;-2,15;-0,91;-2,43;4,66;964,25
10.246;-1,60;-2,37;-0,53;-12,51;-14,71;-1,58;-0,91;-2,43;4,66;964,25
10.294;-1,28;-2,08;-0,47;-12,51;-14,71;-1,58;-0,91;-2,43;4,66;964,25
10.295;-1,17;-1,74;-0,37;-12,51;-14,71;-1,58;-0,91;-2,43;4,66;964,25
10.295;-1,14;-1,48;-0,45;-12,51;-14,71;-1,58;-0,91;-2,43;4,66;964,25
10.306;-1,14;-1,48;-0,45;-12,51;-14,71;-1,58;-0,10;-1,83;6,20;964,25
10.307;-1,14;-1,48;-0,45;-5,12;-7,63;-1,10;-0,10;-1,83;6,20;964,25
10.326;-1,14;-1,48;-0,45;-5,12;-7,63;-1,10;-0,10;-1,83;6,20;964,25
10.355;-1,17;-1,56;-0,52;-5,12;-7,63;-1,10;-0,10;-1,83;6,20;964,25
10.356;-1,37;-1,67;-0,51;-5,12;-7,63;-1,10;-0,10;-1,83;6,20;964,25
10.356;-1,84;-1,93;-0,56;-5,12;-7,63;-1,10;-0,10;-1,83;6,20;964,25
10.368;-1,84;-1,93;-0,56;-5,12;-7,63;-1,10;0,27;-0,70;6,89;964,25
10.369;-1,84;-1,93;-0,56;-9,52;-14,88;-2,67;0,27;-0,70;6,89;964,25
10.413;-2,18;-2,17;-0,67;-9,52;-14,88;-2,67;0,27;-0,70;6,89;964,25
10.414;-2,43;-2,24;-0,62;-9,52;-14,88;-2,67;0,27;-0,70;6,89;964,25
10.415;-2,32;-1,99;-0,56;-9,52;-14,88;-2,67;0,27;-0,70;6,89;964,25
10.426;-2,32;-1,99;-0,56;-9,52;-14,88;-2,67;0,00;-1,56;6,14;964,25
10.427;-2,32;-1,99;-0,56;-13,22;-19,07;-3,15;0,00;-1,56;6,14;964,25
10.427;-2,32;-1,99;-0,56;-13,22;-19,07;-3,15;0,00;-1,56;6,14;964,31
10.473;-1,99;-1,62;-0,48;-13,22;-19,07;-3,15;0,00;-1,56;6,14;964,31
10.474;-1,58;-1,25;-0,41;-13,22;-19,07;-3,15;0,00;-1,56;6,14;964,31
10.474;-1,28;-1,01;-0,28;-13,22;-19,07;-3,15;0,00;-1,56;6,14;964,31
10.487;-1,28;-1,01;-0,28;-13,22;-19,07;-3,15;-0,19;-0,29;5,30;964,31
10.488;-1,28;-1,01;-0,28;-3,29;-12,78;-1,23;-0,19;-0,29;5,30;964,31
10.526;-1,28;-1,01;-0,28;-3,29;-12,78;-1,23;-0,19;-0,29;5,30;964,28
10.534;-0,91;-0,80;-0,20;-3,29;-12,78;-1,23;-0,19;-0,29;5,30;964,28
10.534;-0,61;-0,65;-0,16;-3,29;-12,78;-1,23;-0,19;-0,29;5,30;964,28
10.534;-0,37;-0,58;-0,20;-3,29;-12,78;-1,23;-0,19;-0,29;5,30;964,28
10.546;-0,37;-0,58;-0,20;-3,29;-12,78;-1,23;-0,16;-1,17;4,31;964,28
10.547;-0,37;-0,58;-0,20;4,49;-11,07;-0,61;-0,16;-1,17;4,31;964,28
10.597;-0,19;-0,60;-0,23;4,49;-11,07;-0,61;-0,16;-1,17;4,31;964,28
10.598;0,03;-0,56;-0,25;4,49;-11,07;-0,61;-0,16;-1,17;4,31;964,28
10.598;0,19;-0,50;-0,18;4,49;-11,07;-0,61;-0,16;-1,17;4,31;964,28
10.606;0,19;-0,50;-0,18;4,49;-11,07;-0,61;-0,20;-0,46;3,80;964,28
10.606;0,19;-0,50;-0,18;8,41;-12,13;-1,03;-0,20;-0,46;3,80;964,28
10.625;0,19;-0,50;-0,18;8,41;-12,13;-1,03;-0,20;-0,46;3,80;964,22
10.654;0,18;-0,49;-0,11;8,41;-12,13;-1,03;-0,20;-0,46;3,80;964,22
10.655;0,17;-0,51;-0,11;8,41;-12,13;-1,03;-0,20;-0,46;3,80;964,22
10.655;0,26;-0,51;-0,15;8,41;-12,13;-1,03;-0,20;-0,46;3,80;964,22
10.667;0,26;-0,51;-0,15;8,41;-12,13;-1,03;0,08;-1,05;2,01;964,22
10.668;0,26;-0,51;-0,15;7,72;-13,32;-0,98;0,08;-1,05;2,01;964,22
10.713;0,37;-0,52;-0,15;7,72;-13,32;-0,98;0,08;-1,05;2,01;964,22
10.714;0,48;-0,51;-0,15;7,72;-13,32;-0,98;0,08;-1,05;2,01;964,22
10.714;0,49;-0,49;-0,14;7,72;-13,32;-0,98;0,08;-1,05;2,01;964,22
10.727;0,49;-0,49;-0,14;7,72;-13,32;-0,98;-0,01;0,67;0,60;964,22
10.728;0,49;-0,49;-0,14;9,30;-13,48;-0,93;-0,01;0,67;0,60;964,22
10.728;0,49;-0,49;-0,14;9,30;-13,48;-0,93;-0,01;0,67;0,60;964,20
10.773;0,45;-0,45;-0,12;9,30;-13,48;-0,93;-0,01;0,67;0,60;964,20
10.774;0,33;-0,39;-0,10;9,30;-13,48;-0,93;-0,01;0,67;0,60;964,20
10.774;0,26;-0,35;-0,07;9,30;-13,48;-0,93;-0,01;0,67;0,60;964,20
10.786;0,26;-0,35;-0,07;9,30;-13,48;-0,93;0,01;1,12;-1,05;964,20
10.787;0,26;-0,35;-0,07;7,01;-12,12;-0,05;0,01;1,12;-1,05;964,20
10.827;0,26;-0,35;-0,07;7,01;-12,12;-0,05;0,01;1,12;-1,05;964,19
10.833;0,24;-0,29;-0,05;7,01;-12,12;-0,05;0,01;1,12;-1,05;964,19
10.833;0,22;-0,25;-0,00;7,01;-12,12;-0,05;0,01;1,12;-1,05;964,19
10.834;0,19;-0,09;-0,08;7,01;-12,12;-0,05;0,01;1,12;-1,05;964,19
10.846;0,19;-0,09;-0,08;7,01;-12,12;-0,05;0,41;1,79;-2,47;964,19
10.847;0,19;-0,09;-0,08;7,15;-9,05;0,30;0,41;1,79;-2,47;964,19
10.894;0,08;0,32;-0,20;7,15;-9,05;0,30;0,41;1,79;-2,47;964,19
10.895;-0,27;0,74;-0,19;7,15;-9,05;0,30;0,41;1,79;-2,47;964,19
10.896;-1,05;0,55;-0,07;7,15;-9,05;0,30;0,41;1,79;-2,47;964,19
10.907;-1,05;0,55;-0,07;7,15;-9,05;0,30;0,86;0,36;-6,07;964,19
10.907;-1,05;0,55;-0,07;-3,44;-1,39;1,19;0,86;0,36;-6,07;964,19
10.928;-1,05;0,55;-0,07;-3,44;-1,39;1,19;0,86;0,36;-6,07;964,27
10.954;-1,16;0,51;-0,04;-3,44;-1,39;1,19;0,86;0,36;-6,07;964,27
10.955;-1,25;0,34;-0,14;-3,44;-1,39;1,19;0,86;0,36;-6,07;964,27
10.955;-1,41;-0,15;-0,62;-3,44;-1,39;1,19;0,86;0,36;-6,07;964,27
10.967;-1,41;-0,15;-0,62;-3,44;-1,39;1,19;0,65;1,40;-9,66;964,27
10.968;-1,41;-0,15;-0,62;-4,65;-4,23;-3,99;0,65;1,40;-9,66;964,27
11.013;-1,57;-0,67;-0,82;-4,65;-4,23;-3,99;0,65;1,40;-9,66;964,27
11.014;-1,89;-1,14;-0,80;-4,65;-4,23;-3,99;0,65;1,40;-9,66;964,27
11.014;-1,82;-1,08;-0,82;-4,65;-4,23;-3,99;0,65;1,40;-9,66;964,27
11.028;-1,82;-1,08;-0,82;-4,65;-4,23;-3,99;0,65;1,40;-9,66;964,28
11.028;-1,82;-1,08;-0,82;-4,65;-4,23;-3,99;1,02;1,09;-8,49;964,28
11.029;-1,82;-1,08;-0,82;-9,17;-8,12;-4,21;1,02;1,09;-8,49;964,28
11.073;-1,83;-1,25;-0,93;-9,17;-8,12;-4,21;1,02;1,09;-8,49;964,28
11.073;-1,60;-1,28;-0,89;-9,17;-8,12;-4,21;1,02;1,09;-8,49;964,28
11.074;-1,66;-1,79;-0,50;-9,17;-8,12;-4,21;1,02;1,09;-8,49;964,28
11.086;-1,66;-1,79;-0,50;-9,17;-8,12;-4,21;-0,10;0,22;-6,24;964,28
11.087;-1,66;-1,79;-0,50;-9,43;-11,38;-1,40;-0,10;0,22;-6,24;964,28
11.126;-1,66;-1,79;-0,50;-9,43;-11,38;-1,40;-0,10;0,22;-6,24;964,28
11.136;-1,71;-1,96;-0,35;-9,43;-11,38;-1,40;-0,10;0,22;-6,24;964,28
11.137;-1,40;-2,11;-0,36;-9,43;-11,38;-1,40;-0,10;0,22;-6,24;964,28
11.137;-1,12;-2,09;-0,37;-9,43;-11,38;-1,40;-0,10;0,22;-6,24;964,28
11.146;-1,12;-2,09;-0,37;-9,43;-11,38;-1,40;0,25;-1,28;-4,01;964,28
11.146;-1,12;-2,09;-0,37;-6,29;-12,59;-0,15;0,25;-1,28;-4,01;964,28
11.194;-1,14;-2,09;-0,41;-6,29;-12,59;-0,15;0,25;-1,28;-4,01;964,28
11.195;-1,13;-1,89;-0,52;-6,29;-12,59;-0,15;0,25;-1,28;-4,01;964,28
11.196;-1,02;-1,59;-0,55;-6,29;-12,59;-0,15;0,25;-1,28;-4,01;964,28
11.207;-1,02;-1,59;-0,55;-6,29;-12,59;-0,15;0,25;-1,72;-3,11;964,28
11.21;-1,02;-1,59;-0,55;-6,72;-6,80;-2,47;0,25;-1,72;-3,11;964,28
11.226;-1,02;-1,59;-0,55;-6,72;-6,80;-2,47;0,25;-1,72;-3,11;964,29
11.254;-0,93;-1,33;-0,43;-6,72;-6,80;-2,47;0,25;-1,72;-3,11;964,29
11.254;-0,85;-1,01;-0,37;-6,72;-6,80;-2,47;0,25;-1,72;-3,11;964,29
11.255;-0,77;-0,81;-0,30;-6,72;-6,80;-2,47;0,25;-1,72;-3,11;964,29
11.266;-0,77;-0,81;-0,30;-6,72;-6,80;-2,47;0,55;-1,31;-1,94;964,29
11.266;-0,77;-0,81;-0,30;-5,48;1,30;-0,46;0,55;-1,31;-1,94;964,29
11.313;-0,71;-0,71;-0,27;-5,48;1,30;-0,46;0,55;-1,31;-1,94;964,29
11.314;-0,67;-0,51;-0,31;-5,48;1,30;-0,46;0,55;-1,31;-1,94;964,29
11.315;-0,56;-0,30;-0,30;-5,48;1,30;-0,46;0,55;-1,31;-1,94;964,29
11.327;-0,56;-0,30;-0,30;-5,48;1,30;-0,46;0,55;-1,31;-1,94;964,28
11.327;-0,56;-0,30;-0,30;-5,48;1,30;-0,46;0,76;-1,15;-0,67;964,28
11.327;-0,56;-0,30;-0,30;-4,13;6,60;-0,95;0,76;-1,15;-0,67;964,28
11.373;-0,45;-0,15;-0,24;-4,13;6,60;-0,95;0,76;-1,15;-0,67;964,28
11.374;-0,42;-0,04;-0,20;-4,13;6,60;-0,95;0,76;-1,15;-0,67;964,28
11.374;-0,41;0,04;-0,19;-4,13;6,60;-0,95;0,76;-1,15;-0,67;964,28
11.386;-0,41;0,04;-0,19;-4,13;6,60;-0,95;0,83;-0,22;0,42;964,28
11.387;-0,41;0,04;-0,19;-2,63;9,98;-0,43;0,83;-0,22;0,42;964,28
11.427;-0,41;0,04;-0,19;-2,63;9,98;-0,43;0,83;-0,22;0,42;964,27
11.433;-0,39;0,10;-0,21;-2,63;9,98;-0,43;0,83;-0,22;0,42;964,27
11.433;-0,38;0,18;-0,24;-2,63;9,98;-0,43;0,83;-0,22;0,42;964,27
11.434;-0,37;0,24;-0,21;-2,63;9,98;-0,43;0,83;-0,22;0,42;964,27
11.447;-0,37;0,24;-0,21;-2,63;9,98;-0,43;0,54;-0,32;0,65;964,27
11.448;-0,37;0,24;-0,21;-1,92;11,91;-1,02;0,54;-0,32;0,65;964,27
11.494;-0,39;0,22;-0,20;-1,92;11,91;-1,02;0,54;-0,32;0,65;964,27
11.495;-0,41;0,16;-0,23;-1,92;11,91;-1,02;0,54;-0,32;0,65;964,27
11.495;-0,41;0,12;-0,33;-1,92;11,91;-1,02;0,54;-0,32;0,65;964,27
11.507;-0,41;0,12;-0,33;-1,92;11,91;-1,02;0,32;0,07;1,32;964,27
11.507;-0,41;0,12;-0,33;-1,73;10,66;-2,50;0,32;0,07;1,32;964,27
11.528;-0,41;0,12;-0,33;-1,73;10,66;-2,50;0,32;0,07;1,32;964,26
11.554;-0,47;0,05;-0,35;-1,73;10,66;-2,50;0,32;0,07;1,32;964,26
11.555;-0,67;-0,20;-0,33;-1,73;10,66;-2,50;0,32;0,07;1,32;964,26
11.555;-0,80;-0,53;-0,27;-1,73;10,66;-2,50;0,32;0,07;1,32;964,26
11.566;-0,80;-0,53;-0,27;-1,73;10,66;-2,50;0,28;0,05;2,28;964,26
11.567;-0,80;-0,53;-0,27;-4,53;3,99;-2,05;0,28;0,05;2,28;964,26
11.614;-1,02;-0,95;-0,35;-4,53;3,99;-2,05;0,28;0,05;2,28;964,26
11.616;-1,44;-1,56;-0,32;-4,53;3,99;-2,05;0,28;0,05;2,28;964,26
11.616;-1,63;-1,87;-0,46;-4,53;3,99;-2,05;0,28;0,05;2,28;964,26
11.628;-1,63;-1,87;-0,46;-4,53;3,99;-2,05;0,28;0,05;2,28;964,29
11.628;-1,63;-1,87;-0,46;-4,53;3,99;-2,05;-0,15;-1,58;3,28;964,29
11.629;-1,63;-1,87;-0,46;-11,34;-9,74;-4,04;-0,15;-1,58;3,28;964,29
11.673;-1,44;-1,72;-0,57;-11,34;-9,74;-4,04;-0,15;-1,58;3,28;964,29
11.674;-1,36;-1,53;-0,68;-11,34;-9,74;-4,04;-0,15;-1,58;3,28;964,29
11.674;-1,40;-1,34;-0,54;-11,34;-9,74;-4,04;-0,15;-1,58;3,28;964,29
11.686;-1,40;-1,34;-0,54;-11,34;-9,74;-4,04;-0,56;-1,93;4,39;964,29
11.687;-1,40;-1,34;-0,54;-7,26;-5,82;-5,34;-0,56;-1,93;4,39;964,29
11.725;-1,40;-1,34;-0,54;-7,26;-5,82;-5,34;-0,56;-1,93;4,39;964,29
11.733;-1,33;-1,26;-0,42;-7,26;-5,82;-5,34;-0,56;-1,93;4,39;964,29
11.733;-1,38;-1,32;-0,51;-7,26;-5,82;-5,34;-0,56;-1,93;4,39;964,29
11.734;-1,63;-1,69;-0,79;-7,26;-5,82;-5,34;-0,56;-1,93;4,39;964,29
11.749;-1,63;-1,69;-0,79;-7,26;-5,82;-5,34;-1,06;0,47;5,62;964,29
11.75;-1,63;-1,69;-0,79;-7,64;-11,46;-7,98;-1,06;0,47;5,62;964,29
11.793;-2,05;-2,15;-0,72;-7,64;-11,46;-7,98;-1,06;0,47;5,62;964,29
11.794;-2,46;-2,31;-0,56;-7,64;-11,46;-7,98;-1,06;0,47;5,62;964,29
11.795;-2,40;-2,32;-0,73;-7,64;-11,46;-7,98;-1,06;0,47;5,62;964,29
11.806;-2,40;-2,32;-0,73;-7,64;-11,46;-7,98;-1,27;0,74;5,15;964,29
11.807;-2,40;-2,32;-0,73;-13,94;-20,47;-6,82;-1,27;0,74;5,15;964,29
11.827;-2,40;-2,32;-0,73;-13,94;-20,47;-6,82;-1,27;0,74;5,15;964,43
11.854;-2,17;-2,19;-0,77;-13,94;-20,47;-6,82;-1,27;0,74;5,15;964,43
11.855;-1,80;-1,79;-0,61;-13,94;-20,47;-6,82;-1,27;0,74;5,15;964,43
11.855;-1,27;-1,39;-0,54;-13,94;-20,47;-6,82;-1,27;0,74;5,15;964,43
11.866;-1,27;-1,39;-0,54;-13,94;-20,47;-6,82;-1,57;0,20;3,98;964,43
11.867;-1,27;-1,39;-0,54;-2,68;-14,32;-4,58;-1,57;0,20;3,98;964,43
11.915;-0,94;-1,09;-0,42;-2,68;-14,32;-4,58;-1,57;0,20;3,98;964,43
11.916;-0,72;-0,84;-0,25;-2,68;-14,32;-4,58;-1,57;0,20;3,98;964,43
11.916;-0,44;-0,65;-0,18;-2,68;-14,32;-4,58;-1,57;0,20;3,98;964,43
11.927;-0,44;-0,65;-0,18;-2,68;-14,32;-4,58;-1,57;0,20;3,98;964,57
11.928;-0,44;-0,65;-0,18;-2,68;-14,32;-4,58;-1,39;-0,51;2,48;964,57
11.928;-0,44;-0,65;-0,18;5,16;-8,99;-1,27;-1,39;-0,51;2,48;964,57
11.974;-0,21;-0,52;-0,12;5,16;-8,99;-1,27;-1,39;-0,51;2,48;964,57
11.974;-0,04;-0,43;-0,07;5,16;-8,99;-1,27;-1,39;-0,51;2,48;964,57
11.975;0,08;-0,34;-0,02;5,16;-8,99;-1,27;-1,39;-0,51;2,48;964,57
11.987;0,08;-0,34;-0,02;5,16;-8,99;-1,27;-1,00;-0,99;2,34;964,57
11.988;0,08;-0,34;-0,02;9,77;-7,30;-0,42;-1,00;-0,99;2,34;964,57
12.026;0,08;-0,34;-0,02;9,77;-7,30;-0,42;-1,00;-0,99;2,34;964,41
12.034;0,22;-0,27;0,01;9,77;-7,30;-0,42;-1,00;-0,99;2,34;964,41
12.034;0,31;-0,33;0,02;9,77;-7,30;-0,42;-1,00;-0,99;2,34;964,41
12.035;0,34;-0,34;-0,06;9,77;-7,30;-0,42;-1,00;-0,99;2,34;964,41
12.049;0,34;-0,34;-0,06;9,77;-7,30;-0,42;-0,76;0,17;1,53;964,41
12.05;0,34;-0,34;-0,06;11,81;-8,32;-1,32;-0,76;0,17;1,53;964,41
12.093;0,31;-0,31;-0,02;11,81;-8,32;-1,32;-0,76;0,17;1,53;964,41
12.094;0,31;-0,30;-0,01;11,81;-8,32;-1,32;-0,76;0,17;1,53;964,41
12.094;0,33;-0,28;0,02;11,81;-8,32;-1,32;-0,76;0,17;1,53;964,41
12.106;0,33;-0,28;0,02;11,81;-8,32;-1,32;-0,89;0,74;0,61;964,41
12.106;0,33;-0,28;0,02;11,37;-8,24;-0,61;-0,89;0,74;0,61;964,41
12.127;0,33;-0,28;0,02;11,37;-8,24;-0,61;-0,89;0,74;0,61;964,28
12.153;0,33;-0,28;0,04;11,37;-8,24;-0,61;-0,89;0,74;0,61;964,28
12.154;0,31;-0,28;0,01;11,37;-8,24;-0,61;-0,89;0,74;0,61;964,28
12.154;0,27;-0,31;-0,04;11,37;-8,24;-0,61;-0,89;0,74;0,61;964,28
12.173;0,27;-0,31;-0,04;11,37;-8,24;-0,61;-1,37;1,58;-0,44;964,28
12.174;0,27;-0,31;-0,04;10,78;-8,55;-0,97;-1,37;1,58;-0,44;964,28
12.216;0,23;-0,29;-0,05;10,78;-8,55;-0,97;-1,37;1,58;-0,44;964,28
12.217;0,17;-0,27;-0,03;10,78;-8,55;-0,97;-1,37;1,58;-0,44;964,28
12.217;0,12;-0,21;-0,04;10,78;-8,55;-0,97;-1,37;1,58;-0,44;964,28
12.226;0,12;-0,21;-0,04;10,78;-8,55;-0,97;-1,37;1,58;-0,44;964,21
12.226;0,12;-0,21;-0,04;10,78;-8,55;-0,97;-1,47;1,98;-1,97;964,21
12.227;0,12;-0,21;-0,04;9,65;-7,09;-0,59;-1,47;1,98;-1,97;964,21
12.273;-0,02;-0,12;-0,07;9,65;-7,09;-0,59;-1,47;1,98;-1,97;964,21
12.274;-0,48;0,06;-0,12;9,65;-7,09;-0,59;-1,47;1,98;-1,97;964,21
12.274;-1,07;0,10;-0,11;9,65;-7,09;-0,59;-1,47;1,98;-1,97;964,21
12.286;-1,07;0,10;-0,11;9,65;-7,09;-0,59;-2,04;-0,55;-5,57;964,21
12.287;-1,07;0,10;-0,11;-1,25;-2,29;-1,16;-2,04;-0,55;-5,57;964,21
12.329;-1,07;0,10;-0,11;-1,25;-2,29;-1,16;-2,04;-0,55;-5,57;964,32
12.335;-1,52;-0,10;0,07;-1,25;-2,29;-1,16;-2,04;-0,55;-5,57;964,32
12.335;-1,40;-0,48;0,14;-1,25;-2,29;-1,16;-2,04;-0,55;-5,57;964,32
12.335;-1,74;-0,91;-0,10;-1,25;-2,29;-1,16;-2,04;-0,55;-5,57;964,32
12.347;-1,74;-0,91;-0,10;-1,25;-2,29;-1,16;-1,56;2,93;-7,98;964,32
12.348;-1,74;-0,91;-0,10;-7,26;-8,22;-0,87;-1,56;2,93;-7,98;964,32
12.396;-2,33;-1,25;-0,41;-7,26;-8,22;-0,87;-1,56;2,93;-7,98;964,32
12.397;-2,63;-1,55;-0,53;-7,26;-8,22;-0,87;-1,56;2,93;-7,98;964,32
12.397;-2,35;-1,71;-0,37;-7,26;-8,22;-0,87;-1,56;2,93;-7,98;964,32
12.406;-2,35;-1,71;-0,37;-7,26;-8,22;-0,87;-1,07;-2,58;-8,57;964,32
12.406;-2,35;-1,71;-0,37;-14,88;-11,39;-2,88;-1,07;-2,58;-8,57;964,32
12.426;-2,35;-1,71;-0,37;-14,88;-11,39;-2,88;-1,07;-2,58;-8,57;964,41
12.454;-1,86;-1,88;-0,06;-14,88;-11,39;-2,88;-1,07;-2,58;-8,57;964,41
12.454;-1,47;-1,73;0,15;-14,88;-11,39;-2,88;-1,07;-2,58;-8,57;964,41
12.455;-1,14;-1,70;0,23;-14,88;-11,39;-2,88;-1,07;-2,58;-8,57;964,41
12.469;-1,14;-1,70;0,23;-14,88;-11,39;-2,88;-1,01;-1,12;-6,13;964,41
12.469;-1,14;-1,70;0,23;-6,15;-8,22;2,56;-1,01;-1,12;-6,13;964,41
12.515;-0,94;-1,91;0,37;-6,15;-8,22;2,56;-1,01;-1,12;-6,13;964,41
12.516;-1,22;-2,33;0,34;-6,15;-8,22;2,56;-1,01;-1,12;-6,13;964,41
12.516;-1,31;-2,44;0,17;-6,15;-8,22;2,56;-1,01;-1,12;-6,13;964,41
12.526;-1,31;-2,44;0,17;-6,15;-8,22;2,56;-1,02;-2,71;-4,41;964,41
12.527;-1,31;-2,44;0,17;-6,15;-8,22;2,56;-1,02;-2,71;-4,41;964,39
12.528;-1,31;-2,44;0,17;-10,92;-14,31;2,33;-1,02;-2,71;-4,41;964,39
12.573;-1,11;-2,31;0,03;-10,92;-14,31;2,33;-1,02;-2,71;-4,41;964,39
12.574;-0,91;-1,93;-0,02;-10,92;-14,31;2,33;-1,02;-2,71;-4,41;964,39
12.574;-0,84;-1,54;-0,23;-10,92;-14,31;2,33;-1,02;-2,71;-4,41;964,39
12.588;-0,84;-1,54;-0,23;-10,92;-14,31;2,33;0,37;-3,11;-1,91;964,39
12.588;-0,84;-1,54;-0,23;-8,07;-5,32;-1,56;0,37;-3,11;-1,91;964,39
12.626;-0,84;-1,54;-0,23;-8,07;-5,32;-1,56;0,37;-3,11;-1,91;964,37
12.633;-0,80;-1,19;-0,30;-8,07;-5,32;-1,56;0,37;-3,11;-1,91;964,37
12.634;-0,76;-0,86;-0,24;-8,07;-5,32;-1,56;0,37;-3,11;-1,91;964,37
12.634;-0,69;-0,58;-0,15;-8,07;-5,32;-1,56;0,37;-3,11;-1,91;964,37
12.649;-0,69;-0,58;-0,15;-8,07;-5,32;-1,56;0,65;-1,72;-0,67;964,37
12.649;-0,69;-0,58;-0,15;-7,23;4,06;-1,09;0,65;-1,72;-0,67;964,37
12.693;-0,66;-0,47;-0,11;-7,23;4,06;-1,09;0,65;-1,72;-0,67;964,37
12.694;-0,63;-0,36;-0,11;-7,23;4,06;-1,09;0,65;-1,72;-0,67;964,37
12.694;-0,54;-0,22;-0,12;-7,23;4,06;-1,09;0,65;-1,72;-0,67;964,37
12.706;-0,54;-0,22;-0,12;-7,23;4,06;-1,09;0,66;-2,59;-0,16;964,37
12.707;-0,54;-0,22;-0,12;-5,97;7,65;-1,07;0,66;-2,59;-0,16;964,37
12.726;-0,54;-0,22;-0,12;-5,97;7,65;-1,07;0,66;-2,59;-0,16;964,29
12.753;-0,40;-0,09;-0,12;-5,97;7,65;-1,07;0,66;-2,59;-0,16;964,29
12.754;-0,33;-0,00;-0,12;-5,97;7,65;-1,07;0,66;-2,59;-0,16;964,29
12.754;-0,31;0,07;-0,09;-5,97;7,65;-1,07;0,66;-2,59;-0,16;964,29
12.767;-0,31;0,07;-0,09;-5,97;7,65;-1,07;0,58;-2,38;0,15;964,29
12.767;-0,31;0,07;-0,09;-3,71;10,49;-1,04;0,58;-2,38;0,15;964,29
12.815;-0,34;0,13;-0,06;-3,71;10,49;-1,04;0,58;-2,38;0,15;964,29
12.816;-0,32;0,17;-0,08;-3,71;10,49;-1,04;0,58;-2,38;0,15;964,29
12.816;-0,36;0,18;-0,09;-3,71;10,49;-1,04;0,58;-2,38;0,15;964,29
12.827;-0,36;0,18;-0,09;-3,71;10,49;-1,04;0,58;-2,38;0,15;964,29
12.827;-0,36;0,18;-0,09;-3,71;10,49;-1,04;0,53;-2,15;0,24;964,29
12.828;-0,36;0,18;-0,09;-4,10;11,56;-1,28;0,53;-2,15;0,24;964,29
12.873;-0,31;0,15;-0,15;-4,10;11,56;-1,28;0,53;-2,15;0,24;964,29
12.875;-0,32;0,08;-0,21;-4,10;11,56;-1,28;0,53;-2,15;0,24;964,29
12.875;-0,29;-0,05;-0,27;-4,10;11,56;-1,28;0,53;-2,15;0,24;964,29
12.893;-0,29;-0,05;-0,27;-4,10;11,56;-1,28;0,44;-1,83;0,87;964,29
12.893;-0,29;-0,05;-0,27;-3,18;9,28;-3,24;0,44;-1,83;0,87;964,29
12.926;-0,29;-0,05;-0,27;-3,18;9,28;-3,24;0,44;-1,83;0,87;964,32
12.935;-0,28;-0,37;-0,29;-3,18;9,28;-3,24;0,44;-1,83;0,87;964,32
12.936;-0,59;-0,98;-0,41;-3,18;9,28;-3,24;0,44;-1,83;0,87;964,32
12.936;-1,09;-1,55;-0,73;-3,18;9,28;-3,24;0,44;-1,83;0,87;964,32
12.947;-1,09;-1,55;-0,73;-3,18;9,28;-3,24;0,44;-1,79;1,83;964,32
12.947;-1,09;-1,55;-0,73;-10,45;-5,47;-8,15;0,44;-1,79;1,83;964,32
12.993;-1,41;-2,21;-1,14;-10,45;-5,47;-8,15;0,44;-1,79;1,83;964,32
12.994;-1,24;-2,29;-0,98;-10,45;-5,47;-8,15;0,44;-1,79;1,83;964,32
12.994;-1,13;-2,21;-0,79;-10,45;-5,47;-8,15;0,44;-1,79;1,83;964,32
13.007;-1,13;-2,21;-0,79;-10,45;-5,47;-8,15;-0,20;-2,38;3,62;964,32
13.008;-1,13;-2,21;-0,79;-9,48;-12,00;-8,77;-0,20;-2,38;3,62;964,32
13.025;-1,13;-2,21;-0,79;-9,48;-12,00;-8,77;-0,20;-2,38;3,62;964,41
13.053;-1,12;-2,08;-0,65;-9,48;-12,00;-8,77;-0,20;-2,38;3,62;964,41
13.054;-1,26;-2,04;-0,59;-9,48;-12,00;-8,77;-0,20;-2,38;3,62;964,41
13.054;-1,47;-1,90;-0,33;-9,48;-12,00;-8,77;-0,20;-2,38;3,62;964,41
13.069;-1,47;-1,90;-0,33;-9,48;-12,00;-8,77;-0,30;-0,74;4,81;964,41
13.07;-1,47;-1,90;-0,33;-10,58;-9,71;-4,39;-0,30;-0,74;4,81;964,41
13.114;-1,30;-1,44;-0,31;-10,58;-9,71;-4,39;-0,30;-0,74;4,81;964,41
13.115;-1,16;-1,14;-0,36;-10,58;-9,71;-4,39;-0,30;-0,74;4,81;964,41
13.116;-1,09;-1,09;-0,47;-10,58;-9,71;-4,39;-0,30;-0,74;4,81;964,41
13.127;-1,09;-1,09;-0,47;-10,58;-9,71;-4,39;-0,30;-0,74;4,81;964,41
13.128;-1,09;-1,09;-0,47;-10,58;-9,71;-4,39;-0,03;0,04;6,01;964,41
13.128;-1,09;-1,09;-0,47;-4,28;-3,32;-5,79;-0,03;0,04;6,01;964,41
13.176;-1,21;-1,19;-0,39;-4,28;-3,32;-5,79;-0,03;0,04;6,01;964,41
13.177;-1,25;-1,23;-0,32;-4,28;-3,32;-5,79;-0,03;0,04;6,01;964,41
13.177;-1,43;-1,31;-0,22;-4,28;-3,32;-5,79;-0,03;0,04;6,01;964,41
13.194;-1,43;-1,31;-0,22;-4,28;-3,32;-5,79;-0,38;0,83;6,40;964,41
13.194;-1,43;-1,31;-0,22;-5,39;-8,30;-3,05;-0,38;0,83;6,40;964,41
13.225;-1,43;-1,31;-0,22;-5,39;-8,30;-3,05;-0,38;0,83;6,40;964,35
13.234;-1,66;-1,37;-0,06;-5,39;-8,30;-3,05;-0,38;0,83;6,40;964,35
13.235;-1,56;-1,22;-0,14;-5,39;-8,30;-3,05;-0,38;0,83;6,40;964,35
13.235;-1,59;-1,10;-0,16;-5,39;-8,30;-3,05;-0,38;0,83;6,40;964,35
13.246;-1,59;-1,10;-0,16;-5,39;-8,30;-3,05;-1,17;1,57;4,75;964,35
13.251;-1,59;-1,10;-0,16;-5,89;-9,53;-1,72;-1,17;1,57;4,75;964,35
13.293;-1,63;-1,07;-0,05;-5,89;-9,53;-1,72;-1,17;1,57;4,75;964,35
13.294;-1,29;-0,88;0,01;-5,89;-9,53;-1,72;-1,17;1,57;4,75;964,35
13.294;-0,82;-0,66;0,04;-5,89;-9,53;-1,72;-1,17;1,57;4,75;964,35
13.307;-0,82;-0,66;0,04;-5,89;-9,53;-1,72;-0,92;0,29;3,27;964,35
13.308;-0,82;-0,66;0,04;1,74;-7,56;0,79;-0,92;0,29;3,27;964,35
13.325;-0,82;-0,66;0,04;1,74;-7,56;0,79;-0,92;0,29;3,27;964,38
13.354;-0,46;-0,59;0,05;1,74;-7,56;0,79;-0,92;0,29;3,27;964,38
13.356;-0,20;-0,49;0,06;1,74;-7,56;0,79;-0,92;0,29;3,27;964,38
13.357;-0,05;-0,43;0,07;1,74;-7,56;0,79;-0,92;0,29;3,27;964,38
13.368;-0,05;-0,43;0,07;1,74;-7,56;0,79;-0,32;0,12;2,80;964,38
13.369;-0,05;-0,43;0,07;8,88;-7,00;1,07;-0,32;0,12;2,80;964,38
13.413;0,04;-0,35;0,05;8,88;-7,00;1,07;-0,32;0,12;2,80;964,38
13.414;0,13;-0,39;0,02;8,88;-7,00;1,07;-0,32;0,12;2,80;964,38
13.414;0,16;-0,47;0,04;8,88;-7,00;1,07;-0,32;0,12;2,80;964,38
13.426;0,16;-0,47;0,04;8,88;-7,00;1,07;-0,32;0,12;2,80;964,25
13.427;0,16;-0,47;0,04;8,88;-7,00;1,07;0,03;0,71;2,09;964,25
13.427;0,16;-0,47;0,04;10,34;-8,86;0,97;0,03;0,71;2,09;964,25
13.473;0,16;-0,45;-0,01;10,34;-8,86;0,97;0,03;0,71;2,09;964,25
13.474;0,20;-0,41;-0,05;10,34;-8,86;0,97;0,03;0,71;2,09;964,25
13.474;0,26;-0,34;-0,08;10,34;-8,86;0,97;0,03;0,71;2,09;964,25
13.491;0,26;-0,34;-0,08;10,34;-8,86;0,97;-0,02;0,48;1,10;964,25
13.492;0,26;-0,34;-0,08;10,90;-8,41;0,11;-0,02;0,48;1,10;964,25
13.526;0,26;-0,34;-0,08;10,90;-8,41;0,11;-0,02;0,48;1,10;964,22
13.534;0,30;-0,27;-0,07;10,90;-8,41;0,11;-0,02;0,48;1,10;964,22
13.534;0,31;-0,26;-0,05;10,90;-8,41;0,11;-0,02;0,48;1,10;964,22
13.535;0,28;-0,23;-0,12;10,90;-8,41;0,11;-0,02;0,48;1,10;964,22
13.547;0,28;-0,23;-0,12;10,90;-8,41;0,11;0,05;1,42;-0,27;964,22
13.548;0,28;-0,23;-0,12;10,81;-7,59;0,11;0,05;1,42;-0,27;964,22
13.593;0,22;-0,20;-0,18;10,81;-7,59;0,11;0,05;1,42;-0,27;964,22
13.594;0,18;-0,21;-0,28;10,81;-7,59;0,11;0,05;1,42;-0,27;964,22
13.594;0,19;-0,12;-0,39;10,81;-7,59;0,11;0,05;1,42;-0,27;964,22
13.607;0,19;-0,12;-0,39;10,81;-7,59;0,11;0,23;2,75;-1,97;964,22
13.608;0,19;-0,12;-0,39;10,02;-6,11;-1,48;0,23;2,75;-1,97;964,22
13.625;0,19;-0,12;-0,39;10,02;-6,11;-1,48;0,23;2,75;-1,97;964,19
13.654;0,09;0,07;-0,66;10,02;-6,11;-1,48;0,23;2,75;-1,97;964,19
13.655;-0,16;0,19;-0,69;10,02;-6,11;-1,48;0,23;2,75;-1,97;964,19
13.656;-0,55;0,23;-0,58;10,02;-6,11;-1,48;0,23;2,75;-1,97;964,19
13.667;-0,55;0,23;-0,58;10,02;-6,11;-1,48;0,46;-1,22;-6,91;964,19
13.668;-0,55;0,23;-0,58;3,33;-0,79;-2,51;0,46;-1,22;-6,91;964,19
13.715;-1,05;0,14;-0,53;3,33;-0,79;-2,51;0,46;-1,22;-6,91;964,19
13.716;-1,34;-0,33;-0,34;3,33;-0,79;-2,51;0,46;-1,22;-6,91;964,19
13.716;-1,64;-1,19;0,13;3,33;-0,79;-2,51;0,46;-1,22;-6,91;964,19
13.726;-1,64;-1,19;0,13;3,33;-0,79;-2,51;0,46;-1,22;-6,91;964,30
13.727;-1,64;-1,19;0,13;3,33;-0,79;-2,51;0,04;0,09;-10,40;964,30
13.727;-1,64;-1,19;0,13;-6,71;-9,62;3,17;0,04;0,09;-10,40;964,30
13.774;-1,74;-1,87;-0,31;-6,71;-9,62;3,17;0,04;0,09;-10,40;964,30
13.775;-2,01;-2,18;-0,78;-6,71;-9,62;3,17;0,04;0,09;-10,40;964,30
13.775;-2,01;-2,15;-0,79;-6,71;-9,62;3,17;0,04;0,09;-10,40;964,30
13.792;-2,01;-2,15;-0,79;-6,71;-9,62;3,17;0,63;-0,06;-8,85;964,30
13.793;-2,01;-2,15;-0,79;-13,29;-14,27;-4,87;0,63;-0,06;-8,85;964,30
13.826;-2,01;-2,15;-0,79;-13,29;-14,27;-4,87;0,63;-0,06;-8,85;964,35
13.833;-1,55;-2,01;-0,51;-13,29;-14,27;-4,87;0,63;-0,06;-8,85;964,35
13.834;-1,19;-2,04;-0,28;-13,29;-14,27;-4,87;0,63;-0,06;-8,85;964,35
13.834;-0,95;-2,13;-0,38;-13,29;-14,27;-4,87;0,63;-0,06;-8,85;964,35
13.847;-0,95;-2,13;-0,38;-13,29;-14,27;-4,87;0,12;-2,24;-5,38;964,35
13.848;-0,95;-2,13;-0,38;-6,25;-11,81;-1,51;0,12;-2,24;-5,38;964,35
13.893;-0,71;-2,22;-0,29;-6,25;-11,81;-1,51;0,12;-2,24;-5,38;964,35
13.894;-0,79;-2,28;-0,21;-6,25;-11,81;-1,51;0,12;-2,24;-5,38;964,35
13.894;-1,11;-2,36;-0,29;-6,25;-11,81;-1,51;0,12;-2,24;-5,38;964,35
13.906;-1,11;-2,36;-0,29;-6,25;-11,81;-1,51;-0,52;-0,75;-4,36;964,35
13.907;-1,11;-2,36;-0,29;-10,57;-13,61;-0,71;-0,52;-0,75;-4,36;964,35
13.926;-1,11;-2,36;-0,29;-10,57;-13,61;-0,71;-0,52;-0,75;-4,36;964,32
13.955;-1,07;-2,12;-0,26;-10,57;-13,61;-0,71;-0,52;-0,75;-4,36;964,32
13.956;-0,77;-1,86;-0,15;-10,57;-13,61;-0,71;-0,52;-0,75;-4,36;964,32
13.956;-0,65;-1,55;-0,31;-10,57;-13,61;-0,71;-0,52;-0,75;-4,36;964,32
13.966;-0,65;-1,55;-0,31;-10,57;-13,61;-0,71;0,45;-0,88;-2,80;964,32
13.967;-0,65;-1,55;-0,31;-8,01;-5,76;-0,72;0,45;-0,88;-2,80;964,32
14.013;-0,76;-1,25;-0,41;-8,01;-5,76;-0,72;0,45;-0,88;-2,80;964,32
14.013;-0,77;-0,97;-0,34;-8,01;-5,76;-0,72;0,45;-0,88;-2,80;964,32
14.014;-0,76;-0,76;-0,25;-8,01;-5,76;-0,72;0,45;-0,88;-2,80;964,32
14.026;-0,76;-0,76;-0,25;-8,01;-5,76;-0,72;0,45;-0,88;-2,80;964,29
14.026;-0,76;-0,76;-0,25;-8,01;-5,76;-0,72;0,94;0,35;-1,07;964,29
14.027;-0,76;-0,76;-0,25;-10,23;1,71;-0,49;0,94;0,35;-1,07;964,29
14.078;-0,77;-0,57;-0,22;-10,23;1,71;-0,49;0,94;0,35;-1,07;964,29
14.078;-0,65;-0,41;-0,22;-10,23;1,71;-0,49;0,94;0,35;-1,07;964,29
14.079;-0,57;-0,27;-0,24;-10,23;1,71;-0,49;0,94;0,35;-1,07;964,29
14.086;-0,57;-0,27;-0,24;-10,23;1,71;-0,49;1,13;-0,31;0,54;964,29
14.087;-0,57;-0,27;-0,24;-8,51;6,58;-0,99;1,13;-0,31;0,54;964,29
14.125;-0,57;-0,27;-0,24;-8,51;6,58;-0,99;1,13;-0,31;0,54;964,25
14.134;-0,46;-0,17;-0,29;-8,51;6,58;-0,99;1,13;-0,31;0,54;964,25
14.135;-0,31;-0,02;-0,31;-8,51;6,58;-0,99;1,13;-0,31;0,54;964,25
14.135;-0,24;0,17;-0,44;-8,51;6,58;-0,99;1,13;-0,31;0,54;964,25
14.146;-0,24;0,17;-0,44;-8,51;6,58;-0,99;0,54;-0,11;0,66;964,25
14.146;-0,24;0,17;-0,44;-4,82;11,09;-3,49;0,54;-0,11;0,66;964,25
14.193;-0,25;0,33;-0,46;-4,82;11,09;-3,49;0,54;-0,11;0,66;964,25
14.194;-0,34;0,33;-0,38;-4,82;11,09;-3,49;0,54;-0,11;0,66;964,25
14.194;-0,41;0,26;-0,30;-4,82;11,09;-3,49;0,54;-0,11;0,66;964,25
14.207;-0,41;0,26;-0,30;-4,82;11,09;-3,49;-0,05;-0,59;0,58;964,25
14.207;-0,41;0,26;-0,30;-6,20;12,06;-2,15;-0,05;-0,59;0,58;964,25
14.225;-0,41;0,26;-0,30;-6,20;12,06;-2,15;-0,05;-0,59;0,58;964,22
14.253;-0,40;0,21;-0,26;-6,20;12,06;-2,15;-0,05;-0,59;0,58;964,22
14.254;-0,41;0,09;-0,19;-6,20;12,06;-2,15;-0,05;-0,59;0,58;964,22
14.255;-0,43;-0,06;-0,18;-6,20;12,06;-2,15;-0,05;-0,59;0,58;964,22
14.267;-0,43;-0,06;-0,18;-6,20;12,06;-2,15;0,04;0,52;1,61;964,22
14.268;-0,43;-0,06;-0,18;-5,77;9,05;-0,88;0,04;0,52;1,61;964,22
14.314;-0,50;-0,20;-0,29;-5,77;9,05;-0,88;0,04;0,52;1,61;964,22
14.315;-0,58;-0,43;-0,40;-5,77;9,05;-0,88;0,04;0,52;1,61;964,22
14.315;-0,76;-0,75;-0,48;-5,77;9,05;-0,88;0,04;0,52;1,61;964,22
14.327;-0,76;-0,75;-0,48;-5,77;9,05;-0,88;0,04;0,52;1,61;964,23
14.327;-0,76;-0,75;-0,48;-5,77;9,05;-0,88;-0,54;2,12;2,73;964,23
14.328;-0,76;-0,75;-0,48;-7,86;2,46;-3,81;-0,54;2,12;2,73;964,23
14.373;-1,10;-1,17;-0,65;-7,86;2,46;-3,81;-0,54;2,12;2,73;964,23
14.374;-1,35;-1,59;-0,73;-7,86;2,46;-3,81;-0,54;2,12;2,73;964,23
14.374;-1,47;-1,85;-0,64;-7,86;2,46;-3,81;-0,54;2,12;2,73;964,23
14.392;-1,47;-1,85;-0,64;-7,86;2,46;-3,81;-1,97;0,96;2,73;964,23
14.393;-1,47;-1,85;-0,64;-13,37;-8,53;-4,59;-1,97;0,96;2,73;964,23
14.426;-1,47;-1,85;-0,64;-13,37;-8,53;-4,59;-1,97;0,96;2,73;964,26
14.434;-1,61;-1,98;-0,65;-13,37;-8,53;-4,59;-1,97;0,96;2,73;964,26
14.435;-1,72;-2,11;-0,62;-13,37;-8,53;-4,59;-1,97;0,96;2,73;964,26
14.435;-2,03;-2,18;-0,63;-13,37;-8,53;-4,59;-1,97;0,96;2,73;964,26
14.446;-2,03;-2,18;-0,63;-13,37;-8,53;-4,59;-1,92;0,03;4,21;964,26
14.446;-2,03;-2,18;-0,63;-17,21;-12,40;-3,37;-1,92;0,03;4,21;964,26
14.493;-1,98;-2,19;-0,58;-17,21;-12,40;-3,37;-1,92;0,03;4,21;964,26
14.494;-1,92;-2,17;-0,44;-17,21;-12,40;-3,37;-1,92;0,03;4,21;964,26
14.494;-2,15;-2,50;-0,36;-17,21;-12,40;-3,37;-1,92;0,03;4,21;964,26
14.507;-2,15;-2,50;-0,36;-17,21;-12,40;-3,37;-0,97;-1,73;7,72;964,26
14.508;-2,15;-2,50;-0,36;-15,51;-17,22;-0,03;-0,97;-1,73;7,72;964,26
14.525;-2,15;-2,50;-0,36;-15,51;-17,22;-0,03;-0,97;-1,73;7,72;964,33
14.554;-2,34;-2,98;-0,22;-15,51;-17,22;-0,03;-0,97;-1,73;7,72;964,33
14.555;-2,33;-3,31;-0,26;-15,51;-17,22;-0,03;-0,97;-1,73;7,72;964,33
14.556;-2,22;-3,35;-0,27;-15,51;-17,22;-0,03;-0,97;-1,73;7,72;964,33
14.568;-2,22;-3,35;-0,27;-15,51;-17,22;-0,03;-0,51;0,78;8,02;964,33
14.568;-2,22;-3,35;-0,27;-13,22;-29,23;0,66;-0,51;0,78;8,02;964,33
14.614;-1,79;-3,09;-0,17;-13,22;-29,23;0,66;-0,51;0,78;8,02;964,33
14.615;-1,17;-2,46;-0,08;-13,22;-29,23;0,66;-0,51;0,78;8,02;964,33
14.615;-0,56;-1,81;-0,06;-13,22;-29,23;0,66;-0,51;0,78;8,02;964,33
14.626;-0,56;-1,81;-0,06;-13,22;-29,23;0,66;-0,51;0,78;8,02;964,45
14.626;-0,56;-1,81;-0,06;-13,22;-29,23;0,66;0,55;-0,58;5,54;964,45
14.627;-0,56;-1,81;-0,06;3,62;-17,96;2,94;0,55;-0,58;5,54;964,45
14.679;-0,28;-1,41;-0,21;3,62;-17,96;2,94;0,55;-0,58;5,54;964,45
14.679;-0,13;-1,03;-0,37;3,62;-17,96;2,94;0,55;-0,58;5,54;964,45
14.68;-0,05;-0,75;-0,34;3,62;-17,96;2,94;0,55;-0,58;5,54;964,45
14.687;-0,05;-0,75;-0,34;3,62;-17,96;2,94;0,38;-0,70;4,20;964,45
14.687;-0,05;-0,75;-0,34;8,33;-10,09;-0,10;0,38;-0,70;4,20;964,45
14.725;-0,05;-0,75;-0,34;8,33;-10,09;-0,10;0,38;-0,70;4,20;964,27
14.734;0,06;-0,58;-0,25;8,33;-10,09;-0,10;0,38;-0,70;4,20;964,27
14.734;0,24;-0,55;-0,18;8,33;-10,09;-0,10;0,38;-0,70;4,20;964,27
14.735;0,38;-0,48;-0,15;8,33;-10,09;-0,10;0,38;-0,70;4,20;964,27
14.747;0,38;-0,48;-0,15;8,33;-10,09;-0,10;0,24;-1,77;2,81;964,27
14.748;0,38;-0,48;-0,15;11,96;-9,25;1,19;0,24;-1,77;2,81;964,27
14.793;0,51;-0,43;-0,11;11,96;-9,25;1,19;0,24;-1,77;2,81;964,27
14.794;0,53;-0,37;-0,05;11,96;-9,25;1,19;0,24;-1,77;2,81;964,27
14.795;0,49;-0,36;-0,00;11,96;-9,25;1,19;0,24;-1,77;2,81;964,27
14.809;0,49;-0,36;-0,00;11,96;-9,25;1,19;0,22;-1,18;1,22;964,27
14.81;0,49;-0,36;-0,00;12,69;-9,01;1,92;0,22;-1,18;1,22;964,27
14.825;0,49;-0,36;-0,00;12,69;-9,01;1,92;0,22;-1,18;1,22;964,15
14.853;0,45;-0,33;-0,02;12,69;-9,01;1,92;0,22;-1,18;1,22;964,15
14.854;0,43;-0,33;-0,07;12,69;-9,01;1,92;0,22;-1,18;1,22;964,15
14.855;0,41;-0,34;-0,11;12,69;-9,01;1,92;0,22;-1,18;1,22;964,15
14.867;0,41;-0,34;-0,11;12,69;-9,01;1,92;0,04;-0,06;-0,34;964,15
14.868;0,41;-0,34;-0,11;11,82;-9,04;0,63;0,04;-0,06;-0,34;964,15
14.914;0,39;-0,33;-0,14;11,82;-9,04;0,63;0,04;-0,06;-0,34;964,15
14.914;0,37;-0,30;-0,20;11,82;-9,04;0,63;0,04;-0,06;-0,34;964,15
14.915;0,33;-0,24;-0,22;11,82;-9,04;0,63;0,04;-0,06;-0,34;964,15
14.927;0,33;-0,24;-0,22;11,82;-9,04;0,63;0,04;-0,06;-0,34;964,13
14.928;0,33;-0,24;-0,22;11,82;-9,04;0,63;-0,22;0,63;-1,74;964,13
14.928;0,33;-0,24;-0,22;11,32;-7,70;-0,36;-0,22;0,63;-1,74;964,13
14.977;0,28;-0,16;-0,20;11,32;-7,70;-0,36;-0,22;0,63;-1,74;964,13
14.978;0,24;-0,12;-0,19;11,32;-7,70;-0,36;-0,22;0,63;-1,74;964,13
14.978;0,18;-0,03;-0,21;11,32;-7,70;-0,36;-0,22;0,63;-1,74;964,13
14.988;0,18;-0,03;-0,21;11,32;-7,70;-0,36;-0,15;1,33;-3,35;964,13
14.988;0,18;-0,03;-0,21;10,35;-4,48;0,14;-0,15;1,33;-3,35;964,13
15.025;0,18;-0,03;-0,21;10,35;-4,48;0,14;-0,15;1,33;-3,35;964,14
15.034;-0,14;0,06;-0,25;10,35;-4,48;0,14;-0,15;1,33;-3,35;964,14
15.035;-0,65;0,02;-0,24;10,35;-4,48;0,14;-0,15;1,33;-3,35;964,14
15.035;-1,27;-0,30;-0,31;10,35;-4,48;0,14;-0,15;1,33;-3,35;964,14
15.046;-1,27;-0,30;-0,31;10,35;-4,48;0,14;0,36;-0,43;-8,47;964,14
15.047;-1,27;-0,30;-0,31;-3,06;-4,11;-0,40;0,36;-0,43;-8,47;964,14
15.098;-1,56;-0,76;-0,37;-3,06;-4,11;-0,40;0,36;-0,43;-8,47;964,14
15.099;-1,82;-1,37;-0,43;-3,06;-4,11;-0,40;0,36;-0,43;-8,47;964,14
15.099;-2,01;-1,77;-0,70;-3,06;-4,11;-0,40;0,36;-0,43;-8,47;964,14
15.106;-2,01;-1,77;-0,70;-3,06;-4,11;-0,40;-0,33;2,86;-8,70;964,14
15.107;-2,01;-1,77;-0,70;-11,19;-13,71;-3,65;-0,33;2,86;-8,70;964,14
15.126;-2,01;-1,77;-0,70;-11,19;-13,71;-3,65;-0,33;2,86;-8,70;964,27
15.155;-2,08;-2,04;-0,69;-11,19;-13,71;-3,65;-0,33;2,86;-8,70;964,27
15.155;-1,94;-2,06;-0,69;-11,19;-13,71;-3,65;-0,33;2,86;-8,70;964,27
15.155;-1,82;-2,00;-0,78;-11,19;-13,71;-3,65;-0,33;2,86;-8,70;964,27
15.166;-1,82;-2,00;-0,78;-11,19;-13,71;-3,65;-0,08;-1,00;-7,61;964,27
15.166;-1,82;-2,00;-0,78;-12,44;-12,37;-3,86;-0,08;-1,00;-7,61;964,27
15.214;-1,42;-2,01;-0,57;-12,44;-12,37;-3,86;-0,08;-1,00;-7,61;964,27
15.214;-1,17;-2,04;-0,23;-12,44;-12,37;-3,86;-0,08;-1,00;-7,61;964,27
15.214;-0,85;-2,15;-0,18;-12,44;-12,37;-3,86;-0,08;-1,00;-7,61;964,27
15.23;-0,85;-2,15;-0,18;-12,44;-12,37;-3,86;-0,08;-1,00;-7,61;964,34
15.23;-0,85;-2,15;-0,18;-12,44;-12,37;-3,86;-0,38;-1,46;-5,10;964,34
15.231;-0,85;-2,15;-0,18;-5,92;-12,28;1,85;-0,38;-1,46;-5,10;964,34
15.279;-0,48;-2,17;-0,10;-5,92;-12,28;1,85;-0,38;-1,46;-5,10;964,34
15.28;-0,54;-2,23;-0,17;-5,92;-12,28;1,85;-0,38;-1,46;-5,10;964,34
15.28;-0,73;-2,25;-0,34;-5,92;-12,28;1,85;-0,38;-1,46;-5,10;964,34
15.286;-0,73;-2,25;-0,34;-5,92;-12,28;1,85;0,56;-0,25;-4,33;964,34
15.287;-0,73;-2,25;-0,34;-7,05;-12,98;0,28;0,56;-0,25;-4,33;964,34
15.327;-0,73;-2,25;-0,34;-7,05;-12,98;0,28;0,56;-0,25;-4,33;964,33
15.334;-0,74;-2,12;-0,49;-7,05;-12,98;0,28;0,56;-0,25;-4,33;964,33
15.334;-0,74;-1,85;-0,61;-7,05;-12,98;0,28;0,56;-0,25;-4,33;964,33
15.334;-0,73;-1,51;-0,63;-7,05;-12,98;0,28;0,56;-0,25;-4,33;964,33
15.346;-0,73;-1,51;-0,63;-7,05;-12,98;0,28;0,93;-0,60;-2,99;964,33
15.347;-0,73;-1,51;-0,63;-9,14;-5,75;-2,94;0,93;-0,60;-2,99;964,33
15.395;-0,67;-1,13;-0,57;-9,14;-5,75;-2,94;0,93;-0,60;-2,99;964,33
15.396;-0,59;-0,81;-0,44;-9,14;-5,75;-2,94;0,93;-0,60;-2,99;964,33
15.396;-0,54;-0,59;-0,35;-9,14;-5,75;-2,94;0,93;-0,60;-2,99;964,33
15.409;-0,54;-0,59;-0,35;-9,14;-5,75;-2,94;0,91;-0,87;-1,20;964,33
15.409;-0,54;-0,59;-0,35;-8,33;3,10;-0,60;0,91;-0,87;-1,20;964,33
15.426;-0,54;-0,59;-0,35;-8,33;3,10;-0,60;0,91;-0,87;-1,20;964,26
15.455;-0,57;-0,45;-0,35;-8,33;3,10;-0,60;0,91;-0,87;-1,20;964,26
15.456;-0,54;-0,27;-0,35;-8,33;3,10;-0,60;0,91;-0,87;-1,20;964,26
15.456;-0,47;-0,12;-0,35;-8,33;3,10;-0,60;0,91;-0,87;-1,20;964,26
15.466;-0,47;-0,12;-0,35;-8,33;3,10;-0,60;0,79;-0,07;0,06;964,26
15.467;-0,47;-0,12;-0,35;-7,82;7,71;-0,95;0,79;-0,07;0,06;964,26
15.513;-0,42;-0,03;-0,37;-7,82;7,71;-0,95;0,79;-0,07;0,06;964,26
15.514;-0,41;0,08;-0,38;-7,82;7,71;-0,95;0,79;-0,07;0,06;964,26
15.514;-0,37;0,21;-0,37;-7,82;7,71;-0,95;0,79;-0,07;0,06;964,26
15.528;-0,37;0,21;-0,37;-7,82;7,71;-0,95;0,79;-0,07;0,06;964,22
15.529;-0,37;0,21;-0,37;-7,82;7,71;-0,95;0,56;0,40;0,54;964,22
15.529;-0,37;0,21;-0,37;-6,73;11,09;-1,57;0,56;0,40;0,54;964,22
15.578;-0,35;0,28;-0,36;-6,73;11,09;-1,57;0,56;0,40;0,54;964,22
15.579;-0,37;0,28;-0,35;-6,73;11,09;-1,57;0,56;0,40;0,54;964,22
15.579;-0,37;0,30;-0,35;-6,73;11,09;-1,57;0,56;0,40;0,54;964,22
15.586;-0,37;0,30;-0,35;-6,73;11,09;-1,57;0,09;0,92;0,75;964,22
15.587;-0,37;0,30;-0,35;-6,46;12,14;-1,65;0,09;0,92;0,75;964,22
15.628;-0,37;0,30;-0,35;-6,46;12,14;-1,65;0,09;0,92;0,75;964,21
15.633;-0,39;0,30;-0,32;-6,46;12,14;-1,65;0,09;0,92;0,75;964,21
15.633;-0,39;0,22;-0,32;-6,46;12,14;-1,65;0,09;0,92;0,75;964,21
15.634;-0,41;0,04;-0,33;-6,46;12,14;-1,65;0,09;0,92;0,75;964,21
15.645;-0,41;0,04;-0,33;-6,46;12,14;-1,65;-0,42;0,55;1,31;964,21
15.646;-0,41;0,04;-0,33;-6,41;9,76;-1,58;-0,42;0,55;1,31;964,21
15.694;-0,37;-0,13;-0,39;-6,41;9,76;-1,58;-0,42;0,55;1,31;964,21
15.694;-0,34;-0,37;-0,37;-6,41;9,76;-1,58;-0,42;0,55;1,31;964,21
15.695;-0,39;-0,83;-0,40;-6,41;9,76;-1,58;-0,42;0,55;1,31;964,21
15.706;-0,39;-0,83;-0,40;-6,41;9,76;-1,58;-1,19;-0,35;2,17;964,21
15.707;-0,39;-0,83;-0,40;-5,23;1,37;-1,88;-1,19;-0,35;2,17;964,21
15.726;-0,39;-0,83;-0,40;-5,23;1,37;-1,88;-1,19;-0,35;2,17;964,18
15.755;-0,54;-1,27;-0,52;-5,23;1,37;-1,88;-1,19;-0,35;2,17;964,18
15.756;-0,71;-1,64;-0,62;-5,23;1,37;-1,88;-1,19;-0,35;2,17;964,18
15.756;-0,79;-1,74;-0,78;-5,23;1,37;-1,88;-1,19;-0,35;2,17;964,18
15.767;-0,79;-1,74;-0,78;-5,23;1,37;-1,88;-1,25;-3,17;2,33;964,18
15.768;-0,79;-1,74;-0,78;-7,74;-7,68;-4,72;-1,25;-3,17;2,33;964,18
15.813;-0,78;-1,70;-0,88;-7,74;-7,68;-4,72;-1,25;-3,17;2,33;964,18
15.814;-0,77;-1,54;-0,88;-7,74;-7,68;-4,72;-1,25;-3,17;2,33;964,18
15.814;-0,80;-1,48;-0,93;-7,74;-7,68;-4,72;-1,25;-3,17;2,33;964,18
15.826;-0,80;-1,48;-0,93;-7,74;-7,68;-4,72;-1,25;-3,17;2,33;964,20
15.828;-0,80;-1,48;-0,93;-7,74;-7,68;-4,72;-0,67;-2,60;3,69;964,20
15.829;-0,80;-1,48;-0,93;-5,68;-5,45;-5,95;-0,67;-2,60;3,69;964,20
15.873;-0,87;-1,57;-0,80;-5,68;-5,45;-5,95;-0,67;-2,60;3,69;964,20
15.874;-1,02;-1,79;-0,77;-5,68;-5,45;-5,95;-0,67;-2,60;3,69;964,20
15.874;-1,47;-2,13;-0,91;-5,68;-5,45;-5,95;-0,67;-2,60;3,69;964,20
15.886;-1,47;-2,13;-0,91;-5,68;-5,45;-5,95;-0,27;-2,20;5,46;964,20
15.887;-1,47;-2,13;-0,91;-9,51;-12,93;-5,93;-0,27;-2,20;5,46;964,20
15.926;-1,47;-2,13;-0,91;-9,51;-12,93;-5,93;-0,27;-2,20;5,46;964,24
15.935;-2,06;-2,72;-1,24;-9,51;-12,93;-5,93;-0,27;-2,20;5,46;964,24
15.935;-2,55;-3,11;-1,27;-9,51;-12,93;-5,93;-0,27;-2,20;5,46;964,24
15.936;-2,46;-3,31;-1,26;-9,51;-12,93;-5,93;-0,27;-2,20;5,46;964,24
15.946;-2,46;-3,31;-1,26;-9,51;-12,93;-5,93;-0,05;-0,91;7,23;964,24
15.947;-2,46;-3,31;-1,26;-16,59;-26,68;-9,84;-0,05;-0,91;7,23;964,24
15.993;-2,05;-3,18;-1,12;-16,59;-26,68;-9,84;-0,05;-0,91;7,23;964,24
15.994;-1,90;-2,91;-1,07;-16,59;-26,68;-9,84;-0,05;-0,91;7,23;964,24
15.994;-1,88;-2,49;-1,02;-16,59;-26,68;-9,84;-0,05;-0,91;7,23;964,24
16.007;-1,88;-2,49;-1,02;-16,59;-26,68;-9,84;-0,60;-0,14;7,92;964,24
16.008;-1,88;-2,49;-1,02;-9,05;-22,81;-7,61;-0,60;-0,14;7,92;964,24
16.026;-1,88;-2,49;-1,02;-9,05;-22,81;-7,61;-0,60;-0,14;7,92;964,36
16.053;-1,51;-1,98;-0,81;-9,05;-22,81;-7,61;-0,60;-0,14;7,92;964,36
16.054;-0,98;-1,54;-0,61;-9,05;-22,81;-7,61;-0,60;-0,14;7,92;964,36
16.054;-0,44;-1,23;-0,42;-9,05;-22,81;-7,61;-0,60;-0,14;7,92;964,36
16.066;-0,44;-1,23;-0,42;-9,05;-22,81;-7,61;-0,55;-1,12;5,92;964,36
16.067;-0,44;-1,23;-0,42;4,99;-14,64;-2,22;-0,55;-1,12;5,92;964,36
16.113;-0,02;-1,11;-0,26;4,99;-14,64;-2,22;-0,55;-1,12;5,92;964,36
16.113;0,25;-0,96;-0,22;4,99;-14,64;-2,22;-0,55;-1,12;5,92;964,36
16.114;0,53;-0,75;-0,22;4,99;-14,64;-2,22;-0,55;-1,12;5,92;964,36
16.128;0,53;-0,75;-0,22;4,99;-14,64;-2,22;-0,55;-1,12;5,92;964,24
16.128;0,53;-0,75;-0,22;4,99;-14,64;-2,22;-0,32;0,66;4,96;964,24
16.129;0,53;-0,75;-0,22;13,13;-12,83;-0,61;-0,32;0,66;4,96;964,24
16.174;0,57;-0,65;-0,20;13,13;-12,83;-0,61;-0,32;0,66;4,96;964,24
16.175;0,58;-0,69;-0,17;13,13;-12,83;-0,61;-0,32;0,66;4,96;964,24
16.175;0,50;-0,65;-0,15;13,13;-12,83;-0,61;-0,32;0,66;4,96;964,24
16.188;0,50;-0,65;-0,15;13,13;-12,83;-0,61;-0,90;1,09;3,20;964,24
16.189;0,50;-0,65;-0,15;11,07;-13,72;0,38;-0,90;1,09;3,20;964,24
16.227;0,50;-0,65;-0,15;11,07;-13,72;0,38;-0,90;1,09;3,20;964,12
16.234;0,51;-0,58;-0,11;11,07;-13,72;0,38;-0,90;1,09;3,20;964,12
16.234;0,49;-0,53;-0,08;11,07;-13,72;0,38;-0,90;1,09;3,20;964,12
16.234;0,47;-0,49;-0,02;11,07;-13,72;0,38;-0,90;1,09;3,20;964,12
16.246;0,47;-0,49;-0,02;11,07;-13,72;0,38;-1,27;0,61;1,17;964,12
16.247;0,47;-0,49;-0,02;9,65;-13,03;1,44;-1,27;0,61;1,17;964,12
16.299;0,46;-0,46;0,06;9,65;-13,03;1,44;-1,27;0,61;1,17;964,12
16.3;0,40;-0,42;0,09;9,65;-13,03;1,44;-1,27;0,61;1,17;964,12
16.3;0,31;-0,34;0,10;9,65;-13,03;1,44;-1,27;0,61;1,17;964,12
16.306;0,31;-0,34;0,10;9,65;-13,03;1,44;-1,43;1,71;-0,59;964,12
16.306;0,31;-0,34;0,10;7,79;-11,85;2,21;-1,43;1,71;-0,59;964,12
16.325;0,31;-0,34;0,10;7,79;-11,85;2,21;-1,43;1,71;-0,59;964,13
16.354;0,20;-0,30;0,04;7,79;-11,85;2,21;-1,43;1,71;-0,59;964,13
16.355;0,18;-0,20;-0,04;7,79;-11,85;2,21;-1,43;1,71;-0,59;964,13
16.355;0,19;0,08;-0,20;7,79;-11,85;2,21;-1,43;1,71;-0,59;964,13
16.366;0,19;0,08;-0,20;7,79;-11,85;2,21;-1,42;2,40;-1,65;964,13
16.366;0,19;0,08;-0,20;6,93;-7,55;-0,78;-1,42;2,40;-1,65;964,13
16.414;0,19;0,40;-0,24;6,93;-7,55;-0,78;-1,42;2,40;-1,65;964,13
16.415;0,08;0,48;-0,14;6,93;-7,55;-0,78;-1,42;2,40;-1,65;964,13
16.415;-0,45;0,19;-0,03;6,93;-7,55;-0,78;-1,42;2,40;-1,65;964,13
16.429;-0,45;0,19;-0,03;6,93;-7,55;-0,78;-1,42;2,40;-1,65;964,15
16.43;-0,45;0,19;-0,03;6,93;-7,55;-0,78;-0,99;0,66;-5,48;964,15
16.43;-0,45;0,19;-0,03;2,10;-5,39;0,85;-0,99;0,66;-5,48;964,15
16.473;-0,80;0,01;-0,13;2,10;-5,39;0,85;-0,99;0,66;-5,48;964,15
16.474;-0,82;-0,21;-0,37;2,10;-5,39;0,85;-0,99;0,66;-5,48;964,15
16.474;-0,81;-0,59;-0,33;2,10;-5,39;0,85;-0,99;0,66;-5,48;964,15
16.486;-0,81;-0,59;-0,33;2,10;-5,39;0,85;-0,90;0,38;-9,82;964,15
16.486;-0,81;-0,59;-0,33;1,07;-9,65;-2,35;-0,90;0,38;-9,82;964,15
16.527;-0,81;-0,59;-0,33;1,07;-9,65;-2,35;-0,90;0,38;-9,82;964,25
16.535;-1,33;-1,31;-0,26;1,07;-9,65;-2,35;-0,90;0,38;-9,82;964,25
16.535;-2,01;-1,91;-0,46;1,07;-9,65;-2,35;-0,90;0,38;-9,82;964,25
16.536;-2,16;-2,16;-0,67;1,07;-9,65;-2,35;-0,90;0,38;-9,82;964,25
16.547;-2,16;-2,16;-0,67;1,07;-9,65;-2,35;-1,21;2,03;-10,14;964,25
16.547;-2,16;-2,16;-0,67;-11,73;-19,38;-4,47;-1,21;2,03;-10,14;964,25
16.593;-1,97;-2,37;-0,47;-11,73;-19,38;-4,47;-1,21;2,03;-10,14;964,25
16.594;-2,18;-2,65;-0,39;-11,73;-19,38;-4,47;-1,21;2,03;-10,14;964,25
16.594;-2,44;-2,88;-0,16;-11,73;-19,38;-4,47;-1,21;2,03;-10,14;964,25
16.606;-2,44;-2,88;-0,16;-11,73;-19,38;-4,47;-2,00;-1,24;-8,00;964,25
16.606;-2,44;-2,88;-0,16;-16,91;-21,68;0,71;-2,00;-1,24;-8,00;964,25
16.626;-2,44;-2,88;-0,16;-16,91;-21,68;0,71;-2,00;-1,24;-8,00;964,37
16.655;-2,19;-2,88;0,10;-16,91;-21,68;0,71;-2,00;-1,24;-8,00;964,37
16.655;-2,32;-2,79;0,02;-16,91;-21,68;0,71;-2,00;-1,24;-8,00;964,37
16.655;-2,24;-2,47;-0,03;-16,91;-21,68;0,71;-2,00;-1,24;-8,00;964,37
16.665;-2,24;-2,47;-0,03;-16,91;-21,68;0,71;-2,05;-3,69;-4,49;964,37
16.666;-2,24;-2,47;-0,03;-17,63;-15,88;2,52;-2,05;-3,69;-4,49;964,37
16.715;-1,87;-2,17;-0,02;-17,63;-15,88;2,52;-2,05;-3,69;-4,49;964,37
16.715;-1,54;-1,80;-0,08;-17,63;-15,88;2,52;-2,05;-3,69;-4,49;964,37
16.715;-1,28;-1,42;-0,08;-17,63;-15,88;2,52;-2,05;-3,69;-4,49;964,37
16.727;-1,28;-1,42;-0,08;-17,63;-15,88;2,52;-2,05;-3,69;-4,49;964,44
16.727;-1,28;-1,42;-0,08;-17,63;-15,88;2,52;-1,50;-4,02;-3,31;964,44
16.728;-1,28;-1,42;-0,08;-9,57;-4,99;2,06;-1,50;-4,02;-3,31;964,44
16.774;-1,06;-1,09;-0,12;-9,57;-4,99;2,06;-1,50;-4,02;-3,31;964,44
16.775;-0,89;-0,82;-0,12;-9,57;-4,99;2,06;-1,50;-4,02;-3,31;964,44
16.776;-0,67;-0,63;-0,09;-9,57;-4,99;2,06;-1,50;-4,02;-3,31;964,44
16.787;-0,67;-0,63;-0,09;-9,57;-4,99;2,06;-0,69;-2,48;-2,79;964,44
16.788;-0,67;-0,63;-0,09;-4,61;2,96;2,08;-0,69;-2,48;-2,79;964,44
16.826;-0,67;-0,63;-0,09;-4,61;2,96;2,08;-0,69;-2,48;-2,79;964,32
16.834;-0,58;-0,57;-0,04;-4,61;2,96;2,08;-0,69;-2,48;-2,79;964,32
16.834;-0,55;-0,55;-0,05;-4,61;2,96;2,08;-0,69;-2,48;-2,79;964,32
16.834;-0,46;-0,41;-0,13;-4,61;2,96;2,08;-0,69;-2,48;-2,79;964,32
16.846;-0,46;-0,41;-0,13;-4,61;2,96;2,08;-0,07;-1,99;-2,48;964,32
16.847;-0,46;-0,41;-0,13;-3,68;5,29;1,77;-0,07;-1,99;-2,48;964,32
16.895;-0,39;-0,25;-0,12;-3,68;5,29;1,77;-0,07;-1,99;-2,48;964,32
16.895;-0,32;-0,12;-0,09;-3,68;5,29;1,77;-0,07;-1,99;-2,48;964,32
16.896;-0,35;-0,07;-0,04;-3,68;5,29;1,77;-0,07;-1,99;-2,48;964,32
16.906;-0,35;-0,07;-0,04;-3,68;5,29;1,77;0,03;-1,76;-2,24;964,32
16.906;-0,35;-0,07;-0,04;-3,56;8,71;2,51;0,03;-1,76;-2,24;964,32
16.927;-0,35;-0,07;-0,04;-3,56;8,71;2,51;0,03;-1,76;-2,24;964,19
16.953;-0,35;-0,02;0,01;-3,56;8,71;2,51;0,03;-1,76;-2,24;964,19
16.954;-0,35;0,07;0,06;-3,56;8,71;2,51;0,03;-1,76;-2,24;964,19
16.954;-0,33;0,15;0,05;-3,56;8,71;2,51;0,03;-1,76;-2,24;964,19
16.966;-0,33;0,15;0,05;-3,56;8,71;2,51;-0,07;-1,33;-1,80;964,19
16.967;-0,33;0,15;0,05;-4,24;10,80;3,49;-0,07;-1,33;-1,80;964,19
17.013;-0,36;0,25;0,07;-4,24;10,80;3,49;-0,07;-1,33;-1,80;964,19
17.014;-0,40;0,28;0,09;-4,24;10,80;3,49;-0,07;-1,33;-1,80;964,19
17.014;-0,42;0,21;0,11;-4,24;10,80;3,49;-0,07;-1,33;-1,80;964,19
17.026;-0,42;0,21;0,11;-4,24;10,80;3,49;-0,07;-1,33;-1,80;964,17
17.026;-0,42;0,21;0,11;-4,24;10,80;3,49;-0,09;-1,25;-0,89;964,17
17.026;-0,42;0,21;0,11;-5,71;11,17;4,28;-0,09;-1,25;-0,89;964,17
17.074;-0,52;-0,06;0,02;-5,71;11,17;4,28;-0,09;-1,25;-0,89;964,17
17.075;-0,76;-0,52;-0,11;-5,71;11,17;4,28;-0,09;-1,25;-0,89;964,17
17.075;-0,86;-0,97;-0,32;-5,71;11,17;4,28;-0,09;-1,25;-0,89;964,17
17.088;-0,86;-0,97;-0,32;-5,71;11,17;4,28;0,41;-1,24;-0,05;964,17
17.088;-0,86;-0,97;-0,32;-9,91;-0,37;0,09;0,41;-1,24;-0,05;964,17
17.126;-0,86;-0,97;-0,32;-9,91;-0,37;0,09;0,41;-1,24;-0,05;964,17
17.137;-1,12;-1,13;-0,85;-9,91;-0,37;0,09;0,41;-1,24;-0,05;964,17
17.138;-1,29;-1,35;-1,16;-9,91;-0,37;0,09;0,41;-1,24;-0,05;964,17
17.138;-1,23;-1,49;-1,02;-9,91;-0,37;0,09;0,41;-1,24;-0,05;964,17
17.148;-1,23;-1,49;-1,02;-9,91;-0,37;0,09;0,44;-2,75;1,24;964,17
17.149;-1,23;-1,49;-1,02;-13,08;-5,43;-6,74;0,44;-2,75;1,24;964,17
17.194;-1,16;-1,28;-1,10;-13,08;-5,43;-6,74;0,44;-2,75;1,24;964,17
17.195;-1,18;-1,25;-1,37;-13,08;-5,43;-6,74;0,44;-2,75;1,24;964,17
17.195;-1,28;-1,15;-1,56;-13,08;-5,43;-6,74;0,44;-2,75;1,24;964,17
17.206;-1,28;-1,15;-1,56;-13,08;-5,43;-6,74;0,57;-1,08;3,06;964,17
17.207;-1,28;-1,15;-1,56;-11,88;-1,89;-12,47;0,57;-1,08;3,06;964,17
17.226;-1,28;-1,15;-1,56;-11,88;-1,89;-12,47;0,57;-1,08;3,06;964,23
17.253;-1,47;-1,11;-1,36;-11,88;-1,89;-12,47;0,57;-1,08;3,06;964,23
17.254;-1,63;-1,21;-1,07;-11,88;-1,89;-12,47;0,57;-1,08;3,06;964,23
17.254;-1,65;-1,40;-0,86;-11,88;-1,89;-12,47;0,57;-1,08;3,06;964,23
17.266;-1,65;-1,40;-0,86;-11,88;-1,89;-12,47;0,15;-0,96;4,77;964,23
17.267;-1,65;-1,40;-0,86;-13,39;-4,69;-5,83;0,15;-0,96;4,77;964,23
17.313;-1,63;-1,82;-0,78;-13,39;-4,69;-5,83;0,15;-0,96;4,77;964,23
17.314;-1,85;-2,23;-0,87;-13,39;-4,69;-5,83;0,15;-0,96;4,77;964,23
17.314;-2,32;-2,84;-1,07;-13,39;-4,69;-5,83;0,15;-0,96;4,77;964,23
17.327;-2,32;-2,84;-1,07;-13,39;-4,69;-5,83;0,15;-0,96;4,77;964,29
17.327;-2,32;-2,84;-1,07;-13,39;-4,69;-5,83;-0,13;0,24;7,53;964,29
17.327;-2,32;-2,84;-1,07;-16,89;-20,44;-7,95;-0,13;0,24;7,53;964,29
17.374;-2,69;-3,38;-1,12;-16,89;-20,44;-7,95;-0,13;0,24;7,53;964,29
17.375;-2,44;-3,82;-0,91;-16,89;-20,44;-7,95;-0,13;0,24;7,53;964,29
17.376;-2,08;-3,69;-0,65;-16,89;-20,44;-7,95;-0,13;0,24;7,53;964,29
17.387;-2,08;-3,69;-0,65;-16,89;-20,44;-7,95;-0,58;-0,28;8,15;964,29
17.387;-2,08;-3,69;-0,65;-11,73;-32,27;-3,86;-0,58;-0,28;8,15;964,29
17.426;-2,08;-3,69;-0,65;-11,73;-32,27;-3,86;-0,58;-0,28;8,15;964,44
17.433;-1,63;-3,11;-0,41;-11,73;-32,27;-3,86;-0,58;-0,28;8,15;964,44
17.434;-1,08;-2,51;-0,34;-11,73;-32,27;-3,86;-0,58;-0,28;8,15;964,44
17.434;-0,60;-1,81;-0,32;-11,73;-32,27;-3,86;-0,58;-0,28;8,15;964,44
17.448;-0,60;-1,81;-0,32;-11,73;-32,27;-3,86;-0,59;0,15;6,61;964,44
17.449;-0,60;-1,81;-0,32;3,54;-18,18;-0,42;-0,59;0,15;6,61;964,44
17.494;-0,17;-1,38;-0,35;3,54;-18,18;-0,42;-0,59;0,15;6,61;964,44
17.494;0,03;-1,21;-0,23;3,54;-18,18;-0,42;-0,59;0,15;6,61;964,44
17.495;0,18;-1,19;-0,10;3,54;-18,18;-0,42;-0,59;0,15;6,61;964,44
17.506;0,18;-1,19;-0,10;3,54;-18,18;-0,42;-0,27;-1,10;5,15;964,44
17.507;0,18;-1,19;-0,10;10,48;-15,42;1,29;-0,27;-1,10;5,15;964,44
17.526;0,18;-1,19;-0,10;10,48;-15,42;1,29;-0,27;-1,10;5,15;964,28
17.553;0,42;-1,07;-0,11;10,48;-15,42;1,29;-0,27;-1,10;5,15;964,28
17.554;0,61;-0,88;-0,15;10,48;-15,42;1,29;-0,27;-1,10;5,15;964,28
17.554;0,86;-0,66;-0,15;10,48;-15,42;1,29;-0,27;-1,10;5,15;964,28
17.567;0,86;-0,66;-0,15;10,48;-15,42;1,29;-0,28;-0,36;3,08;964,28
17.568;0,86;-0,66;-0,15;16,00;-12,42;0,29;-0,28;-0,36;3,08;964,28
17.614;0,89;-0,53;-0,14;16,00;-12,42;0,29;-0,28;-0,36;3,08;964,28
17.615;0,79;-0,46;-0,11;16,00;-12,42;0,29;-0,28;-0,36;3,08;964,28
17.615;0,68;-0,44;-0,11;16,00;-12,42;0,29;-0,28;-0,36;3,08;964,28
17.626;0,68;-0,44;-0,11;16,00;-12,42;0,29;-0,28;-0,36;3,08;964,13
17.627;0,68;-0,44;-0,11;16,00;-12,42;0,29;-0,55;0,05;0,83;964,13
17.627;0,68;-0,44;-0,11;13,46;-11,23;0,60;-0,55;0,05;0,83;964,13
17.674;0,60;-0,42;-0,15;13,46;-11,23;0,60;-0,55;0,05;0,83;964,13
17.675;0,54;-0,37;-0,19;13,46;-11,23;0,60;-0,55;0,05;0,83;964,13
17.675;0,45;-0,30;-0,15;13,46;-11,23;0,60;-0,55;0,05;0,83;964,13
17.686;0,45;-0,30;-0,15;13,46;-11,23;0,60;-0,59;0,87;-0,98;964,13
17.687;0,45;-0,30;-0,15;11,19;-9,84;0,10;-0,59;0,87;-0,98;964,13
17.726;0,45;-0,30;-0,15;11,19;-9,84;0,10;-0,59;0,87;-0,98;964,12
17.734;0,33;-0,22;-0,06;11,19;-9,84;0,10;-0,59;0,87;-0,98;964,12
17.735;0,18;-0,12;-0,02;11,19;-9,84;0,10;-0,59;0,87;-0,98;964,12
17.735;0,03;-0,06;-0,04;11,19;-9,84;0,10;-0,59;0,87;-0,98;964,12
17.747;0,03;-0,06;-0,04;11,19;-9,84;0,10;-0,17;1,10;-2,07;964,12
17.747;0,03;-0,06;-0,04;7,58;-6,95;1,45;-0,17;1,10;-2,07;964,12
17.795;-0,04;-0,03;-0,11;7,58;-6,95;1,45;-0,17;1,10;-2,07;964,12
17.795;-0,04;0,14;-0,11;7,58;-6,95;1,45;-0,17;1,10;-2,07;964,12
17.796;-0,14;0,32;-0,09;7,58;-6,95;1,45;-0,17;1,10;-2,07;964,12
17.809;-0,14;0,32;-0,09;7,58;-6,95;1,45;0,09;0,58;-3,33;964,12
17.809;-0,14;0,32;-0,09;6,57;-2,14;1,32;0,09;0,58;-3,33;964,12
17.827;-0,14;0,32;-0,09;6,57;-2,14;1,32;0,09;0,58;-3,33;964,14
17.855;-0,51;0,33;-0,14;6,57;-2,14;1,32;0,09;0,58;-3,33;964,14
17.856;-1,04;0,23;-0,17;6,57;-2,14;1,32;0,09;0,58;-3,33;964,14
17.857;-1,31;0,06;-0,24;6,57;-2,14;1,32;0,09;0,58;-3,33;964,14
17.866;-1,31;0,06;-0,24;6,57;-2,14;1,32;0,86;-0,66;-7,21;964,14
17.868;-1,31;0,06;-0,24;-3,72;-1,99;0,14;0,86;-0,66;-7,21;964,14
17.914;-1,09;-0,20;-0,27;-3,72;-1,99;0,14;0,86;-0,66;-7,21;964,14
17.916;-1,19;-0,72;-0,25;-3,72;-1,99;0,14;0,86;-0,66;-7,21;964,14
17.916;-1,45;-1,53;-0,48;-3,72;-1,99;0,14;0,86;-0,66;-7,21;964,14
17.927;-1,45;-1,53;-0,48;-3,72;-1,99;0,14;0,86;-0,66;-7,21;964,25
17.928;-1,45;-1,53;-0,48;-3,72;-1,99;0,14;0,69;2,61;-8,57;964,25
17.928;-1,45;-1,53;-0,48;-4,99;-12,83;-2,09;0,69;2,61;-8,57;964,25
17.974;-1,59;-1,86;-0,86;-4,99;-12,83;-2,09;0,69;2,61;-8,57;964,25
17.975;-1,36;-1,87;-0,86;-4,99;-12,83;-2,09;0,69;2,61;-8,57;964,25
17.976;-0,97;-2,08;-0,79;-4,99;-12,83;-2,09;0,69;2,61;-8,57;964,25
17.988;-0,97;-2,08;-0,79;-4,99;-12,83;-2,09;0,15;0,42;-7,17;964,25
17.989;-0,97;-2,08;-0,79;-2,65;-14,21;-4,44;0,15;0,42;-7,17;964,25
18.026;-0,97;-2,08;-0,79;-2,65;-14,21;-4,44;0,15;0,42;-7,17;964,30
18.036;-1,13;-2,59;-0,79;-2,65;-14,21;-4,44;0,15;0,42;-7,17;964,30
18.036;-1,32;-2,84;-0,89;-2,65;-14,21;-4,44;0,15;0,42;-7,17;964,30
18.037;-1,18;-2,90;-0,67;-2,65;-14,21;-4,44;0,15;0,42;-7,17;964,30
18.046;-1,18;-2,90;-0,67;-2,65;-14,21;-4,44;-1,31;-2,15;-4,67;964,30
18.046;-1,18;-2,90;-0,67;-7,30;-20,38;-3,02;-1,31;-2,15;-4,67;964,30
18.093;-1,03;-2,69;-0,63;-7,30;-20,38;-3,02;-1,31;-2,15;-4,67;964,30
18.094;-0,89;-2,46;-0,54;-7,30;-20,38;-3,02;-1,31;-2,15;-4,67;964,30
18.094;-0,84;-2,15;-0,32;-7,30;-20,38;-3,02;-1,31;-2,15;-4,67;964,30
18.108;-0,84;-2,15;-0,32;-7,30;-20,38;-3,02;-1,25;-1,99;-3,95;964,30
18.108;-0,84;-2,15;-0,32;-5,47;-12,38;0,54;-1,25;-1,99;-3,95;964,30
18.126;-0,84;-2,15;-0,32;-5,47;-12,38;0,54;-1,25;-1,99;-3,95;964,37
18.153;-0,96;-1,81;-0,23;-5,47;-12,38;0,54;-1,25;-1,99;-3,95;964,37
18.154;-0,96;-1,50;-0,20;-5,47;-12,38;0,54;-1,25;-1,99;-3,95;964,37
18.154;-0,86;-1,22;-0,15;-5,47;-12,38;0,54;-1,25;-1,99;-3,95;964,37
18.167;-0,86;-1,22;-0,15;-5,47;-12,38;0,54;-0,10;-0,01;-3,34;964,37
18.168;-0,86;-1,22;-0,15;-7,43;-3,07;2,50;-0,10;-0,01;-3,34;964,37
18.213;-0,74;-0,97;-0,14;-7,43;-3,07;2,50;-0,10;-0,01;-3,34;964,37
18.214;-0,69;-0,69;-0,20;-7,43;-3,07;2,50;-0,10;-0,01;-3,34;964,37
18.214;-0,68;-0,55;-0,20;-7,43;-3,07;2,50;-0,10;-0,01;-3,34;964,37
18.226;-0,68;-0,55;-0,20;-7,43;-3,07;2,50;-0,10;-0,01;-3,34;964,36
18.226;-0,68;-0,55;-0,20;-7,43;-3,07;2,50;0,53;0,63;-1,77;964,36
18.227;-0,68;-0,55;-0,20;-7,19;3,64;1,93;0,53;0,63;-1,77;964,36
18.274;-0,60;-0,40;-0,18;-7,19;3,64;1,93;0,53;0,63;-1,77;964,36
18.275;-0,46;-0,27;-0,16;-7,19;3,64;1,93;0,53;0,63;-1,77;964,36
18.276;-0,39;-0,15;-0,17;-7,19;3,64;1,93;0,53;0,63;-1,77;964,36
18.286;-0,39;-0,15;-0,17;-7,19;3,64;1,93;0,67;0,49;-0,91;964,36
18.286;-0,39;-0,15;-0,17;-5,13;7,60;1,81;0,67;0,49;-0,91;964,36
18.328;-0,39;-0,15;-0,17;-5,13;7,60;1,81;0,67;0,49;-0,91;964,30
18.352;-0,42;-0,05;-0,19;-5,13;7,60;1,81;0,67;0,49;-0,91;964,30
18.353;-0,50;-0,01;-0,18;-5,13;7,60;1,81;0,67;0,49;-0,91;964,30
18.353;-0,50;0,04;-0,18;-5,13;7,60;1,81;0,67;0,49;-0,91;964,30
18.353;-0,50;0,04;-0,18;-5,13;7,60;1,81;0,38;0,85;-0,46;964,30
18.353;-0,50;0,04;-0,18;-6,81;9,51;1,38;0,38;0,85;-0,46;964,30
18.394;-0,46;0,08;-0,17;-6,81;9,51;1,38;0,38;0,85;-0,46;964,30
18.394;-0,41;0,14;-0,18;-6,81;9,51;1,38;0,38;0,85;-0,46;964,30
18.395;-0,37;0,23;-0,18;-6,81;9,51;1,38;0,38;0,85;-0,46;964,30
18.407;-0,37;0,23;-0,18;-6,81;9,51;1,38;0,14;0,54;0,36;964,30
18.408;-0,37;0,23;-0,18;-5,67;11,38;1,09;0,14;0,54;0,36;964,30
18.433;-0,37;0,23;-0,18;-5,67;11,38;1,09;0,14;0,54;0,36;964,28
18.456;-0,37;0,25;-0,18;-5,67;11,38;1,09;0,14;0,54;0,36;964,28
18.457;-0,41;0,16;-0,15;-5,67;11,38;1,09;0,14;0,54;0,36;964,28
18.457;-0,44;0,04;-0,15;-5,67;11,38;1,09;0,14;0,54;0,36;964,28
18.471;-0,44;0,04;-0,15;-5,67;11,38;1,09;-0,10;0,29;0,94;964,28
18.471;-0,44;0,04;-0,15;-6,15;9,62;1,32;-0,10;0,29;0,94;964,28
18.514;-0,43;-0,06;-0,17;-6,15;9,62;1,32;-0,10;0,29;0,94;964,28
18.514;-0,43;-0,16;-0,23;-6,15;9,62;1,32;-0,10;0,29;0,94;964,28
18.514;-0,49;-0,31;-0,28;-6,15;9,62;1,32;-0,10;0,29;0,94;964,28
18.526;-0,49;-0,31;-0,28;-6,15;9,62;1,32;-0,10;0,29;0,94;964,27
18.526;-0,49;-0,31;-0,28;-6,15;9,62;1,32;-0,09;0,29;2,12;964,27
18.526;-0,49;-0,31;-0,28;-5,92;6,30;0,10;-0,09;0,29;2,12;964,27
18.575;-0,64;-0,77;-0,35;-5,92;6,30;0,10;-0,09;0,29;2,12;964,27
18.576;-0,79;-1,26;-0,49;-5,92;6,30;0,10;-0,09;0,29;2,12;964,27
18.576;-1,11;-1,64;-0,68;-5,92;6,30;0,10;-0,09;0,29;2,12;964,27
18.588;-1,11;-1,64;-0,68;-5,92;6,30;0,10;-0,29;0,88;1,79;964,27
18.589;-1,11;-1,64;-0,68;-10,91;-6,65;-3,74;-0,29;0,88;1,79;964,27
18.626;-1,11;-1,64;-0,68;-10,91;-6,65;-3,74;-0,29;0,88;1,79;964,29
18.634;-1,28;-2,10;-0,91;-10,91;-6,65;-3,74;-0,29;0,88;1,79;964,29
18.634;-1,26;-2,27;-0,88;-10,91;-6,65;-3,74;-0,29;0,88;1,79;964,29
18.634;-1,18;-2,27;-0,79;-10,91;-6,65;-3,74;-0,29;0,88;1,79;964,29
18.646;-1,18;-2,27;-0,79;-10,91;-6,65;-3,74;-0,34;-0,64;3,52;964,29
18.647;-1,18;-2,27;-0,79;-10,28;-13,05;-4,61;-0,34;-0,64;3,52;964,29
18.693;-1,19;-2,05;-0,77;-10,28;-13,05;-4,61;-0,34;-0,64;3,52;964,29
18.694;-1,13;-1,87;-0,66;-10,28;-13,05;-4,61;-0,34;-0,64;3,52;964,29
18.694;-1,20;-1,81;-0,51;-10,28;-13,05;-4,61;-0,34;-0,64;3,52;964,29
18.707;-1,20;-1,81;-0,51;-10,28;-13,05;-4,61;-0,31;-0,79;5,82;964,29
18.708;-1,20;-1,81;-0,51;-7,83;-9,36;-1,82;-0,31;-0,79;5,82;964,29
18.726;-1,20;-1,81;-0,51;-7,83;-9,36;-1,82;-0,31;-0,79;5,82;964,31
18.757;-1,46;-2,08;-0,44;-7,83;-9,36;-1,82;-0,31;-0,79;5,82;964,31
18.758;-1,62;-2,61;-0,45;-7,83;-9,36;-1,82;-0,31;-0,79;5,82;964,31
18.758;-1,92;-3,18;-0,49;-7,83;-9,36;-1,82;-0,31;-0,79;5,82;964,31
18.77;-1,92;-3,18;-0,49;-7,83;-9,36;-1,82;-0,01;0,24;7,57;964,31
18.77;-1,92;-3,18;-0,49;-11,90;-24,95;-1,63;-0,01;0,24;7,57;964,31
18.813;-2,26;-3,67;-0,65;-11,90;-24,95;-1,63;-0,01;0,24;7,57;964,31
18.814;-2,16;-3,79;-0,74;-11,90;-24,95;-1,63;-0,01;0,24;7,57;964,31
18.815;-1,81;-3,29;-0,56;-11,90;-24,95;-1,63;-0,01;0,24;7,57;964,31
18.826;-1,81;-3,29;-0,56;-11,90;-24,95;-1,63;-0,01;0,24;7,57;964,38
18.827;-1,81;-3,29;-0,56;-11,90;-24,95;-1,63;0,16;-1,57;7,26;964,38
18.827;-1,81;-3,29;-0,56;-8,70;-29,67;-2,65;0,16;-1,57;7,26;964,38
18.875;-1,35;-2,62;-0,30;-8,70;-29,67;-2,65;0,16;-1,57;7,26;964,38
18.876;-0,80;-1,99;-0,14;-8,70;-29,67;-2,65;0,16;-1,57;7,26;964,38
18.876;-0,39;-1,44;-0,10;-8,70;-29,67;-2,65;0,16;-1,57;7,26;964,38
18.886;-0,39;-1,44;-0,10;-8,70;-29,67;-2,65;0,84;-0,85;5,55;964,38
18.887;-0,39;-1,44;-0,10;5,73;-15,24;1,04;0,84;-0,85;5,55;964,38
18.926;-0,39;-1,44;-0,10;5,73;-15,24;1,04;0,84;-0,85;5,55;964,35
18.945;-0,14;-1,10;-0,10;5,73;-15,24;1,04;0,84;-0,85;5,55;964,35
18.946;-0,03;-0,97;-0,09;5,73;-15,24;1,04;0,84;-0,85;5,55;964,35
18.946;0,16;-0,92;-0,10;5,73;-15,24;1,04;0,84;-0,85;5,55;964,35
18.946;0,16;-0,92;-0,10;5,73;-15,24;1,04;0,61;0,23;4,67;964,35
18.947;0,16;-0,92;-0,10;10,28;-12,95;1,09;0,61;0,23;4,67;964,35
18.993;0,52;-0,74;-0,12;10,28;-12,95;1,09;0,61;0,23;4,67;964,35
18.994;0,66;-0,64;-0,13;10,28;-12,95;1,09;0,61;0,23;4,67;964,35
18.995;0,62;-0,57;-0,10;10,28;-12,95;1,09;0,61;0,23;4,67;964,35
19.007;0,62;-0,57;-0,10;10,28;-12,95;1,09;0,39;-0,07;2,96;964,35
19.007;0,62;-0,57;-0,10;13,75;-11,29;1,28;0,39;-0,07;2,96;964,35
19.025;0,62;-0,57;-0,10;13,75;-11,29;1,28;0,39;-0,07;2,96;964,19
19.054;0,56;-0,52;-0,14;13,75;-11,29;1,28;0,39;-0,07;2,96;964,19
19.055;0,50;-0,53;-0,21;13,75;-11,29;1,28;0,39;-0,07;2,96;964,19
19.056;0,45;-0,48;-0,16;13,75;-11,29;1,28;0,39;-0,07;2,96;964,19
19.067;0,45;-0,48;-0,16;13,75;-11,29;1,28;-0,32;0,14;1,05;964,19
19.067;0,45;-0,48;-0,16;11,24;-11,35;0,72;-0,32;0,14;1,05;964,19
19.113;0,43;-0,47;-0,15;11,24;-11,35;0,72;-0,32;0,14;1,05;964,19
19.114;0,42;-0,41;-0,14;11,24;-11,35;0,72;-0,32;0,14;1,05;964,19
19.114;0,41;-0,30;-0,12;11,24;-11,35;0,72;-0,32;0,14;1,05;964,19
19.131;0,41;-0,30;-0,12;11,24;-11,35;0,72;-0,32;0,14;1,05;964,14
19.131;0,41;-0,30;-0,12;11,24;-11,35;0,72;-0,71;0,14;-0,45;964,14
19.131;0,41;-0,30;-0,12;10,75;-9,79;1,04;-0,71;0,14;-0,45;964,14
19.175;0,37;-0,20;-0,07;10,75;-9,79;1,04;-0,71;0,14;-0,45;964,14
19.176;0,26;-0,13;-0,04;10,75;-9,79;1,04;-0,71;0,14;-0,45;964,14
19.176;0,14;-0,12;0,00;10,75;-9,79;1,04;-0,71;0,14;-0,45;964,14
19.186;0,14;-0,12;0,00;10,75;-9,79;1,04;-0,52;0,91;-1,44;964,14
19.187;0,14;-0,12;0,00;8,41;-7,73;2,05;-0,52;0,91;-1,44;964,14
19.228;0,14;-0,12;0,00;8,41;-7,73;2,05;-0,52;0,91;-1,44;964,16
19.233;0,08;-0,09;-0,04;8,41;-7,73;2,05;-0,52;0,91;-1,44;964,16
19.234;0,04;0,01;-0,19;8,41;-7,73;2,05;-0,52;0,91;-1,44;964,16
19.234;-0,16;0,20;-0,30;8,41;-7,73;2,05;-0,52;0,91;-1,44;964,16
19.247;-0,16;0,20;-0,30;8,41;-7,73;2,05;-0,14;1,01;-2,60;964,16
19.247;-0,16;0,20;-0,30;5,92;-3,82;-0,50;-0,14;1,01;-2,60;964,16
19.294;-0,70;0,26;-0,20;5,92;-3,82;-0,50;-0,14;1,01;-2,60;964,16
19.295;-1,32;0,11;-0,24;5,92;-3,82;-0,50;-0,14;1,01;-2,60;964,16
19.296;-1,64;0,03;-0,56;5,92;-3,82;-0,50;-0,14;1,01;-2,60;964,16
19.307;-1,64;0,03;-0,56;5,92;-3,82;-0,50;0,35;-0,72;-7,04;964,16
19.309;-1,64;0,03;-0,56;-7,29;-3,14;-2,92;0,35;-0,72;-7,04;964,16
19.326;-1,64;0,03;-0,56;-7,29;-3,14;-2,92;0,35;-0,72;-7,04;964,23
19.354;-1,37;-0,16;-0,74;-7,29;-3,14;-2,92;0,35;-0,72;-7,04;964,23
19.355;-1,33;-0,55;-0,47;-7,29;-3,14;-2,92;0,35;-0,72;-7,04;964,23
19.356;-1,50;-0,91;-0,33;-7,29;-3,14;-2,92;0,35;-0,72;-7,04;964,23
19.367;-1,50;-0,91;-0,33;-7,29;-3,14;-2,92;0,11;2,57;-7,33;964,23
19.368;-1,50;-0,91;-0,33;-5,42;-8,23;-0,09;0,11;2,57;-7,33;964,23
19.413;-1,64;-1,07;-0,30;-5,42;-8,23;-0,09;0,11;2,57;-7,33;964,23
19.414;-1,61;-1,12;-0,33;-5,42;-8,23;-0,09;0,11;2,57;-7,33;964,23
19.414;-1,43;-1,29;-0,24;-5,42;-8,23;-0,09;0,11;2,57;-7,33;964,23
19.429;-1,43;-1,29;-0,24;-5,42;-8,23;-0,09;0,11;2,57;-7,33;964,27
19.43;-1,43;-1,29;-0,24;-5,42;-8,23;-0,09;0,36;-1,46;-7,22;964,27
19.43;-1,43;-1,29;-0,24;-5,99;-8,04;0,92;0,36;-1,46;-7,22;964,27
19.474;-1,29;-1,56;-0,10;-5,99;-8,04;0,92;0,36;-1,46;-7,22;964,27
19.475;-1,03;-1,79;0,27;-5,99;-8,04;0,92;0,36;-1,46;-7,22;964,27
19.476;-0,99;-2,00;0,30;-5,99;-8,04;0,92;0,36;-1,46;-7,22;964,27
19.487;-0,99;-2,00;0,30;-5,99;-8,04;0,92;-0,05;-1,40;-5,31;964,27
19.488;-0,99;-2,00;0,30;-3,97;-12,21;5,81;-0,05;-1,40;-5,31;964,27
19.525;-0,99;-2,00;0,30;-3,97;-12,21;5,81;-0,05;-1,40;-5,31;964,36
19.534;-0,92;-2,34;0,28;-3,97;-12,21;5,81;-0,05;-1,40;-5,31;964,36
19.534;-1,00;-2,49;0,15;-3,97;-12,21;5,81;-0,05;-1,40;-5,31;964,36
19.534;-1,04;-2,46;0,02;-3,97;-12,21;5,81;-0,05;-1,40;-5,31;964,36
19.546;-1,04;-2,46;0,02;-3,97;-12,21;5,81;0,22;-2,71;-3,99;964,36
19.547;-1,04;-2,46;0,02;-6,35;-15,32;2,48;0,22;-2,71;-3,99;964,36
19.593;-0,99;-2,39;-0,09;-6,35;-15,32;2,48;0,22;-2,71;-3,99;964,36
19.594;-0,95;-2,25;-0,26;-6,35;-15,32;2,48;0,22;-2,71;-3,99;964,36
19.595;-0,88;-1,95;-0,39;-6,35;-15,32;2,48;0,22;-2,71;-3,99;964,36
19.607;-0,88;-1,95;-0,39;-6,35;-15,32;2,48;0,82;-1,63;-2,98;964,36
19.608;-0,88;-1,95;-0,39;-6,50;-9,64;-2,30;0,82;-1,63;-2,98;964,36
19.625;-0,88;-1,95;-0,39;-6,50;-9,64;-2,30;0,82;-1,63;-2,98;964,42
19.653;-0,85;-1,59;-0,44;-6,50;-9,64;-2,30;0,82;-1,63;-2,98;964,42
19.654;-0,76;-1,25;-0,40;-6,50;-9,64;-2,30;0,82;-1,63;-2,98;964,42
19.654;-0,62;-1,00;-0,32;-6,50;-9,64;-2,30;0,82;-1,63;-2,98;964,42
19.668;-0,62;-1,00;-0,32;-6,50;-9,64;-2,30;0,92;-1,83;-1,87;964,42
19.669;-0,62;-1,00;-0,32;-5,24;-0,08;-2,20;0,92;-1,83;-1,87;964,42
19.713;-0,55;-0,86;-0,27;-5,24;-0,08;-2,20;0,92;-1,83;-1,87;964,42
