time;gFx;gFy;gFz;ax;ay;az;wx;wy;wz;P
0.01;-0,42;0,69;0,64;0,56;0,02;0,88;-0,09;-0,21;-0,07;946,90
0.03;-0,37;0,69;0,62;0,56;0,02;0,88;-0,09;-0,21;-0,07;946,90
0.03;-0,37;0,69;0,62;0,56;0,02;0,88;-0,10;0,02;-0,05;946,90
0.03;-0,37;0,69;0,62;0,99;0,04;0,64;-0,10;0,02;-0,05;946,90
0.09;-0,42;0,66;0,66;0,99;0,04;0,64;-0,10;0,02;-0,05;946,90
0.09;-0,42;0,66;0,66;0,99;0,04;0,64;-0,03;-0,18;-0,07;946,90
0.09;-0,42;0,66;0,66;0,57;-0,16;0,94;-0,03;-0,18;-0,07;946,90
0.112;-0,42;0,66;0,66;0,57;-0,16;0,94;-0,03;-0,18;-0,07;946,90
0.15;-0,42;0,70;0,67;0,57;-0,16;0,94;-0,03;-0,18;-0,07;946,90
0.15;-0,42;0,70;0,67;0,57;-0,16;0,94;0,03;0,19;0,00;946,90
0.151;-0,42;0,70;0,67;0,48;0,18;1,02;0,03;0,19;0,00;946,90
0.211;-0,36;0,69;0,64;0,48;0,18;1,02;0,03;0,19;0,00;946,90
0.211;-0,36;0,69;0,64;0,48;0,18;1,02;0,07;-0,10;0,00;946,90
0.212;-0,36;0,69;0,64;1,07;0,14;0,77;0,07;-0,10;0,00;946,90
0.212;-0,36;0,69;0,64;1,07;0,14;0,77;0,07;-0,10;0,00;946,89
0.272;-0,38;0,67;0,56;1,07;0,14;0,77;0,07;-0,10;0,00;946,89
0.272;-0,38;0,67;0,56;1,07;0,14;0,77;0,11;0,14;0,02;946,89
0.272;-0,38;0,67;0,56;0,90;-0,14;0,05;0,11;0,14;0,02;946,89
0.31;-0,38;0,67;0,56;0,90;-0,14;0,05;0,11;0,14;0,02;946,89
0.333;-0,42;0,70;0,58;0,90;-0,14;0,05;0,11;0,14;0,02;946,89
0.334;-0,42;0,70;0,58;0,90;-0,14;0,05;0,01;0,32;0,01;946,89
0.334;-0,42;0,70;0,58;0,55;0,15;0,29;0,01;0,32;0,01;946,89
0.391;-0,48;0,66;0,54;0,55;0,15;0,29;0,01;0,32;0,01;946,89
0.392;-0,48;0,66;0,54;0,55;0,15;0,29;-0,12;0,11;0,01;946,89
0.392;-0,48;0,66;0,54;0,02;-0,22;-0,10;-0,12;0,11;0,01;946,89
0.41;-0,48;0,66;0,54;0,02;-0,22;-0,10;-0,12;0,11;0,01;946,87
0.452;-0,73;0,73;0,34;0,02;-0,22;-0,10;-0,12;0,11;0,01;946,87
0.453;-0,73;0,73;0,34;0,02;-0,22;-0,10;-0,06;1,46;-0,06;946,87
0.453;-0,73;0,73;0,34;-2,29;0,45;-1,97;-0,06;1,46;-0,06;946,87
0.512;-1,61;0,47;-0,61;-2,29;0,45;-1,97;-0,06;1,46;-0,06;946,87
0.513;-1,61;0,47;-0,61;-2,29;0,45;-1,97;-0,89;4,37;0,50;946,87
0.513;-1,61;0,47;-0,61;-10,02;-2,15;-10,14;-0,89;4,37;0,50;946,87
0.514;-1,61;0,47;-0,61;-10,02;-2,15;-10,14;-0,89;4,37;0,50;946,82
0.573;-0,88;0,16;0,09;-10,02;-2,15;-10,14;-0,89;4,37;0,50;946,82
0.574;-0,88;0,16;0,09;-10,02;-2,15;-10,14;-2,69;2,28;0,32;946,82
0.574;-0,88;0,16;0,09;-2,38;-4,92;-2,99;-2,69;2,28;0,32;946,82
0.61;-0,88;0,16;0,09;-2,38;-4,92;-2,99;-2,69;2,28;0,32;946,82
0.631;-0,57;-0,14;0,32;-2,38;-4,92;-2,99;-2,69;2,28;0,32;946,82
0.632;-0,57;-0,14;0,32;-2,38;-4,92;-2,99;-3,99;3,66;-0,14;946,82
0.632;-0,57;-0,14;0,32;1,29;-7,13;-0,81;-3,99;3,66;-0,14;946,82
0.694;-0,84;-0,50;0,45;1,29;-7,13;-0,81;-3,99;3,66;-0,14;946,82
0.694;-0,84;-0,50;0,45;1,29;-7,13;-0,81;-5,01;3,92;-1,19;946,82
0.695;-0,84;-0,50;0,45;-0,29;-9,48;0,97;-5,01;3,92;-1,19;946,82
0.711;-0,84;-0,50;0,45;-0,29;-9,48;0,97;-5,01;3,92;-1,19;946,82
0.75;-1,84;-0,67;1,38;-0,29;-9,48;0,97;-5,01;3,92;-1,19;946,82
0.751;-1,84;-0,67;1,38;-0,29;-9,48;0,97;-4,25;2,61;-0,43;946,82
0.751;-1,84;-0,67;1,38;-9,24;-9,52;10,22;-4,25;2,61;-0,43;946,82
0.81;-2,05;0,03;1,05;-9,24;-9,52;10,22;-4,25;2,61;-0,43;946,82
0.81;-2,05;0,03;1,05;-9,24;-9,52;10,22;-3,81;2,21;0,72;946,82
0.81;-2,05;0,03;1,05;-11,02;-2,06;7,57;-3,81;2,21;0,72;946,82
0.811;-2,05;0,03;1,05;-11,02;-2,06;7,57;-3,81;2,21;0,72;946,86
0.872;-1,47;-0,21;0,29;-11,02;-2,06;7,57;-3,81;2,21;0,72;946,86
0.873;-1,47;-0,21;0,29;-11,02;-2,06;7,57;-3,56;-0,28;1,64;946,86
0.874;-1,47;-0,21;0,29;-5,27;-4,49;0,30;-3,56;-0,28;1,64;946,86
0.91;-1,47;-0,21;0,29;-5,27;-4,49;0,30;-3,56;-0,28;1,64;946,86
0.932;-0,52;-0,10;0,13;-5,27;-4,49;0,30;-3,56;-0,28;1,64;946,86
0.933;-0,52;-0,10;0,13;-5,27;-4,49;0,30;-3,40;-0,25;1,29;946,86
0.933;-0,52;-0,10;0,13;3,70;-3,70;-1,98;-3,40;-0,25;1,29;946,86
0.991;-0,36;-0,51;0,46;3,70;-3,70;-1,98;-3,40;-0,25;1,29;946,86
0.991;-0,36;-0,51;0,46;3,70;-3,70;-1,98;-3,03;1,07;0,48;946,86
0.991;-0,36;-0,51;0,46;5,19;-7,45;0,77;-3,03;1,07;0,48;946,86
1.011;-0,36;-0,51;0,46;5,19;-7,45;0,77;-3,03;1,07;0,48;946,86
1.054;-0,11;-0,09;0,67;5,19;-7,45;0,77;-3,03;1,07;0,48;946,86
1.054;-0,11;-0,09;0,67;5,19;-7,45;0,77;-2,40;0,08;0,16;946,86
1.055;-0,11;-0,09;0,67;7,72;-2,88;2,67;-2,40;0,08;0,16;946,86
1.111;-0,46;0,23;0,99;7,72;-2,88;2,67;-2,40;0,08;0,16;946,86
1.111;-0,46;0,23;0,99;7,72;-2,88;2,67;-1,63;0,79;-0,19;946,86
1.112;-0,46;0,23;0,99;4,32;0,83;5,75;-1,63;0,79;-0,19;946,86
1.112;-0,46;0,23;0,99;4,32;0,83;5,75;-1,63;0,79;-0,19;946,87
1.175;-1,14;0,08;1,12;4,32;0,83;5,75;-1,63;0,79;-0,19;946,87
1.175;-1,14;0,08;1,12;4,32;0,83;5,75;-0,74;-0,36;-0,01;946,87
1.175;-1,14;0,08;1,12;-2,15;-0,32;7,32;-0,74;-0,36;-0,01;946,87
1.21;-1,14;0,08;1,12;-2,15;-0,32;7,32;-0,74;-0,36;-0,01;946,87
1.235;-0,84;-0,09;0,60;-2,15;-0,32;7,32;-0,74;-0,36;-0,01;946,87
1.235;-0,84;-0,09;0,60;-2,15;-0,32;7,32;0,62;0,06;0,43;946,87
1.235;-0,84;-0,09;0,60;0,70;-2,10;1,90;0,62;0,06;0,43;946,87
1.294;-1,50;-0,07;0,67;0,70;-2,10;1,90;0,62;0,06;0,43;946,87
1.294;-1,50;-0,07;0,67;0,70;-2,10;1,90;1,04;0,38;0,70;946,87
1.295;-1,50;-0,07;0,67;-5,72;-2,26;2,98;1,04;0,38;0,70;946,87
1.31;-1,50;-0,07;0,67;-5,72;-2,26;2,98;1,04;0,38;0,70;946,89
1.352;-0,81;0,12;0,66;-5,72;-2,26;2,98;1,04;0,38;0,70;946,89
1.352;-0,81;0,12;0,66;-5,72;-2,26;2,98;1,21;-1,48;0,60;946,89
1.353;-0,81;0,12;0,66;0,77;-1,11;2,51;1,21;-1,48;0,60;946,89
1.411;-1,34;0,09;0,99;0,77;-1,11;2,51;1,21;-1,48;0,60;946,89
1.411;-1,34;0,09;0,99;0,77;-1,11;2,51;1,55;-0,25;1,11;946,89
1.411;-1,34;0,09;0,99;-4,66;-2,08;5,81;1,55;-0,25;1,11;946,89
1.411;-1,34;0,09;0,99;-4,66;-2,08;5,81;1,55;-0,25;1,11;946,87
1.473;-2,37;0,07;1,33;-4,66;-2,08;5,81;1,55;-0,25;1,11;946,87
1.474;-2,37;0,07;1,33;-4,66;-2,08;5,81;2,51;0,30;2,29;946,87
1.475;-2,37;0,07;1,33;-14,98;-3,41;9,59;2,51;0,30;2,29;946,87
1.512;-2,37;0,07;1,33;-14,98;-3,41;9,59;2,51;0,30;2,29;946,89
1.533;-2,13;-0,11;1,14;-14,98;-3,41;9,59;2,51;0,30;2,29;946,89
1.534;-2,13;-0,11;1,14;-14,98;-3,41;9,59;3,66;-1,38;3,55;946,89
1.534;-2,13;-0,11;1,14;-13,62;-7,08;8,47;3,66;-1,38;3,55;946,89
1.593;-1,33;0,31;0,34;-13,62;-7,08;8,47;3,66;-1,38;3,55;946,89
1.593;-1,33;0,31;0,34;-13,62;-7,08;8,47;4,78;-1,89;3,59;946,89
1.593;-1,33;0,31;0,34;-7,45;-4,87;1,66;4,78;-1,89;3,59;946,89
1.61;-1,33;0,31;0,34;-7,45;-4,87;1,66;4,78;-1,89;3,59;946,88
1.653;-0,82;-0,48;-0,38;-7,45;-4,87;1,66;4,78;-1,89;3,59;946,88
1.654;-0,82;-0,48;-0,38;-7,45;-4,87;1,66;4,17;-1,19;3,71;946,88
1.654;-0,82;-0,48;-0,38;-4,46;-13,84;-3,29;4,17;-1,19;3,71;946,88
1.711;-0,38;-0,66;-0,49;-4,46;-13,84;-3,29;4,17;-1,19;3,71;946,88
1.711;-0,38;-0,66;-0,49;-4,46;-13,84;-3,29;3,03;-0,82;3,86;946,88
1.712;-0,38;-0,66;-0,49;-2,05;-15,85;-2,53;3,03;-0,82;3,86;946,88
1.712;-0,38;-0,66;-0,49;-2,05;-15,85;-2,53;3,03;-0,82;3,86;946,82
1.772;-0,15;-0,44;-0,57;-2,05;-15,85;-2,53;3,03;-0,82;3,86;946,82
1.773;-0,15;-0,44;-0,57;-2,05;-15,85;-2,53;2,28;-4,05;2,72;946,82
1.773;-0,15;-0,44;-0,57;-1,10;-13,39;-1,94;2,28;-4,05;2,72;946,82
1.811;-0,15;-0,44;-0,57;-1,10;-13,39;-1,94;2,28;-4,05;2,72;946,78
1.831;0,21;-0,29;-0,55;-1,10;-13,39;-1,94;2,28;-4,05;2,72;946,78
1.831;0,21;-0,29;-0,55;-1,10;-13,39;-1,94;1,63;-3,39;2,00;946,78
1.832;0,21;-0,29;-0,55;1,60;-11,49;-0,86;1,63;-3,39;2,00;946,78
1.891;0,15;0,21;-0,61;1,60;-11,49;-0,86;1,63;-3,39;2,00;946,78
1.892;0,15;0,21;-0,61;1,60;-11,49;-0,86;1,08;1,78;0,84;946,78
1.892;0,15;0,21;-0,61;1,13;-5,95;-0,35;1,08;1,78;0,84;946,78
1.91;0,15;0,21;-0,61;1,13;-5,95;-0,35;1,08;1,78;0,84;946,78
1.954;1,88;-0,51;0,80;1,13;-5,95;-0,35;1,08;1,78;0,84;946,78
1.955;1,88;-0,51;0,80;1,13;-5,95;-0,35;-2,14;-2,77;1,71;946,78
1.955;1,88;-0,51;0,80;18,83;-13,09;13,30;-2,14;-2,77;1,71;946,78
2.01;0,58;0,76;0,01;18,83;-13,09;13,30;-2,14;-2,77;1,71;946,78
2.011;0,58;0,76;0,01;18,83;-13,09;13,30;-1,44;-0,10;-0,75;946,78
2.011;0,58;0,76;0,01;5,50;-0,63;5,65;-1,44;-0,10;-0,75;946,78
2.011;0,58;0,76;0,01;5,50;-0,63;5,65;-1,44;-0,10;-0,75;946,72
2.071;0,03;1,08;-2,35;5,50;-0,63;5,65;-1,44;-0,10;-0,75;946,72
2.072;0,03;1,08;-2,35;5,50;-0,63;5,65;-0,53;1,50;-2,66;946,72
2.072;0,03;1,08;-2,35;-0,44;2,50;-17,57;-0,53;1,50;-2,66;946,72
2.111;0,03;1,08;-2,35;-0,44;2,50;-17,57;-0,53;1,50;-2,66;946,70
2.131;-0,20;1,06;-1,88;-0,44;2,50;-17,57;-0,53;1,50;-2,66;946,70
2.132;-0,20;1,06;-1,88;-0,44;2,50;-17,57;-0,76;3,98;-2,21;946,70
2.132;-0,20;1,06;-1,88;-2,39;1,74;-13,76;-0,76;3,98;-2,21;946,70
2.192;0,49;0,68;-0,65;-2,39;1,74;-13,76;-0,76;3,98;-2,21;946,70
2.192;0,49;0,68;-0,65;-2,39;1,74;-13,76;-3,56;-0,48;-2,69;946,70
2.192;0,49;0,68;-0,65;5,62;-2,53;-3,07;-3,56;-0,48;-2,69;946,70
2.21;0,49;0,68;-0,65;5,62;-2,53;-3,07;-3,56;-0,48;-2,69;946,70
2.253;-0,35;-0,65;-0,41;5,62;-2,53;-3,07;-3,56;-0,48;-2,69;946,70
2.254;-0,35;-0,65;-0,41;5,62;-2,53;-3,07;-4,80;2,87;-4,43;946,70
2.254;-0,35;-0,65;-0,41;-1,14;-15,77;-2,41;-4,80;2,87;-4,43;946,70
2.311;-1,38;-1,81;0,16;-1,14;-15,77;-2,41;-4,80;2,87;-4,43;946,70
2.312;-1,38;-1,81;0,16;-1,14;-15,77;-2,41;-4,74;2,73;-5,28;946,70
2.312;-1,38;-1,81;0,16;-8,66;-26,20;1,57;-4,74;2,73;-5,28;946,70
2.312;-1,38;-1,81;0,16;-8,66;-26,20;1,57;-4,74;2,73;-5,28;946,75
2.373;-1,03;-1,29;0,75;-8,66;-26,20;1,57;-4,74;2,73;-5,28;946,75
2.374;-1,03;-1,29;0,75;-8,66;-26,20;1,57;-4,09;-0,18;-3,42;946,75
2.374;-1,03;-1,29;0,75;-3,01;-19,25;5,73;-4,09;-0,18;-3,42;946,75
2.41;-1,03;-1,29;0,75;-3,01;-19,25;5,73;-4,09;-0,18;-3,42;946,83
2.432;-0,77;-0,21;0,57;-3,01;-19,25;5,73;-4,09;-0,18;-3,42;946,83
2.433;-0,77;-0,21;0,57;-3,01;-19,25;5,73;-2,76;-0,03;-2,30;946,83
2.433;-0,77;-0,21;0,57;0,41;-6,98;2,59;-2,76;-0,03;-2,30;946,83
2.491;-0,44;0,17;0,83;0,41;-6,98;2,59;-2,76;-0,03;-2,30;946,83
2.492;-0,44;0,17;0,83;0,41;-6,98;2,59;-2,96;-1,93;-1,79;946,83
2.492;-0,44;0,17;0,83;3,96;-1,71;4,11;-2,96;-1,93;-1,79;946,83
2.512;-0,44;0,17;0,83;3,96;-1,71;4,11;-2,96;-1,93;-1,79;946,85
2.552;-1,73;-0,19;1,69;3,96;-1,71;4,11;-2,96;-1,93;-1,79;946,85
2.553;-1,73;-0,19;1,69;3,96;-1,71;4,11;-2,51;0,81;-1,90;946,85
2.553;-1,73;-0,19;1,69;-8,31;-3,54;12,16;-2,51;0,81;-1,90;946,85
2.611;-2,16;-0,29;1,43;-8,31;-3,54;12,16;-2,51;0,81;-1,90;946,85
2.611;-2,16;-0,29;1,43;-8,31;-3,54;12,16;-0,35;1,12;-1,41;946,85
2.611;-2,16;-0,29;1,43;-12,25;-3,10;9,96;-0,35;1,12;-1,41;946,85
2.612;-2,16;-0,29;1,43;-12,25;-3,10;9,96;-0,35;1,12;-1,41;946,86
2.672;-2,31;-0,13;1,44;-12,25;-3,10;9,96;-0,35;1,12;-1,41;946,86
2.673;-2,31;-0,13;1,44;-12,25;-3,10;9,96;1,25;0,39;-0,01;946,86
2.673;-2,31;-0,13;1,44;-13,53;-1,15;10,55;1,25;0,39;-0,01;946,86
2.71;-2,31;-0,13;1,44;-13,53;-1,15;10,55;1,25;0,39;-0,01;946,89
2.732;-2,18;-0,40;1,38;-13,53;-1,15;10,55;1,25;0,39;-0,01;946,89
2.732;-2,18;-0,40;1,38;-13,53;-1,15;10,55;2,48;0,22;1,53;946,89
2.733;-2,18;-0,40;1,38;-12,09;-4,48;10,27;2,48;0,22;1,53;946,89
2.791;-2,74;-0,35;1,29;-12,09;-4,48;10,27;2,48;0,22;1,53;946,89
2.792;-2,74;-0,35;1,29;-12,09;-4,48;10,27;3,55;-0,08;2,92;946,89
2.792;-2,74;-0,35;1,29;-17,82;-5,74;9,58;3,55;-0,08;2,92;946,89
2.811;-2,74;-0,35;1,29;-17,82;-5,74;9,58;3,55;-0,08;2,92;946,90
2.852;-2,11;-0,22;0,93;-17,82;-5,74;9,58;3,55;-0,08;2,92;946,90
2.853;-2,11;-0,22;0,93;-17,82;-5,74;9,58;4,56;-1,71;3,32;946,90
2.853;-2,11;-0,22;0,93;-12,44;-6,79;6,35;4,56;-1,71;3,32;946,90
2.912;-1,29;-0,30;0,38;-12,44;-6,79;6,35;4,56;-1,71;3,32;946,90
2.912;-1,29;-0,30;0,38;-12,44;-6,79;6,35;4,97;-0,95;3,34;946,90
2.912;-1,29;-0,30;0,38;-5,78;-9,72;2,03;4,97;-0,95;3,34;946,90
2.913;-1,29;-0,30;0,38;-5,78;-9,72;2,03;4,97;-0,95;3,34;946,89
2.971;-0,57;-0,92;0,10;-5,78;-9,72;2,03;4,97;-0,95;3,34;946,89
2.972;-0,57;-0,92;0,10;-5,78;-9,72;2,03;4,08;-0,90;4,05;946,89
2.973;-0,57;-0,92;0,10;-0,39;-17,37;0,97;4,08;-0,90;4,05;946,89
3.011;-0,57;-0,92;0,10;-0,39;-17,37;0,97;4,08;-0,90;4,05;946,85
3.032;-0,34;-1,00;-0,11;-0,39;-17,37;0,97;4,08;-0,90;4,05;946,85
3.033;-0,34;-1,00;-0,11;-0,39;-17,37;0,97;3,46;-1,99;3,76;946,85
3.033;-0,34;-1,00;-0,11;-0,20;-18,95;0,65;3,46;-1,99;3,76;946,85
3.092;-0,35;-0,72;-1,04;-0,20;-18,95;0,65;3,46;-1,99;3,76;946,85
3.093;-0,35;-0,72;-1,04;-0,20;-18,95;0,65;2,33;-1,24;3,07;946,85
3.093;-0,35;-0,72;-1,04;-2,00;-16,21;-6,94;2,33;-1,24;3,07;946,85
3.11;-0,35;-0,72;-1,04;-2,00;-16,21;-6,94;2,33;-1,24;3,07;946,81
3.152;-0,19;-0,70;-0,77;-2,00;-16,21;-6,94;2,33;-1,24;3,07;946,81
3.153;-0,19;-0,70;-0,77;-2,00;-16,21;-6,94;2,00;0,71;2,30;946,81
3.153;-0,19;-0,70;-0,77;-1,26;-15,55;-3,08;2,00;0,71;2,30;946,81
3.21;0,40;0,51;-1,60;-1,26;-15,55;-3,08;2,00;0,71;2,30;946,81
3.211;0,40;0,51;-1,60;-1,26;-15,55;-3,08;1,25;-6,26;0,95;946,81
3.212;0,40;0,51;-1,60;3,90;-3,31;-10,47;1,25;-6,26;0,95;946,81
3.212;0,40;0,51;-1,60;3,90;-3,31;-10,47;1,25;-6,26;0,95;946,78
3.273;0,37;0,37;-2,30;3,90;-3,31;-10,47;1,25;-6,26;0,95;946,78
3.273;0,37;0,37;-2,30;3,90;-3,31;-10,47;-3,34;-2,42;1,34;946,78
3.274;0,37;0,37;-2,30;3,28;-4,38;-16,93;-3,34;-2,42;1,34;946,78
3.312;0,37;0,37;-2,30;3,28;-4,38;-16,93;-3,34;-2,42;1,34;946,75
3.333;1,29;1,13;-1,77;3,28;-4,38;-16,93;-3,34;-2,42;1,34;946,75
3.335;1,29;1,13;-1,77;3,28;-4,38;-16,93;-0,50;-1,64;0,04;946,75
3.335;1,29;1,13;-1,77;12,13;3,22;-11,57;-0,50;-1,64;0,04;946,75
3.392;0,52;1,21;-1,81;12,13;3,22;-11,57;-0,50;-1,64;0,04;946,75
3.393;0,52;1,21;-1,81;12,13;3,22;-11,57;-0,01;6,74;-1,63;946,75
3.394;0,52;1,21;-1,81;3,72;3,72;-12,44;-0,01;6,74;-1,63;946,75
3.412;0,52;1,21;-1,81;3,72;3,72;-12,44;-0,01;6,74;-1,63;946,75
3.452;0,36;1,11;-0,93;3,72;3,72;-12,44;-0,01;6,74;-1,63;946,75
3.453;0,36;1,11;-0,93;3,72;3,72;-12,44;-1,19;-1,03;-2,25;946,75
3.453;0,36;1,11;-0,93;3,11;2,23;-4,61;-1,19;-1,03;-2,25;946,75
3.513;0,47;0,40;-0,34;3,11;2,23;-4,61;-1,19;-1,03;-2,25;946,75
3.514;0,47;0,40;-0,34;3,11;2,23;-4,61;-3,13;0,12;-2,30;946,75
3.514;0,47;0,40;-0,34;5,25;-5,27;0,12;-3,13;0,12;-2,30;946,75
3.514;0,47;0,40;-0,34;5,25;-5,27;0,12;-3,13;0,12;-2,30;946,74
3.574;-0,12;-0,66;-0,58;5,25;-5,27;0,12;-3,13;0,12;-2,30;946,74
3.574;-0,12;-0,66;-0,58;5,25;-5,27;0,12;-2,99;1,20;-4,22;946,74
3.574;-0,12;-0,66;-0,58;0,88;-15,84;-3,40;-2,99;1,20;-4,22;946,74
3.613;-0,12;-0,66;-0,58;0,88;-15,84;-3,40;-2,99;1,20;-4,22;946,78
3.633;-0,60;-1,21;-0,20;0,88;-15,84;-3,40;-2,99;1,20;-4,22;946,78
3.633;-0,60;-1,21;-0,20;0,88;-15,84;-3,40;-3,60;3,25;-5,40;946,78
3.633;-0,60;-1,21;-0,20;-1,39;-20,61;-1,35;-3,60;3,25;-5,40;946,78
3.691;-1,08;-1,24;-0,15;-1,39;-20,61;-1,35;-3,60;3,25;-5,40;946,78
3.692;-1,08;-1,24;-0,15;-1,39;-20,61;-1,35;-4,18;-0,14;-4,42;946,78
3.692;-1,08;-1,24;-0,15;-3,79;-19,25;-1,66;-4,18;-0,14;-4,42;946,78
3.711;-1,08;-1,24;-0,15;-3,79;-19,25;-1,66;-4,18;-0,14;-4,42;946,82
3.752;-0,68;-0,72;0,42;-3,79;-19,25;-1,66;-4,18;-0,14;-4,42;946,82
3.753;-0,68;-0,72;0,42;-3,79;-19,25;-1,66;-3,65;-1,02;-3,07;946,82
3.753;-0,68;-0,72;0,42;1,47;-12,01;1,85;-3,65;-1,02;-3,07;946,82
3.811;-1,17;-0,10;0,58;1,47;-12,01;1,85;-3,65;-1,02;-3,07;946,82
3.811;-1,17;-0,10;0,58;1,47;-12,01;1,85;-3,29;0,21;-1,61;946,82
3.811;-1,17;-0,10;0,58;1,47;-12,01;1,85;-3,29;0,21;-1,61;946,85
3.812;-1,17;-0,10;0,58;-2,73;-4,11;2,55;-3,29;0,21;-1,61;946,85
3.873;-1,38;-0,13;1,06;-2,73;-4,11;2,55;-3,29;0,21;-1,61;946,85
3.874;-1,38;-0,13;1,06;-2,73;-4,11;2,55;-2,75;1,35;-1,76;946,85
3.874;-1,38;-0,13;1,06;-4,48;-2,96;6,87;-2,75;1,35;-1,76;946,85
3.911;-1,38;-0,13;1,06;-4,48;-2,96;6,87;-2,75;1,35;-1,76;946,85
3.932;-2,16;-0,31;1,38;-4,48;-2,96;6,87;-2,75;1,35;-1,76;946,85
3.933;-2,16;-0,31;1,38;-4,48;-2,96;6,87;-0,91;0,45;-0,78;946,85
3.933;-2,16;-0,31;1,38;-11,80;-3,36;10,74;-0,91;0,45;-0,78;946,85
3.993;-2,50;-0,20;1,31;-11,80;-3,36;10,74;-0,91;0,45;-0,78;946,85
3.994;-2,50;-0,20;1,31;-11,80;-3,36;10,74;0,43;0,69;0,10;946,85
3.994;-2,50;-0,20;1,31;-15,01;-2,01;10,45;0,43;0,69;0,10;946,85
4.011;-2,50;-0,20;1,31;-15,01;-2,01;10,45;0,43;0,69;0,10;946,88
4.052;-2,56;-0,52;1,44;-15,01;-2,01;10,45;0,43;0,69;0,10;946,88
4.053;-2,56;-0,52;1,44;-15,01;-2,01;10,45;1,70;-0,30;1,12;946,88
4.053;-2,56;-0,52;1,44;-15,56;-5,48;11,65;1,70;-0,30;1,12;946,88
4.113;-2,91;-0,25;1,26;-15,56;-5,48;11,65;1,70;-0,30;1,12;946,88
4.113;-2,91;-0,25;1,26;-15,56;-5,48;11,65;3,07;0,21;2,14;946,88
4.114;-2,91;-0,25;1,26;-19,20;-3,99;9,81;3,07;0,21;2,14;946,88
4.114;-2,91;-0,25;1,26;-19,20;-3,99;9,81;3,07;0,21;2,14;946,90
4.173;-2,50;-0,21;0,76;-19,20;-3,99;9,81;3,07;0,21;2,14;946,90
4.174;-2,50;-0,21;0,76;-19,20;-3,99;9,81;3,68;-1,84;2,77;946,90
4.174;-2,50;-0,21;0,76;-15,70;-5,47;4,84;3,68;-1,84;2,77;946,90
4.213;-2,50;-0,21;0,76;-15,70;-5,47;4,84;3,68;-1,84;2,77;946,90
4.232;-1,38;-0,62;0,73;-15,70;-5,47;4,84;3,68;-1,84;2,77;946,90
4.233;-1,38;-0,62;0,73;-15,70;-5,47;4,84;4,30;-2,12;3,43;946,90
4.233;-1,38;-0,62;0,73;-5,84;-11,59;4,62;4,30;-2,12;3,43;946,90
4.292;-0,44;-1,29;0,09;-5,84;-11,59;4,62;4,30;-2,12;3,43;946,90
4.293;-0,44;-1,29;0,09;-5,84;-11,59;4,62;4,81;-0,58;4,20;946,90
4.293;-0,44;-1,29;0,09;1,69;-20,24;-0,43;4,81;-0,58;4,20;946,90
4.311;-0,44;-1,29;0,09;1,69;-20,24;-0,43;4,81;-0,58;4,20;946,85
4.351;-0,31;-1,34;-0,46;1,69;-20,24;-0,43;4,81;-0,58;4,20;946,85
4.352;-0,31;-1,34;-0,46;1,69;-20,24;-0,43;4,21;-0,78;4,27;946,85
4.353;-0,31;-1,34;-0,46;0,80;-22,12;-3,71;4,21;-0,78;4,27;946,85
4.41;-0,10;-0,88;-0,55;0,80;-22,12;-3,71;4,21;-0,78;4,27;946,85
4.411;-0,10;-0,88;-0,55;0,80;-22,12;-3,71;2,92;-2,61;3,83;946,85
4.411;-0,10;-0,88;-0,55;0,60;-17,95;-2,67;2,92;-2,61;3,83;946,85
4.411;-0,10;-0,88;-0,55;0,60;-17,95;-2,67;2,92;-2,61;3,83;946,80
4.473;0,14;-0,43;-0,97;0,60;-17,95;-2,67;2,92;-2,61;3,83;946,80
4.474;0,14;-0,43;-0,97;0,60;-17,95;-2,67;2,22;-0,27;3,10;946,80
4.474;0,14;-0,43;-0,97;1,53;-13,05;-5,25;2,22;-0,27;3,10;946,80
4.511;0,14;-0,43;-0,97;1,53;-13,05;-5,25;2,22;-0,27;3,10;946,80
4.532;0,43;0,20;-0,88;1,53;-13,05;-5,25;2,22;-0,27;3,10;946,80
4.532;0,43;0,20;-0,88;1,53;-13,05;-5,25;1,20;-2,51;1,55;946,80
4.533;0,43;0,20;-0,88;3,58;-6,27;-3,35;1,20;-2,51;1,55;946,80
4.593;1,14;0,84;0,01;3,58;-6,27;-3,35;1,20;-2,51;1,55;946,80
4.594;1,14;0,84;0,01;3,58;-6,27;-3,35;3,34;0,36;0,91;946,80
4.594;1,14;0,84;0,01;10,63;0,54;6,14;3,34;0,36;0,91;946,80
4.611;1,14;0,84;0,01;10,63;0,54;6,14;3,34;0,36;0,91;946,75
4.65;2,31;0,56;1,23;10,63;0,54;6,14;3,34;0,36;0,91;946,75
4.651;2,31;0,56;1,23;10,63;0,54;6,14;-2,39;8,69;1,04;946,75
4.651;2,31;0,56;1,23;22,03;-2,03;18,24;-2,39;8,69;1,04;946,75
4.713;2,31;0,56;1,23;3,58;-4,57;3,50;-2,39;8,69;1,04;946,75
4.713;2,31;0,56;1,23;3,58;-4,57;3,50;-1,47;0,55;-1,79;946,75
4.713;0,48;0,31;-0,27;3,58;-4,57;3,50;-1,47;0,55;-1,79;946,75
4.714;0,48;0,31;-0,27;3,58;-4,57;3,50;-1,47;0,55;-1,79;946,76
4.771;-0,10;0,91;-1,66;3,58;-4,57;3,50;-1,47;0,55;-1,79;946,76
4.772;-0,10;0,91;-1,66;3,58;-4,57;3,50;-0,61;2,07;-2,82;946,76
4.772;-0,10;0,91;-1,66;-2,40;1,05;-10,64;-0,61;2,07;-2,82;946,76
4.811;-0,10;0,91;-1,66;-2,40;1,05;-10,64;-0,61;2,07;-2,82;946,76
4.831;-0,03;1,28;-1,91;-2,40;1,05;-10,64;-0,61;2,07;-2,82;946,76
4.831;-0,03;1,28;-1,91;-2,40;1,05;-10,64;-1,00;1,20;-2,83;946,76
4.832;-0,03;1,28;-1,91;-0,77;4,03;-13,83;-1,00;1,20;-2,83;946,76
4.893;0,32;0,52;-1,08;-0,77;4,03;-13,83;-1,00;1,20;-2,83;946,76
4.893;0,32;0,52;-1,08;-0,77;4,03;-13,83;-4,18;0,26;-3,55;946,76
4.894;0,32;0,52;-1,08;4,24;-4,01;-7,07;-4,18;0,26;-3,55;946,76
4.912;0,32;0,52;-1,08;4,24;-4,01;-7,07;-4,18;0,26;-3,55;946,75
4.951;-0,28;-1,02;-0,42;4,24;-4,01;-7,07;-4,18;0,26;-3,55;946,75
4.952;-0,28;-1,02;-0,42;4,24;-4,01;-7,07;-5,25;2,45;-4,98;946,75
4.952;-0,28;-1,02;-0,42;0,65;-19,17;-2,87;-5,25;2,45;-4,98;946,75
5.011;-1,46;-2,45;-0,10;0,65;-19,17;-2,87;-5,25;2,45;-4,98;946,75
5.012;-1,46;-2,45;-0,10;0,65;-19,17;-2,87;-6,85;0,34;-6,09;946,75
5.013;-1,46;-2,45;-0,10;-8,11;-31,57;-1,75;-6,85;0,34;-6,09;946,75
5.013;-1,46;-2,45;-0,10;-8,11;-31,57;-1,75;-6,85;0,34;-6,09;946,80
5.073;-1,47;-1,62;0,63;-8,11;-31,57;-1,75;-6,85;0,34;-6,09;946,80
5.074;-1,47;-1,62;0,63;-8,11;-31,57;-1,75;-4,77;0,58;-3,00;946,80
5.074;-1,47;-1,62;0,63;-6,37;-20,63;3,29;-4,77;0,58;-3,00;946,80
5.11;-1,47;-1,62;0,63;-6,37;-20,63;3,29;-4,77;0,58;-3,00;946,80
5.13;-0,78;-0,56;0,77;-6,37;-20,63;3,29;-4,77;0,58;-3,00;946,80
5.131;-0,78;-0,56;0,77;-6,37;-20,63;3,29;-2,98;3,44;-1,66;946,80
5.131;-0,78;-0,56;0,77;0,87;-8,24;3,48;-2,98;3,44;-1,66;946,80
5.192;-1,25;0,14;0,78;0,87;-8,24;3,48;-2,98;3,44;-1,66;946,80
5.193;-1,25;0,14;0,78;0,87;-8,24;3,48;-2,84;0,91;-1,36;946,80
5.193;-1,25;0,14;0,78;-3,07;-0,12;4,69;-2,84;0,91;-1,36;946,80
5.21;-1,25;0,14;0,78;-3,07;-0,12;4,69;-2,84;0,91;-1,36;946,87
5.251;-0,93;-0,18;1,78;-3,07;-0,12;4,69;-2,84;0,91;-1,36;946,87
5.251;-0,93;-0,18;1,78;-3,07;-0,12;4,69;-1,65;0,53;-0,23;946,87
5.251;-0,93;-0,18;1,78;0,27;-2,45;14,80;-1,65;0,53;-0,23;946,87
5.31;-1,20;-0,08;2,01;0,27;-2,45;14,80;-1,65;0,53;-0,23;946,87
5.311;-1,20;-0,08;2,01;0,27;-2,45;14,80;0,09;0,68;-0,78;946,87
5.312;-1,20;-0,08;2,01;-2,28;-1,11;17,36;0,09;0,68;-0,78;946,87
5.313;-1,20;-0,08;2,01;-2,28;-1,11;17,36;0,09;0,68;-0,78;946,87
5.37;-1,93;-0,55;1,09;-2,28;-1,11;17,36;0,09;0,68;-0,78;946,87
5.371;-1,93;-0,55;1,09;-2,28;-1,11;17,36;2,11;0,54;-0,67;946,87
5.371;-1,93;-0,55;1,09;-9,30;-5,51;8,77;2,11;0,54;-0,67;946,87
5.41;-1,93;-0,55;1,09;-9,30;-5,51;8,77;2,11;0,54;-0,67;946,94
5.431;-2,73;-0,33;0,74;-9,30;-5,51;8,77;2,11;0,54;-0,67;946,94
5.431;-2,73;-0,33;0,74;-9,30;-5,51;8,77;2,66;1,13;0,37;946,94
5.431;-2,73;-0,33;0,74;-17,13;-3,44;5,50;2,66;1,13;0,37;946,94
5.491;-3,15;-0,53;0,90;-17,13;-3,44;5,50;2,66;1,13;0,37;946,94
5.492;-3,15;-0,53;0,90;-17,13;-3,44;5,50;3,01;-1,88;1,68;946,94
5.492;-3,15;-0,53;0,90;-21,31;-6,16;7,03;3,01;-1,88;1,68;946,94
5.51;-3,15;-0,53;0,90;-21,31;-6,16;7,03;3,01;-1,88;1,68;946,92
5.55;-3,13;-0,57;0,86;-21,31;-6,16;7,03;3,01;-1,88;1,68;946,92
5.551;-3,13;-0,57;0,86;-21,31;-6,16;7,03;3,46;-0,81;2,80;946,92
5.551;-3,13;-0,57;0,86;-21,37;-8,15;6,57;3,46;-0,81;2,80;946,92
5.611;-1,93;-0,88;0,60;-21,37;-8,15;6,57;3,46;-0,81;2,80;946,92
5.612;-1,93;-0,88;0,60;-21,37;-8,15;6,57;4,11;-1,93;3,99;946,92
5.613;-1,93;-0,88;0,60;-10,51;-13,43;4,37;4,11;-1,93;3,99;946,92
5.613;-1,93;-0,88;0,60;-10,51;-13,43;4,37;4,11;-1,93;3,99;946,92
5.671;-0,31;-1,48;0,04;-10,51;-13,43;4,37;4,11;-1,93;3,99;946,92
5.672;-0,31;-1,48;0,04;-10,51;-13,43;4,37;4,73;-1,98;4,24;946,92
5.672;-0,31;-1,48;0,04;3,80;-21,45;-0,52;4,73;-1,98;4,24;946,92
5.713;-0,31;-1,48;0,04;3,80;-21,45;-0,52;4,73;-1,98;4,24;946,92
5.732;0,48;-1,05;-0,66;3,80;-21,45;-0,52;4,73;-1,98;4,24;946,92
5.732;0,48;-1,05;-0,66;3,80;-21,45;-0,52;4,55;-1,51;3,89;946,92
5.733;0,48;-1,05;-0,66;9,45;-18,90;-5,82;4,55;-1,51;3,89;946,92
5.793;-0,48;-1,05;-0,88;9,45;-18,90;-5,82;4,55;-1,51;3,89;946,92
5.794;-0,48;-1,05;-0,88;9,45;-18,90;-5,82;3,27;0,28;3,72;946,92
5.794;-0,48;-1,05;-0,88;-1,68;-19,29;-6,04;3,27;0,28;3,72;946,92
5.81;-0,48;-1,05;-0,88;-1,68;-19,29;-6,04;3,27;0,28;3,72;946,88
5.85;0,04;-0,32;-1,09;-1,68;-19,29;-6,04;3,27;0,28;3,72;946,88
5.851;0,04;-0,32;-1,09;-1,68;-19,29;-6,04;1,93;-3,08;2,02;946,88
5.851;0,04;-0,32;-1,09;2,05;-12,09;-6,99;1,93;-3,08;2,02;946,88
5.912;-0,17;-0,12;-1,00;2,05;-12,09;-6,99;1,93;-3,08;2,02;946,88
5.913;-0,17;-0,12;-1,00;2,05;-12,09;-6,99;1,58;1,79;1,65;946,88
5.913;-0,17;-0,12;-1,00;-0,50;-9,64;-5,00;1,58;1,79;1,65;946,88
5.914;-0,17;-0,12;-1,00;-0,50;-9,64;-5,00;1,58;1,79;1,65;946,81
5.972;0,39;0,50;-0,77;-0,50;-9,64;-5,00;1,58;1,79;1,65;946,81
5.973;0,39;0,50;-0,77;-0,50;-9,64;-5,00;1,79;-1,72;1,23;946,81
5.973;0,39;0,50;-0,77;3,57;-3,26;-2,17;1,79;-1,72;1,23;946,81
6.011;0,39;0,50;-0,77;3,57;-3,26;-2,17;1,79;-1,72;1,23;946,78
6.033;1,43;0,96;-0,40;3,57;-3,26;-2,17;1,79;-1,72;1,23;946,78
6.033;1,43;0,96;-0,40;3,57;-3,26;-2,17;6,85;3,56;0,06;946,78
6.034;1,43;0,96;-0,40;14,35;1,12;1,36;6,85;3,56;0,06;946,78
6.091;0,82;1,08;0,02;14,35;1,12;1,36;6,85;3,56;0,06;946,78
6.092;0,82;1,08;0,02;14,35;1,12;1,36;-0,25;4,00;-1,51;946,78
6.092;0,82;1,08;0,02;7,78;2,40;5,53;-0,25;4,00;-1,51;946,78
6.111;0,82;1,08;0,02;7,78;2,40;5,53;-0,25;4,00;-1,51;946,75
6.151;0,07;1,34;-1,55;7,78;2,40;5,53;-0,25;4,00;-1,51;946,75
6.151;0,07;1,34;-1,55;7,78;2,40;5,53;-3,26;0,97;-2,29;946,75
6.152;0,07;1,34;-1,55;0,48;5,40;-9,21;-3,26;0,97;-2,29;946,75
6.21;0,25;1,01;-2,18;0,48;5,40;-9,21;-3,26;0,97;-2,29;946,75
6.211;0,25;1,01;-2,18;0,48;5,40;-9,21;-0,51;0,82;-2,36;946,75
6.212;0,25;1,01;-2,18;2,59;1,74;-15,85;-0,51;0,82;-2,36;946,75
6.212;0,25;1,01;-2,18;2,59;1,74;-15,85;-0,51;0,82;-2,36;946,70
6.273;0,12;-0,39;-1,02;2,59;1,74;-15,85;-0,51;0,82;-2,36;946,70
6.273;0,12;-0,39;-1,02;2,59;1,74;-15,85;-2,02;0,17;-2,81;946,70
6.274;0,12;-0,39;-1,02;2,99;-12,81;-6,44;-2,02;0,17;-2,81;946,70
6.311;0,12;-0,39;-1,02;2,99;-12,81;-6,44;-2,02;0,17;-2,81;946,72
6.332;-0,44;-1,18;-0,25;2,99;-12,81;-6,44;-2,02;0,17;-2,81;946,72
6.332;-0,44;-1,18;-0,25;2,99;-12,81;-6,44;-4,58;1,31;-3,31;946,72
6.333;-0,44;-1,18;-0,25;-0,96;-20,65;-1,07;-4,58;1,31;-3,31;946,72
6.392;-0,56;-1,25;0,24;-0,96;-20,65;-1,07;-4,58;1,31;-3,31;946,72
6.393;-0,56;-1,25;0,24;-0,96;-20,65;-1,07;-4,61;0,57;-2,96;946,72
6.393;-0,56;-1,25;0,24;-0,41;-20,63;1,84;-4,61;0,57;-2,96;946,72
6.413;-0,56;-1,25;0,24;-0,41;-20,63;1,84;-4,61;0,57;-2,96;946,76
6.451;-0,63;-0,96;0,49;-0,41;-20,63;1,84;-4,61;0,57;-2,96;946,76
6.452;-0,63;-0,96;0,49;-0,41;-20,63;1,84;-4,01;2,81;-2,43;946,76
6.452;-0,63;-0,96;0,49;0,35;-16,47;2,83;-4,01;2,81;-2,43;946,76
6.512;-0,97;-0,48;0,27;0,35;-16,47;2,83;-4,01;2,81;-2,43;946,76
6.514;-0,97;-0,48;0,27;0,35;-16,47;2,83;-3,77;0,84;-1,89;946,76
6.514;-0,97;-0,48;0,27;-1,81;-10,22;0,25;-3,77;0,84;-1,89;946,76
6.514;-0,97;-0,48;0,27;-1,81;-10,22;0,25;-3,77;0,84;-1,89;946,77
6.571;-1,19;-0,24;0,90;-1,81;-10,22;0,25;-3,77;0,84;-1,89;946,77
6.571;-1,19;-0,24;0,90;-1,81;-10,22;0,25;-3,15;0,84;-2,23;946,77
6.572;-1,19;-0,24;0,90;-3,30;-6,31;5,54;-3,15;0,84;-2,23;946,77
6.611;-1,19;-0,24;0,90;-3,30;-6,31;5,54;-3,15;0,84;-2,23;946,83
6.631;-1,55;-0,67;1,41;-3,30;-6,31;5,54;-3,15;0,84;-2,23;946,83
6.631;-1,55;-0,67;1,41;-3,30;-6,31;5,54;-2,48;1,14;-2,22;946,83
6.631;-1,55;-0,67;1,41;-6,14;-8,81;10,73;-2,48;1,14;-2,22;946,83
6.69;-2,68;-0,51;1,70;-6,14;-8,81;10,73;-2,48;1,14;-2,22;946,83
6.691;-2,68;-0,51;1,70;-6,14;-8,81;10,73;-0,98;0,73;-1,82;946,83
6.691;-2,68;-0,51;1,70;-16,80;-5,54;14,05;-0,98;0,73;-1,82;946,83
6.712;-2,68;-0,51;1,70;-16,80;-5,54;14,05;-0,98;0,73;-1,82;946,85
6.75;-2,75;-0,14;1,84;-16,80;-5,54;14,05;-0,98;0,73;-1,82;946,85
6.751;-2,75;-0,14;1,84;-16,80;-5,54;14,05;1,06;1,06;-0,11;946,85
6.751;-2,75;-0,14;1,84;-17,47;-1,28;15,62;1,06;1,06;-0,11;946,85
6.812;-3,07;-0,59;1,71;-17,47;-1,28;15,62;1,06;1,06;-0,11;946,85
6.813;-3,07;-0,59;1,71;-17,47;-1,28;15,62;2,79;-1,04;1,41;946,85
6.813;-3,07;-0,59;1,71;-20,56;-6,22;14,61;2,79;-1,04;1,41;946,85
6.813;-3,07;-0,59;1,71;-20,56;-6,22;14,61;2,79;-1,04;1,41;946,88
6.872;-2,85;-0,89;1,29;-20,56;-6,22;14,61;2,79;-1,04;1,41;946,88
6.873;-2,85;-0,89;1,29;-20,56;-6,22;14,61;4,46;-1,02;2,43;946,88
6.873;-2,85;-0,89;1,29;-18,62;-10,70;10,23;4,46;-1,02;2,43;946,88
6.91;-2,85;-0,89;1,29;-18,62;-10,70;10,23;4,46;-1,02;2,43;946,91
6.932;-1,53;-0,91;0,66;-18,62;-10,70;10,23;4,46;-1,02;2,43;946,91
6.933;-1,53;-0,91;0,66;-18,62;-10,70;10,23;5,48;-2,80;2,68;946,91
6.933;-1,53;-0,91;0,66;-6,50;-13,05;3,83;5,48;-2,80;2,68;946,91
6.992;-1,05;-1,00;-0,02;-6,50;-13,05;3,83;5,48;-2,80;2,68;946,91
6.992;-1,05;-1,00;-0,02;-6,50;-13,05;3,83;5,54;-0,44;3,50;946,91
6.993;-1,05;-1,00;-0,02;-2,98;-16,15;-1,79;5,54;-0,44;3,50;946,91
7.011;-1,05;-1,00;-0,02;-2,98;-16,15;-1,79;5,54;-0,44;3,50;946,87
7.051;-0,66;-1,22;-0,26;-2,98;-16,15;-1,79;5,54;-0,44;3,50;946,87
7.052;-0,66;-1,22;-0,26;-2,98;-16,15;-1,79;4,48;0,24;4,29;946,87
7.054;-0,66;-1,22;-0,26;-0,88;-19,97;-2,09;4,48;0,24;4,29;946,87
7.113;-0,57;-1,06;-0,80;-0,88;-19,97;-2,09;4,48;0,24;4,29;946,87
7.113;-0,57;-1,06;-0,80;-0,88;-19,97;-2,09;3,13;-1,43;4,37;946,87
7.113;-0,57;-1,06;-0,80;-2,19;-19,21;-5,38;3,13;-1,43;4,37;946,87
7.114;-0,57;-1,06;-0,80;-2,19;-19,21;-5,38;3,13;-1,43;4,37;946,84
7.173;-0,12;-0,56;-1,08;-2,19;-19,21;-5,38;3,13;-1,43;4,37;946,84
7.174;-0,12;-0,56;-1,08;-2,19;-19,21;-5,38;2,27;0,09;3,77;946,84
7.174;-0,12;-0,56;-1,08;0,04;-14,44;-6,71;2,27;0,09;3,77;946,84
7.21;-0,12;-0,56;-1,08;0,04;-14,44;-6,71;2,27;0,09;3,77;946,80
7.232;0,43;-0,43;-0,71;0,04;-14,44;-6,71;2,27;0,09;3,77;946,80
7.234;0,43;-0,43;-0,71;0,04;-14,44;-6,71;2,48;-0,07;2,61;946,80
7.234;0,43;-0,43;-0,71;4,11;-12,81;-2,26;2,48;-0,07;2,61;946,80
7.292;-0,16;2,49;5,39;4,11;-12,81;-2,26;2,48;-0,07;2,61;946,80
7.293;-0,16;2,49;5,39;4,11;-12,81;-2,26;-1,13;-0,96;1,53;946,80
7.293;-0,16;2,49;5,39;-2,76;16,53;58,60;-1,13;-0,96;1,53;946,80
7.31;-0,16;2,49;5,39;-2,76;16,53;58,60;-1,13;-0,96;1,53;946,78
7.352;1,54;1,21;-3,62;-2,76;16,53;58,60;-1,13;-0,96;1,53;946,78
7.352;1,54;1,21;-3,62;-2,76;16,53;58,60;2,16;1,12;0,34;946,78
7.353;1,54;1,21;-3,62;13,01;4,28;-29,57;2,16;1,12;0,34;946,78
7.411;1,32;1,68;-1,70;13,01;4,28;-29,57;2,16;1,12;0,34;946,78
7.412;1,32;1,68;-1,70;13,01;4,28;-29,57;3,22;2,05;-1,83;946,78
7.412;1,32;1,68;-1,70;12,02;8,70;-10,69;3,22;2,05;-1,83;946,78
7.413;1,32;1,68;-1,70;12,02;8,70;-10,69;3,22;2,05;-1,83;946,76
7.474;0,39;0,81;-0,66;12,02;8,70;-10,69;3,22;2,05;-1,83;946,76
7.474;0,39;0,81;-0,66;12,02;8,70;-10,69;-1,90;0,28;-2,11;946,76
7.475;0,39;0,81;-0,66;1,99;0,02;-0,94;-1,90;0,28;-2,11;946,76
7.512;0,39;0,81;-0,66;1,99;0,02;-0,94;-1,90;0,28;-2,11;946,76
7.531;0,51;0,24;-1,50;1,99;0,02;-0,94;-1,90;0,28;-2,11;946,76
7.531;0,51;0,24;-1,50;1,99;0,02;-0,94;-2,98;0,25;-2,86;946,76
7.531;0,51;0,24;-1,50;4,04;-5,75;-9,31;-2,98;0,25;-2,86;946,76
7.592;-0,02;-0,79;-1,21;4,04;-5,75;-9,31;-2,98;0,25;-2,86;946,76
7.593;-0,02;-0,79;-1,21;4,04;-5,75;-9,31;-3,29;3,92;-3,89;946,76
7.593;-0,02;-0,79;-1,21;-0,00;-16,72;-7,96;-3,29;3,92;-3,89;946,76
7.611;-0,02;-0,79;-1,21;-0,00;-16,72;-7,96;-3,29;3,92;-3,89;946,78
7.651;-0,65;-1,07;-0,12;-0,00;-16,72;-7,96;-3,29;3,92;-3,89;946,78
7.651;-0,65;-1,07;-0,12;-0,00;-16,72;-7,96;-2,92;1,56;-3,67;946,78
7.652;-0,65;-1,07;-0,12;-4,36;-19,90;0,68;-2,92;1,56;-3,67;946,78
7.713;-0,45;-0,96;0,14;-4,36;-19,90;0,68;-2,92;1,56;-3,67;946,78
7.713;-0,45;-0,96;0,14;-4,36;-19,90;0,68;-2,83;0,23;-2,95;946,78
7.713;-0,45;-0,96;0,14;-0,56;-18,41;1,23;-2,83;0,23;-2,95;946,78
7.714;-0,45;-0,96;0,14;-0,56;-18,41;1,23;-2,83;0,23;-2,95;946,82
7.773;-0,63;-0,44;-0,04;-0,56;-18,41;1,23;-2,83;0,23;-2,95;946,82
7.774;-0,63;-0,44;-0,04;-0,56;-18,41;1,23;-2,61;2,07;-2,36;946,82
7.775;-0,63;-0,44;-0,04;-0,79;-12,37;-1,74;-2,61;2,07;-2,36;946,82
7.811;-0,63;-0,44;-0,04;-0,79;-12,37;-1,74;-2,61;2,07;-2,36;946,82
7.832;-0,99;0,26;0,20;-0,79;-12,37;-1,74;-2,61;2,07;-2,36;946,82
7.832;-0,99;0,26;0,20;-0,79;-12,37;-1,74;-2,89;1,88;-2,69;946,82
7.832;-0,99;0,26;0,20;-2,97;-4,34;-0,01;-2,89;1,88;-2,69;946,82
7.892;-1,52;-0,18;0,95;-2,97;-4,34;-0,01;-2,89;1,88;-2,69;946,82
7.893;-1,52;-0,18;0,95;-2,97;-4,34;-0,01;-3,36;2,73;-3,51;946,82
7.894;-1,52;-0,18;0,95;-6,88;-6,88;7,05;-3,36;2,73;-3,51;946,82
7.914;-1,52;-0,18;0,95;-6,88;-6,88;7,05;-3,36;2,73;-3,51;946,82
7.951;-2,41;-0,01;1,34;-6,88;-6,88;7,05;-3,36;2,73;-3,51;946,82
7.953;-2,41;-0,01;1,34;-6,88;-6,88;7,05;-2,02;0,61;-2,94;946,82
7.953;-2,41;-0,01;1,34;-14,51;-3,21;11,44;-2,02;0,61;-2,94;946,82
8.011;-2,58;0,21;1,64;-14,51;-3,21;11,44;-2,02;0,61;-2,94;946,82
8.012;-2,58;0,21;1,64;-14,51;-3,21;11,44;-0,50;0,40;-1,37;946,82
8.012;-2,58;0,21;1,64;-15,77;0,25;14,31;-0,50;0,40;-1,37;946,82
8.012;-2,58;0,21;1,64;-15,77;0,25;14,31;-0,50;0,40;-1,37;946,86
8.071;-2,89;0,19;1,36;-15,77;0,25;14,31;-0,50;0,40;-1,37;946,86
8.072;-2,89;0,19;1,36;-15,77;0,25;14,31;1,44;0,14;0,35;946,86
8.072;-2,89;0,19;1,36;-18,76;0,44;11,84;1,44;0,14;0,35;946,86
8.112;-2,89;0,19;1,36;-18,76;0,44;11,84;1,44;0,14;0,35;946,86
8.132;-3,05;-0,27;1,12;-18,76;0,44;11,84;1,44;0,14;0,35;946,86
8.133;-3,05;-0,27;1,12;-18,76;0,44;11,84;2,47;-1,27;1,73;946,86
8.133;-3,05;-0,27;1,12;-20,41;-4,74;9,57;2,47;-1,27;1,73;946,86
8.192;-2,62;-0,31;1,13;-20,41;-4,74;9,57;2,47;-1,27;1,73;946,86
8.193;-2,62;-0,31;1,13;-20,41;-4,74;9,57;3,53;-2,33;2,64;946,86
8.193;-2,62;-0,31;1,13;-16,75;-6,68;9,24;3,53;-2,33;2,64;946,86
8.21;-2,62;-0,31;1,13;-16,75;-6,68;9,24;3,53;-2,33;2,64;946,89
8.251;-1,62;-0,68;0,55;-16,75;-6,68;9,24;3,53;-2,33;2,64;946,89
8.251;-1,62;-0,68;0,55;-16,75;-6,68;9,24;4,67;-2,57;3,15;946,89
8.251;-1,62;-0,68;0,55;-7,99;-12,19;3,52;4,67;-2,57;3,15;946,89
8.313;-0,80;-0,79;-0,20;-7,99;-12,19;3,52;4,67;-2,57;3,15;946,89
8.314;-0,80;-0,79;-0,20;-7,99;-12,19;3,52;4,80;-1,70;3,46;946,89
8.314;-0,80;-0,79;-0,20;-1,44;-15,09;-2,89;4,80;-1,70;3,46;946,89
8.314;-0,80;-0,79;-0,20;-1,44;-15,09;-2,89;4,80;-1,70;3,46;946,88
8.371;-0,50;-0,60;-0,16;-1,44;-15,09;-2,89;4,80;-1,70;3,46;946,88
8.372;-0,50;-0,60;-0,16;-1,44;-15,09;-2,89;3,40;-1,52;3,85;946,88
8.372;-0,50;-0,60;-0,16;-0,37;-14,57;-1,01;3,40;-1,52;3,85;946,88
8.411;-0,50;-0,60;-0,16;-0,37;-14,57;-1,01;3,40;-1,52;3,85;946,88
8.43;-0,12;-0,85;-0,17;-0,37;-14,57;-1,01;3,40;-1,52;3,85;946,88
8.431;-0,12;-0,85;-0,17;-0,37;-14,57;-1,01;3,08;-3,52;3,08;946,88
8.431;-0,12;-0,85;-0,17;1,74;-17,48;0,14;3,08;-3,52;3,08;946,88
8.491;-0,17;-0,58;-1,00;1,74;-17,48;0,14;3,08;-3,52;3,08;946,88
8.491;-0,17;-0,58;-1,00;1,74;-17,48;0,14;2,06;0,67;2,72;946,88
8.492;-0,17;-0,58;-1,00;-0,22;-14,79;-6,44;2,06;0,67;2,72;946,88
8.511;-0,17;-0,58;-1,00;-0,22;-14,79;-6,44;2,06;0,67;2,72;946,84
8.55;0,22;-0,10;-0,94;-0,22;-14,79;-6,44;2,06;0,67;2,72;946,84
8.551;0,22;-0,10;-0,94;-0,22;-14,79;-6,44;1,67;-1,93;1,21;946,84
8.551;0,22;-0,10;-0,94;2,92;-9,83;-4,95;1,67;-1,93;1,21;946,84
8.612;0,11;0,21;-1,34;2,92;-9,83;-4,95;1,67;-1,93;1,21;946,84
8.612;0,11;0,21;-1,34;2,92;-9,83;-4,95;2,13;0,11;1,15;946,84
8.612;0,11;0,21;-1,34;1,68;-6,36;-8,22;2,13;0,11;1,15;946,84
8.613;0,11;0,21;-1,34;1,68;-6,36;-8,22;2,13;0,11;1,15;946,76
8.671;0,05;0,98;-4,55;1,68;-6,36;-8,22;2,13;0,11;1,15;946,76
8.671;0,05;0,98;-4,55;1,68;-6,36;-8,22;-1,11;-0,48;1,42;946,76
8.672;0,05;0,98;-4,55;-0,43;1,72;-38,84;-1,11;-0,48;1,42;946,76
8.71;0,05;0,98;-4,55;-0,43;1,72;-38,84;-1,11;-0,48;1,42;946,76
8.732;1,24;2,02;-2,48;-0,43;1,72;-38,84;-1,11;-0,48;1,42;946,76
8.732;1,24;2,02;-2,48;-0,43;1,72;-38,84;1,83;-4,37;0,11;946,76
8.733;1,24;2,02;-2,48;11,31;11,95;-18,51;1,83;-4,37;0,11;946,76
8.791;0,42;0,84;-1,25;11,31;11,95;-18,51;1,83;-4,37;0,11;946,76
8.792;0,42;0,84;-1,25;11,31;11,95;-18,51;0,08;6,90;-1,60;946,76
8.792;0,42;0,84;-1,25;4,40;0,38;-6,42;0,08;6,90;-1,60;946,76
8.811;0,42;0,84;-1,25;4,40;0,38;-6,42;0,08;6,90;-1,60;946,78
8.851;0,31;-0,07;-0,22;4,40;0,38;-6,42;0,08;6,90;-1,60;946,78
8.852;0,31;-0,07;-0,22;4,40;0,38;-6,42;-3,10;-1,35;-2,56;946,78
8.852;0,31;-0,07;-0,22;2,67;-8,89;3,31;-3,10;-1,35;-2,56;946,78
8.911;-0,40;-0,76;-0,87;2,67;-8,89;3,31;-3,10;-1,35;-2,56;946,78
8.912;-0,40;-0,76;-0,87;2,67;-8,89;3,31;-4,41;3,06;-3,56;946,78
8.912;-0,40;-0,76;-0,87;-2,78;-16,27;-4,38;-4,41;3,06;-3,56;946,78
8.912;-0,40;-0,76;-0,87;-2,78;-16,27;-4,38;-4,41;3,06;-3,56;946,81
8.972;-0,34;-1,06;-0,26;-2,78;-16,27;-4,38;-4,41;3,06;-3,56;946,81
8.973;-0,34;-1,06;-0,26;-2,78;-16,27;-4,38;-3,66;0,99;-4,09;946,81
8.973;-0,34;-1,06;-0,26;-0,63;-19,63;-0,60;-3,66;0,99;-4,09;946,81
9.011;-0,34;-1,06;-0,26;-0,63;-19,63;-0,60;-3,66;0,99;-4,09;946,81
9.031;-0,43;-1,26;0,10;-0,63;-19,63;-0,60;-3,66;0,99;-4,09;946,81
9.032;-0,43;-1,26;0,10;-0,63;-19,63;-0,60;-4,01;1,70;-3,61;946,81
9.032;-0,43;-1,26;0,10;0,50;-20,89;1,06;-4,01;1,70;-3,61;946,81
9.091;-0,67;-0,88;-0,13;0,50;-20,89;1,06;-4,01;1,70;-3,61;946,81
9.092;-0,67;-0,88;-0,13;0,50;-20,89;1,06;-4,29;2,00;-3,62;946,81
9.093;-0,67;-0,88;-0,13;0,06;-15,78;-2,55;-4,29;2,00;-3,62;946,81
9.112;-0,67;-0,88;-0,13;0,06;-15,78;-2,55;-4,29;2,00;-3,62;946,83
9.15;-1,03;-0,30;0,78;0,06;-15,78;-2,55;-4,29;2,00;-3,62;946,83
9.152;-1,03;-0,30;0,78;0,06;-15,78;-2,55;-4,17;0,43;-2,78;946,83
9.152;-1,03;-0,30;0,78;-2,09;-8,04;5,21;-4,17;0,43;-2,78;946,83
9.211;-2,00;-0,40;1,52;-2,09;-8,04;5,21;-4,17;0,43;-2,78;946,83
9.212;-2,00;-0,40;1,52;-2,09;-8,04;5,21;-2,00;1,43;-1,63;946,83
9.212;-2,00;-0,40;1,52;-10,75;-7,11;12,04;-2,00;1,43;-1,63;946,83
9.212;-2,00;-0,40;1,52;-10,75;-7,11;12,04;-2,00;1,43;-1,63;946,82
9.27;-2,43;-0,09;1,17;-10,75;-7,11;12,04;-2,00;1,43;-1,63;946,82
9.27;-2,43;-0,09;1,17;-10,75;-7,11;12,04;-0,79;2,66;-1,93;946,82
9.271;-2,43;-0,09;1,17;-14,49;-2,98;9,46;-0,79;2,66;-1,93;946,82
9.311;-2,43;-0,09;1,17;-14,49;-2,98;9,46;-0,79;2,66;-1,93;946,86
9.331;-2,56;0,24;1,50;-14,49;-2,98;9,46;-0,79;2,66;-1,93;946,86
9.332;-2,56;0,24;1,50;-14,49;-2,98;9,46;-0,34;-1,42;-0,61;946,86
9.332;-2,56;0,24;1,50;-15,46;1,04;13,36;-0,34;-1,42;-0,61;946,86
9.394;-2,59;-0,11;1,47;-15,46;1,04;13,36;-0,34;-1,42;-0,61;946,86
9.394;-2,59;-0,11;1,47;-15,46;1,04;13,36;1,31;-0,55;0,88;946,86
9.394;-2,59;-0,11;1,47;-15,80;-2,53;12,79;1,31;-0,55;0,88;946,86
9.41;-2,59;-0,11;1,47;-15,80;-2,53;12,79;1,31;-0,55;0,88;946,85
9.451;-2,71;-0,15;1,12;-15,80;-2,53;12,79;1,31;-0,55;0,88;946,85
9.452;-2,71;-0,15;1,12;-15,80;-2,53;12,79;2,43;-1,00;2,37;946,85
9.452;-2,71;-0,15;1,12;-17,15;-3,93;9,45;2,43;-1,00;2,37;946,85
9.512;-2,29;-0,15;1,01;-17,15;-3,93;9,45;2,43;-1,00;2,37;946,85
9.513;-2,29;-0,15;1,01;-17,15;-3,93;9,45;3,54;-2,04;3,13;946,85
9.513;-2,29;-0,15;1,01;-13,80;-5,64;8,04;3,54;-2,04;3,13;946,85
9.514;-2,29;-0,15;1,01;-13,80;-5,64;8,04;3,54;-2,04;3,13;946,88
9.572;-1,42;-0,37;0,74;-13,80;-5,64;8,04;3,54;-2,04;3,13;946,88
9.573;-1,42;-0,37;0,74;-13,80;-5,64;8,04;4,48;-1,34;3,64;946,88
9.573;-1,42;-0,37;0,74;-6,45;-9,80;5,74;4,48;-1,34;3,64;946,88
9.61;-1,42;-0,37;0,74;-6,45;-9,80;5,74;4,48;-1,34;3,64;946,87
9.631;-0,60;-0,69;-0,14;-6,45;-9,80;5,74;4,48;-1,34;3,64;946,87
9.632;-0,60;-0,69;-0,14;-6,45;-9,80;5,74;4,65;-1,50;3,76;946,87
9.632;-0,60;-0,69;-0,14;-0,12;-14,69;-1,43;4,65;-1,50;3,76;946,87
9.692;-0,44;-0,62;-0,25;-0,12;-14,69;-1,43;4,65;-1,50;3,76;946,87
9.692;-0,44;-0,62;-0,25;-0,12;-14,69;-1,43;3,34;-0,67;3,47;946,87
9.693;-0,44;-0,62;-0,25;-0,24;-14,84;-0,90;3,34;-0,67;3,47;946,87
9.71;-0,44;-0,62;-0,25;-0,24;-14,84;-0,90;3,34;-0,67;3,47;946,86
9.75;-0,25;-0,76;-0,52;-0,24;-14,84;-0,90;3,34;-0,67;3,47;946,86
9.753;-0,25;-0,76;-0,52;-0,24;-14,84;-0,90;2,32;-2,67;3,36;946,86
9.754;-0,25;-0,76;-0,52;-0,00;-16,48;-2,17;2,32;-2,67;3,36;946,86
9.811;-0,11;-0,51;-0,93;-0,00;-16,48;-2,17;2,32;-2,67;3,36;946,86
9.812;-0,11;-0,51;-0,93;-0,00;-16,48;-2,17;1,82;-1,52;2,83;946,86
9.812;-0,11;-0,51;-0,93;0,14;-13,88;-5,23;1,82;-1,52;2,83;946,86
9.813;-0,11;-0,51;-0,93;0,14;-13,88;-5,23;1,82;-1,52;2,83;946,84
9.872;0,11;-0,41;-0,85;0,14;-13,88;-5,23;1,82;-1,52;2,83;946,84
9.873;0,11;-0,41;-0,85;0,14;-13,88;-5,23;1,95;-0,97;2,02;946,84
9.873;0,11;-0,41;-0,85;1,80;-12,63;-3,72;1,95;-0,97;2,02;946,84
9.911;0,11;-0,41;-0,85;1,80;-12,63;-3,72;1,95;-0,97;2,02;946,80
9.93;0,44;0,44;0,36;1,80;-12,63;-3,72;1,95;-0,97;2,02;946,80
9.93;0,44;0,44;0,36;1,80;-12,63;-3,72;1,11;-1,36;1,40;946,80
9.93;0,44;0,44;0,36;4,46;-3,83;9,05;1,11;-1,36;1,40;946,80
9.993;0,66;0,30;-1,20;4,46;-3,83;9,05;1,11;-1,36;1,40;946,80
9.994;0,66;0,30;-1,20;4,46;-3,83;9,05;4,09;-0,51;1,01;946,80
9.995;0,66;0,30;-1,20;5,83;-5,42;-6,68;4,09;-0,51;1,01;946,80
10.01;0,66;0,30;-1,20;5,83;-5,42;-6,68;4,09;-0,51;1,01;946,85
10.052;1,93;1,38;-0,95;5,83;-5,42;-6,68;4,09;-0,51;1,01;946,85
10.053;1,93;1,38;-0,95;5,83;-5,42;-6,68;-0,96;-1,43;0,27;946,85
10.053;1,93;1,38;-0,95;18,39;5,51;-3,64;-0,96;-1,43;0,27;946,85
10.112;0,97;2,17;-1,98;18,39;5,51;-3,64;-0,96;-1,43;0,27;946,85
10.112;0,97;2,17;-1,98;18,39;5,51;-3,64;-2,10;2,26;-1,68;946,85
10.113;0,97;2,17;-1,98;8,61;13,28;-13,75;-2,10;2,26;-1,68;946,85
10.113;0,97;2,17;-1,98;8,61;13,28;-13,75;-2,10;2,26;-1,68;946,93
10.171;0,95;1,15;-2,07;8,61;13,28;-13,75;-2,10;2,26;-1,68;946,93
10.172;0,95;1,15;-2,07;8,61;13,28;-13,75;-2,28;5,00;-3,03;946,93
10.172;0,95;1,15;-2,07;9,89;2,85;-15,25;-2,28;5,00;-3,03;946,93
10.21;0,95;1,15;-2,07;9,89;2,85;-15,25;-2,28;5,00;-3,03;946,83
10.231;-0,23;-0,31;-1,43;9,89;2,85;-15,25;-2,28;5,00;-3,03;946,83
10.231;-0,23;-0,31;-1,43;9,89;2,85;-15,25;-2,19;2,17;-3,75;946,83
10.231;-0,23;-0,31;-1,43;-1,19;-12,01;-10,31;-2,19;2,17;-3,75;946,83
10.292;-0,47;-1,17;0,16;-1,19;-12,01;-10,31;-2,19;2,17;-3,75;946,83
10.293;-0,47;-1,17;0,16;-1,19;-12,01;-10,31;-3,80;1,38;-3,82;946,83
10.293;-0,47;-1,17;0,16;-1,78;-20,59;3,74;-3,80;1,38;-3,82;946,83
10.314;-0,47;-1,17;0,16;-1,78;-20,59;3,74;-3,80;1,38;-3,82;946,82
10.351;-0,56;-1,09;0,13;-1,78;-20,59;3,74;-3,80;1,38;-3,82;946,82
10.352;-0,56;-1,09;0,13;-1,78;-20,59;3,74;-3,64;0,93;-2,67;946,82
10.352;-0,56;-1,09;0,13;-0,91;-19,28;1,76;-3,64;0,93;-2,67;946,82
10.411;-0,35;-0,75;0,39;-0,91;-19,28;1,76;-3,64;0,93;-2,67;946,82
10.412;-0,35;-0,75;0,39;-0,91;-19,28;1,76;-3,20;1,02;-2,60;946,82
10.412;-0,35;-0,75;0,39;-0,91;-19,28;1,76;-3,20;1,02;-2,60;946,82
10.413;-0,35;-0,75;0,39;2,52;-15,11;2,92;-3,20;1,02;-2,60;946,82
10.472;-0,70;-0,33;0,27;2,52;-15,11;2,92;-3,20;1,02;-2,60;946,82
10.473;-0,70;-0,33;0,27;2,52;-15,11;2,92;-2,77;2,15;-2,28;946,82
10.473;-0,70;-0,33;0,27;0,40;-9,73;1,14;-2,77;2,15;-2,28;946,82
10.51;-0,70;-0,33;0,27;0,40;-9,73;1,14;-2,77;2,15;-2,28;946,83
10.531;-0,83;0,19;0,99;0,40;-9,73;1,14;-2,77;2,15;-2,28;946,83
10.531;-0,83;0,19;0,99;0,40;-9,73;1,14;-2,57;0,69;-2,43;946,83
10.532;-0,83;0,19;0,99;-0,01;-3,28;7,76;-2,57;0,69;-2,43;946,83
10.591;-2,18;0,01;1,01;-0,01;-3,28;7,76;-2,57;0,69;-2,43;946,83
10.592;-2,18;0,01;1,01;-0,01;-3,28;7,76;-2,28;2,26;-2,23;946,83
10.593;-2,18;0,01;1,01;-12,44;-3,72;8,57;-2,28;2,26;-2,23;946,83
10.611;-2,18;0,01;1,01;-12,44;-3,72;8,57;-2,28;2,26;-2,23;946,84
10.65;-1,71;0,14;1,29;-12,44;-3,72;8,57;-2,28;2,26;-2,23;946,84
10.651;-1,71;0,14;1,29;-12,44;-3,72;8,57;-0,53;-0,42;-1,43;946,84
10.651;-1,71;0,14;1,29;-7,39;-1,26;11,35;-0,53;-0,42;-1,43;946,84
10.711;-2,46;0,20;0,98;-7,39;-1,26;11,35;-0,53;-0,42;-1,43;946,84
10.712;-2,46;0,20;0,98;-7,39;-1,26;11,35;0,72;1,88;-0,52;946,84
10.712;-2,46;0,20;0,98;-14,52;-0,05;9,04;0,72;1,88;-0,52;946,84
10.713;-2,46;0,20;0,98;-14,52;-0,05;9,04;0,72;1,88;-0,52;946,89
10.772;-2,73;0,19;0,77;-14,52;-0,05;9,04;0,72;1,88;-0,52;946,89
10.773;-2,73;0,19;0,77;-14,52;-0,05;9,04;0,98;-0,41;0,26;946,89
10.774;-2,73;0,19;0,77;-17,13;-0,08;7,43;0,98;-0,41;0,26;946,89
10.812;-2,73;0,19;0,77;-17,13;-0,08;7,43;0,98;-0,41;0,26;946,89
10.831;-3,22;-0,03;1,10;-17,13;-0,08;7,43;0,98;-0,41;0,26;946,89
10.832;-3,22;-0,03;1,10;-17,13;-0,08;7,43;2,16;-0,36;1,73;946,89
10.832;-3,22;-0,03;1,10;-22,03;-2,66;10,65;2,16;-0,36;1,73;946,89
10.892;-2,46;-0,09;1,09;-22,03;-2,66;10,65;2,16;-0,36;1,73;946,89
10.893;-2,46;-0,09;1,09;-22,03;-2,66;10,65;2,75;-2,46;2,44;946,89
10.894;-2,46;-0,09;1,09;-14,98;-4,46;10,07;2,75;-2,46;2,44;946,89
10.91;-2,46;-0,09;1,09;-14,98;-4,46;10,07;2,75;-2,46;2,44;946,89
10.951;-1,32;-0,85;0,78;-14,98;-4,46;10,07;2,75;-2,46;2,44;946,89
10.952;-1,32;-0,85;0,78;-14,98;-4,46;10,07;4,50;-1,80;3,04;946,89
10.952;-1,32;-0,85;0,78;-4,63;-13,56;6,79;4,50;-1,80;3,04;946,89
11.013;-0,31;-1,04;-0,03;-4,63;-13,56;6,79;4,50;-1,80;3,04;946,89
11.013;-0,31;-1,04;-0,03;-4,63;-13,56;6,79;5,15;-1,33;3,87;946,89
11.014;-0,31;-1,04;-0,03;3,96;-17,04;-0,10;5,15;-1,33;3,87;946,89
11.014;-0,31;-1,04;-0,03;3,96;-17,04;-0,10;5,15;-1,33;3,87;946,89
11.07;-0,48;-0,85;-0,28;3,96;-17,04;-0,10;5,15;-1,33;3,87;946,89
11.071;-0,48;-0,85;-0,28;3,96;-17,04;-0,10;4,14;-0,63;4,28;946,89
11.071;-0,48;-0,85;-0,28;0,47;-16,37;-0,75;4,14;-0,63;4,28;946,89
11.112;-0,48;-0,85;-0,28;0,47;-16,37;-0,75;4,14;-0,63;4,28;946,82
11.13;-0,32;-0,74;-0,38;0,47;-16,37;-0,75;4,14;-0,63;4,28;946,82
11.131;-0,32;-0,74;-0,38;0,47;-16,37;-0,75;2,99;-1,73;3,48;946,82
11.131;-0,32;-0,74;-0,38;0,31;-15,67;-0,10;2,99;-1,73;3,48;946,82
11.191;0,11;-0,26;-0,73;0,31;-15,67;-0,10;2,99;-1,73;3,48;946,82
11.191;0,11;-0,26;-0,73;0,31;-15,67;-0,10;1,55;-4,51;2,37;946,82
11.191;0,11;-0,26;-0,73;3,58;-10,91;-2,64;1,55;-4,51;2,37;946,82
11.212;0,11;-0,26;-0,73;3,58;-10,91;-2,64;1,55;-4,51;2,37;946,77
11.25;0,14;0,03;-1,22;3,58;-10,91;-2,64;1,55;-4,51;2,37;946,77
11.251;0,14;0,03;-1,22;3,58;-10,91;-2,64;0,84;1,12;1,99;946,77
11.251;0,14;0,03;-1,22;3,44;-7,87;-6,93;0,84;1,12;1,99;946,77
11.312;0,33;0,37;-1,09;3,44;-7,87;-6,93;0,84;1,12;1,99;946,77
11.313;0,33;0,37;-1,09;3,44;-7,87;-6,93;1,27;-0,72;1,01;946,77
11.313;0,33;0,37;-1,09;5,03;-4,39;-5,34;1,27;-0,72;1,01;946,77
11.313;0,33;0,37;-1,09;5,03;-4,39;-5,34;1,27;-0,72;1,01;946,73
11.372;0,51;1,10;-2,20;5,03;-4,39;-5,34;1,27;-0,72;1,01;946,73
11.373;0,51;1,10;-2,20;5,03;-4,39;-5,34;-1,43;0,10;1,03;946,73
11.373;0,51;1,10;-2,20;6,61;2,81;-16,08;-1,43;0,10;1,03;946,73
11.411;0,51;1,10;-2,20;6,61;2,81;-16,08;-1,43;0,10;1,03;946,70
11.431;0,79;2,09;-2,24;6,61;2,81;-16,08;-1,43;0,10;1,03;946,70
11.431;0,79;2,09;-2,24;6,61;2,81;-16,08;0,08;-3,55;-0,34;946,70
11.431;0,79;2,09;-2,24;8,50;12,79;-15,96;0,08;-3,55;-0,34;946,70
11.491;0,43;1,21;-2,07;8,50;12,79;-15,96;0,08;-3,55;-0,34;946,70
11.492;0,43;1,21;-2,07;8,50;12,79;-15,96;0,10;7,06;-1,22;946,70
11.493;0,43;1,21;-2,07;5,45;4,24;-14,23;0,10;7,06;-1,22;946,70
11.511;0,43;1,21;-2,07;5,45;4,24;-14,23;0,10;7,06;-1,22;946,73
11.553;-0,02;0,09;-0,81;5,45;4,24;-14,23;0,10;7,06;-1,22;946,73
11.554;-0,02;0,09;-0,81;5,45;4,24;-14,23;-1,89;-1,60;-1,43;946,73
11.554;-0,02;0,09;-0,81;0,70;-7,22;-2,43;-1,89;-1,60;-1,43;946,73
11.613;-0,01;-0,43;-0,05;0,70;-7,22;-2,43;-1,89;-1,60;-1,43;946,73
11.613;-0,01;-0,43;-0,05;0,70;-7,22;-2,43;-4,11;0,88;-2,29;946,73
11.614;-0,01;-0,43;-0,05;1,80;-12,88;3,76;-4,11;0,88;-2,29;946,73
11.614;-0,01;-0,43;-0,05;1,80;-12,88;3,76;-4,11;0,88;-2,29;946,80
11.671;-0,19;-0,81;-0,10;1,80;-12,88;3,76;-4,11;0,88;-2,29;946,80
11.673;-0,19;-0,81;-0,10;1,80;-12,88;3,76;-4,19;1,30;-2,86;946,80
11.673;-0,19;-0,81;-0,10;1,09;-16,91;1,59;-4,19;1,30;-2,86;946,80
11.712;-0,19;-0,81;-0,10;1,09;-16,91;1,59;-4,19;1,30;-2,86;946,80
11.73;-0,37;-0,77;-0,14;1,09;-16,91;1,59;-4,19;1,30;-2,86;946,80
11.731;-0,37;-0,77;-0,14;1,09;-16,91;1,59;-3,80;2,58;-2,98;946,80
11.731;-0,37;-0,77;-0,14;0,81;-16,24;-0,57;-3,80;2,58;-2,98;946,80
11.79;-0,78;-0,37;-0,05;0,81;-16,24;-0,57;-3,80;2,58;-2,98;946,80
11.791;-0,78;-0,37;-0,05;0,81;-16,24;-0,57;-3,70;2,54;-2,79;946,80
11.791;-0,78;-0,37;-0,05;-1,82;-11,48;-0,79;-3,70;2,54;-2,79;946,80
11.812;-0,78;-0,37;-0,05;-1,82;-11,48;-0,79;-3,70;2,54;-2,79;946,83
11.852;-0,62;0,20;0,61;-1,82;-11,48;-0,79;-3,70;2,54;-2,79;946,83
11.853;-0,62;0,20;0,61;-1,82;-11,48;-0,79;-3,52;0,08;-2,62;946,83
11.853;-0,62;0,20;0,61;0,82;-4,84;4,40;-3,52;0,08;-2,62;946,83
11.912;-1,61;-0,17;1,33;0,82;-4,84;4,40;-3,52;0,08;-2,62;946,83
11.913;-1,61;-0,17;1,33;0,82;-4,84;4,40;-3,28;2,18;-2,99;946,83
11.913;-1,61;-0,17;1,33;-7,61;-6,70;11,08;-3,28;2,18;-2,99;946,83
11.913;-1,61;-0,17;1,33;-7,61;-6,70;11,08;-3,28;2,18;-2,99;946,86
11.971;-2,16;-0,25;1,52;-7,61;-6,70;11,08;-3,28;2,18;-2,99;946,86
11.972;-2,16;-0,25;1,52;-7,61;-6,70;11,08;-1,83;1,29;-2,52;946,86
11.974;-2,16;-0,25;1,52;-12,08;-5,54;13,12;-1,83;1,29;-2,52;946,86
12.009;-2,16;-0,25;1,52;-12,08;-5,54;13,12;-1,83;1,29;-2,52;946,86
12.031;-2,15;-0,08;1,29;-12,08;-5,54;13,12;-1,83;1,29;-2,52;946,86
12.032;-2,15;-0,08;1,29;-12,08;-5,54;13,12;-0,07;0,52;-1,13;946,86
12.032;-2,15;-0,08;1,29;-11,54;-2,71;11,31;-0,07;0,52;-1,13;946,86
12.092;-2,59;-0,05;1,38;-11,54;-2,71;11,31;-0,07;0,52;-1,13;946,86
12.093;-2,59;-0,05;1,38;-11,54;-2,71;11,31;0,88;0,79;0,18;946,86
12.093;-2,59;-0,05;1,38;-15,73;-2,02;12,55;0,88;0,79;0,18;946,86
12.111;-2,59;-0,05;1,38;-15,73;-2,02;12,55;0,88;0,79;0,18;946,89
12.152;-2,33;-0,06;1,25;-15,73;-2,02;12,55;0,88;0,79;0,18;946,89
12.152;-2,33;-0,06;1,25;-15,73;-2,02;12,55;2,27;-1,24;1,53;946,89
12.152;-2,33;-0,06;1,25;-13,30;-2,72;11,20;2,27;-1,24;1,53;946,89
12.212;-2,72;-0,28;1,19;-13,30;-2,72;11,20;2,27;-1,24;1,53;946,89
12.213;-2,72;-0,28;1,19;-13,30;-2,72;11,20;2,94;-2,02;2,78;946,89
12.214;-2,72;-0,28;1,19;-17,55;-6,25;10,54;2,94;-2,02;2,78;946,89
12.214;-2,72;-0,28;1,19;-17,55;-6,25;10,54;2,94;-2,02;2,78;946,88
12.271;-1,73;-0,21;0,55;-17,55;-6,25;10,54;2,94;-2,02;2,78;946,88
12.272;-1,73;-0,21;0,55;-17,55;-6,25;10,54;4,40;-1,10;3,49;946,88
12.272;-1,73;-0,21;0,55;-8,81;-7,43;4,25;4,40;-1,10;3,49;946,88
12.311;-1,73;-0,21;0,55;-8,81;-7,43;4,25;4,40;-1,10;3,49;946,88
12.331;-0,54;-0,31;0,15;-8,81;-7,43;4,25;4,40;-1,10;3,49;946,88
12.331;-0,54;-0,31;0,15;-8,81;-7,43;4,25;4,60;-2,26;2,77;946,88
12.331;-0,54;-0,31;0,15;1,58;-10,10;1,30;4,60;-2,26;2,77;946,88
12.392;-0,51;-0,65;-0,28;1,58;-10,10;1,30;4,60;-2,26;2,77;946,88
12.393;-0,51;-0,65;-0,28;1,58;-10,10;1,30;3,36;-0,38;3,14;946,88
12.393;-0,51;-0,65;-0,28;0,65;-14,24;-1,55;3,36;-0,38;3,14;946,88
12.41;-0,51;-0,65;-0,28;0,65;-14,24;-1,55;3,36;-0,38;3,14;946,86
12.451;-0,45;-0,65;-0,62;0,65;-14,24;-1,55;3,36;-0,38;3,14;946,86
12.452;-0,45;-0,65;-0,62;0,65;-14,24;-1,55;2,50;-1,68;3,09;946,86
12.452;-0,45;-0,65;-0,62;-0,16;-14,89;-3,68;2,50;-1,68;3,09;946,86
12.511;0,15;-0,36;-0,48;-0,16;-14,89;-3,68;2,50;-1,68;3,09;946,86
12.512;0,15;-0,36;-0,48;-0,16;-14,89;-3,68;2,08;-2,72;2,58;946,86
12.512;0,15;-0,36;-0,48;4,79;-12,28;-1,78;2,08;-2,72;2,58;946,86
12.513;0,15;-0,36;-0,48;4,79;-12,28;-1,78;2,08;-2,72;2,58;946,78
12.57;0,26;-0,01;-0,76;4,79;-12,28;-1,78;2,08;-2,72;2,58;946,78
12.571;0,26;-0,01;-0,76;4,79;-12,28;-1,78;1,42;-1,94;1,61;946,78
12.571;0,26;-0,01;-0,76;5,20;-8,92;-3,93;1,42;-1,94;1,61;946,78
12.612;0,26;-0,01;-0,76;5,20;-8,92;-3,93;1,42;-1,94;1,61;946,78
12.63;0,31;0,46;-0,84;5,20;-8,92;-3,93;1,42;-1,94;1,61;946,78
12.631;0,31;0,46;-0,84;5,20;-8,92;-3,93;1,31;0,14;0,92;946,78
12.631;0,31;0,46;-0,84;5,17;-4,07;-4,03;1,31;0,14;0,92;946,78
12.691;0,64;1,31;-0,72;5,17;-4,07;-4,03;1,31;0,14;0,92;946,78
12.694;0,64;1,31;-0,72;5,17;-4,07;-4,03;1,70;0,23;0,50;946,78
12.694;0,64;1,31;-0,72;7,85;4,55;-2,10;1,70;0,23;0,50;946,78
12.711;0,64;1,31;-0,72;7,85;4,55;-2,10;1,70;0,23;0,50;946,75
12.75;0,80;1,22;0,50;7,85;4,55;-2,10;1,70;0,23;0,50;946,75
12.751;0,80;1,22;0,50;7,85;4,55;-2,10;-0,81;-0,49;1,21;946,75
12.751;0,80;1,22;0,50;9,03;3,65;9,94;-0,81;-0,49;1,21;946,75
12.811;1,11;1,21;-1,35;9,03;3,65;9,94;-0,81;-0,49;1,21;946,75
12.812;1,11;1,21;-1,35;9,03;3,65;9,94;-0,57;-2,30;-0,26;946,75
12.812;1,11;1,21;-1,35;11,83;3,85;-7,60;-0,57;-2,30;-0,26;946,75
12.813;1,11;1,21;-1,35;11,83;3,85;-7,60;-0,57;-2,30;-0,26;946,74
12.87;0,26;0,32;-1,28;11,83;3,85;-7,60;-0,57;-2,30;-0,26;946,74
12.871;0,26;0,32;-1,28;11,83;3,85;-7,60;0,55;2,55;-0,81;946,74
12.871;0,26;0,32;-1,28;3,97;-4,77;-6,93;0,55;2,55;-0,81;946,74
12.911;0,26;0,32;-1,28;3,97;-4,77;-6,93;0,55;2,55;-0,81;946,74
12.93;0,13;-0,28;-0,65;3,97;-4,77;-6,93;0,55;2,55;-0,81;946,74
12.931;0,13;-0,28;-0,65;3,97;-4,77;-6,93;0,09;1,53;-2,10;946,74
12.931;0,13;-0,28;-0,65;2,64;-10,85;-0,93;0,09;1,53;-2,10;946,74
12.991;-0,32;-0,48;-0,47;2,64;-10,85;-0,93;0,09;1,53;-2,10;946,74
12.992;-0,32;-0,48;-0,47;2,64;-10,85;-0,93;-2,76;1,09;-2,52;946,74
12.992;-0,32;-0,48;-0,47;-1,16;-12,91;0,47;-2,76;1,09;-2,52;946,74
13.013;-0,32;-0,48;-0,47;-1,16;-12,91;0,47;-2,76;1,09;-2,52;946,76
13.051;-0,34;-0,41;-0,31;-1,16;-12,91;0,47;-2,76;1,09;-2,52;946,76
13.052;-0,34;-0,41;-0,31;-1,16;-12,91;0,47;-3,76;1,46;-2,90;946,76
13.052;-0,34;-0,41;-0,31;-0,43;-12,46;1,05;-3,76;1,46;-2,90;946,76
13.112;-0,14;-0,01;-0,48;-0,43;-12,46;1,05;-3,76;1,46;-2,90;946,76
13.113;-0,14;-0,01;-0,48;-0,43;-12,46;1,05;-3,70;-0,91;-3,01;946,76
13.113;-0,14;-0,01;-0,48;2,94;-8,56;-2,33;-3,70;-0,91;-3,01;946,76
13.113;-0,14;-0,01;-0,48;2,94;-8,56;-2,33;-3,70;-0,91;-3,01;946,76
13.171;-0,53;0,17;-0,34;2,94;-8,56;-2,33;-3,70;-0,91;-3,01;946,76
13.172;-0,53;0,17;-0,34;2,94;-8,56;-2,33;-4,20;4,49;-3,62;946,76
13.172;-0,53;0,17;-0,34;0,62;-6,17;-2,55;-4,20;4,49;-3,62;946,76
13.21;-0,53;0,17;-0,34;0,62;-6,17;-2,55;-4,20;4,49;-3,62;946,77
13.232;-2,36;-0,36;0,14;0,62;-6,17;-2,55;-4,20;4,49;-3,62;946,77
13.232;-2,36;-0,36;0,14;0,62;-6,17;-2,55;-4,86;3,57;-5,55;946,77
13.233;-2,36;-0,36;0,14;-15,52;-9,71;1,98;-4,86;3,57;-5,55;946,77
13.291;-3,26;-1,07;1,40;-15,52;-9,71;1,98;-4,86;3,57;-5,55;946,77
13.292;-3,26;-1,07;1,40;-15,52;-9,71;1,98;-4,87;0,97;-4,73;946,77
13.292;-3,26;-1,07;1,40;-22,82;-14,08;13,70;-4,87;0,97;-4,73;946,77
13.312;-3,26;-1,07;1,40;-22,82;-14,08;13,70;-4,87;0,97;-4,73;946,82
13.351;-2,03;0,23;2,03;-22,82;-14,08;13,70;-4,87;0,97;-4,73;946,82
13.352;-2,03;0,23;2,03;-22,82;-14,08;13,70;-0,69;-0,04;0,09;946,82
13.352;-2,03;0,23;2,03;-10,36;0,03;19,14;-0,69;-0,04;0,09;946,82
13.411;-2,62;0,17;0,99;-10,36;0,03;19,14;-0,69;-0,04;0,09;946,82
13.412;-2,62;0,17;0,99;-10,36;0,03;19,14;0,38;0,56;0,96;946,82
13.412;-2,62;0,17;0,99;-16,22;-0,79;9,86;0,38;0,56;0,96;946,82
13.413;-2,62;0,17;0,99;-16,22;-0,79;9,86;0,38;0,56;0,96;946,86
13.471;-1,60;0,12;0,93;-16,22;-0,79;9,86;0,38;0,56;0,96;946,86
13.472;-1,60;0,12;0,93;-16,22;-0,79;9,86;1,67;-1,67;1,88;946,86
13.472;-1,60;0,12;0,93;-6,42;-2,14;8,54;1,67;-1,67;1,88;946,86
13.511;-1,60;0,12;0,93;-6,42;-2,14;8,54;1,67;-1,67;1,88;946,86
13.531;-2,09;0,41;0,93;-6,42;-2,14;8,54;1,67;-1,67;1,88;946,86
13.531;-2,09;0,41;0,93;-6,42;-2,14;8,54;1,88;-1,45;2,37;946,86
13.531;-2,09;0,41;0,93;-11,79;-0,50;8,43;1,88;-1,45;2,37;946,86
13.591;-1,70;0,10;0,91;-11,79;-0,50;8,43;1,88;-1,45;2,37;946,86
13.591;-1,70;0,10;0,91;-11,79;-0,50;8,43;2,82;-3,27;2,89;946,86
13.592;-1,70;0,10;0,91;-8,93;-4,91;7,73;2,82;-3,27;2,89;946,86
13.613;-1,70;0,10;0,91;-8,93;-4,91;7,73;2,82;-3,27;2,89;946,82
13.651;-0,72;-0,10;0,60;-8,93;-4,91;7,73;2,82;-3,27;2,89;946,82
13.652;-0,72;-0,10;0,60;-8,93;-4,91;7,73;4,40;-0,36;3,77;946,82
13.652;-0,72;-0,10;0,60;-0,76;-8,52;5,31;4,40;-0,36;3,77;946,82
13.711;-0,13;-0,52;0,00;-0,76;-8,52;5,31;4,40;-0,36;3,77;946,82
13.712;-0,13;-0,52;0,00;-0,76;-8,52;5,31;4,38;-1,57;3,62;946,82
13.712;-0,13;-0,52;0,00;3,16;-13,72;1,42;4,38;-1,57;3,62;946,82
13.713;-0,13;-0,52;0,00;3,16;-13,72;1,42;4,38;-1,57;3,62;946,82
13.772;-0,18;-0,32;-0,44;3,16;-13,72;1,42;4,38;-1,57;3,62;946,82
13.773;-0,18;-0,32;-0,44;3,16;-13,72;1,42;3,65;-1,58;2,54;946,82
13.773;-0,18;-0,32;-0,44;1,28;-11,91;-1,09;3,65;-1,58;2,54;946,82
13.812;-0,18;-0,32;-0,44;1,28;-11,91;-1,09;3,65;-1,58;2,54;946,80
13.831;-0,33;-0,45;-0,63;1,28;-11,91;-1,09;3,65;-1,58;2,54;946,80
13.832;-0,33;-0,45;-0,63;1,28;-11,91;-1,09;2,45;-2,08;2,54;946,80
13.832;-0,33;-0,45;-0,63;-1,41;-12,92;-1,63;2,45;-2,08;2,54;946,80
13.891;0,07;-0,11;-0,50;-1,41;-12,92;-1,63;2,45;-2,08;2,54;946,80
13.892;0,07;-0,11;-0,50;-1,41;-12,92;-1,63;1,55;-3,27;1,55;946,80
13.893;0,07;-0,11;-0,50;2,49;-9,19;0,39;1,55;-3,27;1,55;946,80
13.909;0,07;-0,11;-0,50;2,49;-9,19;0,39;1,55;-3,27;1,55;946,75
13.952;0,22;0,34;-1,18;2,49;-9,19;0,39;1,55;-3,27;1,55;946,75
13.953;0,22;0,34;-1,18;2,49;-9,19;0,39;0,99;0,45;0,87;946,75
13.953;0,22;0,34;-1,18;3,97;-4,36;-5,76;0,99;0,45;0,87;946,75
14.013;0,67;0,60;-1,81;3,97;-4,36;-5,76;0,99;0,45;0,87;946,75
14.014;0,67;0,60;-1,81;3,97;-4,36;-5,76;0,90;4,08;0,05;946,75
14.014;0,67;0,60;-1,81;7,79;-1,66;-11,58;0,90;4,08;0,05;946,75
14.014;0,67;0,60;-1,81;7,79;-1,66;-11,58;0,90;4,08;0,05;946,71
14.072;0,92;0,90;-1,24;7,79;-1,66;-11,58;0,90;4,08;0,05;946,71
14.072;0,92;0,90;-1,24;7,79;-1,66;-11,58;0,72;5,08;-0,86;946,71
14.072;0,92;0,90;-1,24;10,75;1,11;-6,35;0,72;5,08;-0,86;946,71
14.111;0,92;0,90;-1,24;10,75;1,11;-6,35;0,72;5,08;-0,86;946,68
14.132;0,90;2,01;-1,30;10,75;1,11;-6,35;0,72;5,08;-0,86;946,68
14.134;0,90;2,01;-1,30;10,75;1,11;-6,35;-0,51;-0,84;-1,07;946,68
14.134;0,90;2,01;-1,30;9,43;11,94;-6,75;-0,51;-0,84;-1,07;946,68
14.19;0,55;0,65;-1,84;9,43;11,94;-6,75;-0,51;-0,84;-1,07;946,68
14.191;0,55;0,65;-1,84;9,43;11,94;-6,75;-2,90;2,40;-2,65;946,68
14.191;0,55;0,65;-1,84;7,17;-1,23;-12,17;-2,90;2,40;-2,65;946,68
14.211;0,55;0,65;-1,84;7,17;-1,23;-12,17;-2,90;2,40;-2,65;946,67
14.25;-0,43;-0,62;-0,91;7,17;-1,23;-12,17;-2,90;2,40;-2,65;946,67
14.251;-0,43;-0,62;-0,91;7,17;-1,23;-12,17;-1,84;2,28;-2,68;946,67
14.251;-0,43;-0,62;-0,91;-2,36;-14,21;-3,85;-1,84;2,28;-2,68;946,67
14.312;-0,53;-0,81;-0,36;-2,36;-14,21;-3,85;-1,84;2,28;-2,68;946,67
14.313;-0,53;-0,81;-0,36;-2,36;-14,21;-3,85;-2,85;-0,66;-2,84;946,67
14.313;-0,53;-0,81;-0,36;-2,17;-16,51;0,02;-2,85;-0,66;-2,84;946,67
14.314;-0,53;-0,81;-0,36;-2,17;-16,51;0,02;-2,85;-0,66;-2,84;946,70
14.371;-0,01;-0,65;0,05;-2,17;-16,51;0,02;-2,85;-0,66;-2,84;946,70
14.372;-0,01;-0,65;0,05;-2,17;-16,51;0,02;-2,91;-1,02;-2,17;946,70
14.372;-0,01;-0,65;0,05;4,36;-14,93;1,89;-2,91;-1,02;-2,17;946,70
14.411;-0,01;-0,65;0,05;4,36;-14,93;1,89;-2,91;-1,02;-2,17;946,76
14.43;-0,35;-0,61;0,23;4,36;-14,93;1,89;-2,91;-1,02;-2,17;946,76
14.431;-0,35;-0,61;0,23;4,36;-14,93;1,89;-3,15;1,47;-2,31;946,76
14.431;-0,35;-0,61;0,23;2,05;-14,07;2,16;-3,15;1,47;-2,31;946,76
14.49;-1,09;0,26;0,54;2,05;-14,07;2,16;-3,15;1,47;-2,31;946,76
14.491;-1,09;0,26;0,54;2,05;-14,07;2,16;-3,23;0,98;-1,93;946,76
14.491;-1,09;0,26;0,54;-4,05;-4,67;4,36;-3,23;0,98;-1,93;946,76
14.51;-1,09;0,26;0,54;-4,05;-4,67;4,36;-3,23;0,98;-1,93;946,77
14.552;-1,39;0,79;1,15;-4,05;-4,67;4,36;-3,23;0,98;-1,93;946,77
14.552;-1,39;0,79;1,15;-4,05;-4,67;4,36;-2,77;0,90;-2,19;946,77
14.553;-1,39;0,79;1,15;-6,18;1,56;9,49;-2,77;0,90;-2,19;946,77
14.613;-1,39;0,79;1,15;-12,02;2,67;12,12;-2,77;0,90;-2,19;946,77
14.614;-1,39;0,79;1,15;-12,02;2,67;12,12;-1,78;1,84;-2,33;946,77
14.614;-2,08;0,77;1,41;-12,02;2,67;12,12;-1,78;1,84;-2,33;946,77
14.614;-2,08;0,77;1,41;-12,02;2,67;12,12;-1,78;1,84;-2,33;946,83
14.671;-2,09;0,16;1,49;-12,02;2,67;12,12;-1,78;1,84;-2,33;946,83
14.671;-2,09;0,16;1,49;-12,02;2,67;12,12;-1,04;-1,12;-1,16;946,83
14.671;-2,09;0,16;1,49;-11,52;-2,25;13,19;-1,04;-1,12;-1,16;946,83
14.71;-2,09;0,16;1,49;-11,52;-2,25;13,19;-1,04;-1,12;-1,16;946,86
14.731;-1,97;0,34;1,30;-11,52;-2,25;13,19;-1,04;-1,12;-1,16;946,86
14.731;-1,97;0,34;1,30;-11,52;-2,25;13,19;0,95;1,46;0,32;946,86
14.732;-1,97;0,34;1,30;-10,31;-0,07;10,79;0,95;1,46;0,32;946,86
14.791;-1,99;0,37;0,97;-10,31;-0,07;10,79;0,95;1,46;0,32;946,86
14.792;-1,99;0,37;0,97;-10,31;-0,07;10,79;1,56;-1,18;1,34;946,86
14.792;-1,99;0,37;0,97;-10,66;-0,35;8,31;1,56;-1,18;1,34;946,86
14.81;-1,99;0,37;0,97;-10,66;-0,35;8,31;1,56;-1,18;1,34;946,85
14.851;-1,85;0,60;1,04;-10,66;-0,35;8,31;1,56;-1,18;1,34;946,85
14.851;-1,85;0,60;1,04;-10,66;-0,35;8,31;2,31;0,04;2,20;946,85
14.852;-1,85;0,60;1,04;-9,85;0,84;8,87;2,31;0,04;2,20;946,85
14.911;-1,79;0,28;0,77;-9,85;0,84;8,87;2,31;0,04;2,20;946,85
14.912;-1,79;0,28;0,77;-9,85;0,84;8,87;2,53;-2,29;2,74;946,85
14.912;-1,79;0,28;0,77;-10,09;-3,67;6,72;2,53;-2,29;2,74;946,85
14.913;-1,79;0,28;0,77;-10,09;-3,67;6,72;2,53;-2,29;2,74;946,84
14.972;-1,06;0,45;0,56;-10,09;-3,67;6,72;2,53;-2,29;2,74;946,84
14.972;-1,06;0,45;0,56;-10,09;-3,67;6,72;3,74;-2,04;3,25;946,84
14.972;-1,06;0,45;0,56;-4,37;-3,25;5,05;3,74;-2,04;3,25;946,84
15.011;-1,06;0,45;0,56;-4,37;-3,25;5,05;3,74;-2,04;3,25;946,83
15.03;-0,73;0,21;0,07;-4,37;-3,25;5,05;3,74;-2,04;3,25;946,83
15.031;-0,73;0,21;0,07;-4,37;-3,25;5,05;3,10;-2,02;2,54;946,83
15.031;-0,73;0,21;0,07;-2,51;-6,55;1,41;3,10;-2,02;2,54;946,83
15.09;0,02;-0,50;-0,34;-2,51;-6,55;1,41;3,10;-2,02;2,54;946,83
15.091;0,02;-0,50;-0,34;-2,51;-6,55;1,41;2,89;-4,59;2,02;946,83
15.091;0,02;-0,50;-0,34;3,84;-13,85;-1,78;2,89;-4,59;2,02;946,83
15.11;0,02;-0,50;-0,34;3,84;-13,85;-1,78;2,89;-4,59;2,02;946,78
15.15;-0,47;-0,48;-0,28;3,84;-13,85;-1,78;2,89;-4,59;2,02;946,78
15.151;-0,47;-0,48;-0,28;3,84;-13,85;-1,78;2,67;3,50;2,31;946,78
15.151;-0,47;-0,48;-0,28;-1,70;-13,57;0,17;2,67;3,50;2,31;946,78
15.212;-0,07;-0,56;-0,81;-1,70;-13,57;0,17;2,67;3,50;2,31;946,78
15.212;-0,07;-0,56;-0,81;-1,70;-13,57;0,17;2,87;-2,58;2,01;946,78
15.212;-0,07;-0,56;-0,81;1,15;-14,05;-3,55;2,87;-2,58;2,01;946,78
15.213;-0,07;-0,56;-0,81;1,15;-14,05;-3,55;2,87;-2,58;2,01;946,76
15.272;0,55;0,03;-1,39;1,15;-14,05;-3,55;2,87;-2,58;2,01;946,76
15.272;0,55;0,03;-1,39;1,15;-14,05;-3,55;1,56;-1,39;1,50;946,76
15.273;0,55;0,03;-1,39;6,39;-7,88;-8,28;1,56;-1,39;1,50;946,76
15.311;0,55;0,03;-1,39;6,39;-7,88;-8,28;1,56;-1,39;1,50;946,72
15.331;0,18;0,05;-2,10;6,39;-7,88;-8,28;1,56;-1,39;1,50;946,72
15.332;0,18;0,05;-2,10;6,39;-7,88;-8,28;0,01;2,47;0,23;946,72
15.332;0,18;0,05;-2,10;2,67;-7,41;-14,83;0,01;2,47;0,23;946,72
15.391;0,88;0,84;-1,24;2,67;-7,41;-14,83;0,01;2,47;0,23;946,72
15.392;0,88;0,84;-1,24;2,67;-7,41;-14,83;2,57;-0,87;-0,73;946,72
15.392;0,88;0,84;-1,24;9,88;-0,01;-7,05;2,57;-0,87;-0,73;946,72
15.41;0,88;0,84;-1,24;9,88;-0,01;-7,05;2,57;-0,87;-0,73;946,94
15.452;0,71;0,99;-0,49;9,88;-0,01;-7,05;2,57;-0,87;-0,73;946,94
15.452;0,71;0,99;-0,49;9,88;-0,01;-7,05;-0,98;3,23;-1,80;946,94
15.452;0,71;0,99;-0,49;9,02;1,74;0,59;-0,98;3,23;-1,80;946,94
15.512;-0,39;1,31;-2,42;9,02;1,74;0,59;-0,98;3,23;-1,80;946,94
15.513;-0,39;1,31;-2,42;9,02;1,74;0,59;-1,15;3,52;-3,49;946,94
15.514;-0,39;1,31;-2,42;-2,59;5,33;-17,60;-1,15;3,52;-3,49;946,94
15.514;-0,39;1,31;-2,42;-2,59;5,33;-17,60;-1,15;3,52;-3,49;946,89
15.571;0,05;1,07;-2,33;-2,59;5,33;-17,60;-1,15;3,52;-3,49;946,89
15.572;0,05;1,07;-2,33;-2,59;5,33;-17,60;-1,52;0,46;-2,86;946,89
15.573;0,05;1,07;-2,33;2,89;3,08;-16,97;-1,52;0,46;-2,86;946,89
15.609;0,05;1,07;-2,33;2,89;3,08;-16,97;-1,52;0,46;-2,86;946,89
15.632;-0,14;-0,63;-0,82;2,89;3,08;-16,97;-1,52;0,46;-2,86;946,89
15.633;-0,14;-0,63;-0,82;2,89;3,08;-16,97;-4,15;-0,41;-3,38;946,89
15.633;-0,14;-0,63;-0,82;2,07;-14,38;-3,95;-4,15;-0,41;-3,38;946,89
15.691;-1,16;-1,73;0,34;2,07;-14,38;-3,95;-4,15;-0,41;-3,38;946,89
15.692;-1,16;-1,73;0,34;2,07;-14,38;-3,95;-6,06;2,17;-4,26;946,89
15.692;-1,16;-1,73;0,34;-6,29;-25,02;5,59;-6,06;2,17;-4,26;946,89
15.712;-1,16;-1,73;0,34;-6,29;-25,02;5,59;-6,06;2,17;-4,26;946,89
15.751;-1,55;-1,23;0,84;-6,29;-25,02;5,59;-6,06;2,17;-4,26;946,89
15.752;-1,55;-1,23;0,84;-6,29;-25,02;5,59;-5,35;0,92;-3,04;946,89
15.752;-1,55;-1,23;0,84;-8,58;-19,22;9,18;-5,35;0,92;-3,04;946,89
15.812;-0,63;-0,51;1,00;-8,58;-19,22;9,18;-5,35;0,92;-3,04;946,89
15.813;-0,63;-0,51;1,00;-8,58;-19,22;9,18;-3,28;0,28;-2,02;946,89
15.813;-0,63;-0,51;1,00;1,43;-11,13;9,07;-3,28;0,28;-2,02;946,89
15.813;-0,63;-0,51;1,00;1,43;-11,13;9,07;-3,28;0,28;-2,02;946,93
15.872;-1,03;0,43;0,95;1,43;-11,13;9,07;-3,28;0,28;-2,02;946,93
15.873;-1,03;0,43;0,95;1,43;-11,13;9,07;-2,58;2,64;-1,48;946,93
15.873;-1,03;0,43;0,95;-1,85;-0,95;8,37;-2,58;2,64;-1,48;946,93
15.91;-1,03;0,43;0,95;-1,85;-0,95;8,37;-2,58;2,64;-1,48;946,93
15.932;-0,90;0,39;1,23;-1,85;-0,95;8,37;-2,58;2,64;-1,48;946,93
15.933;-0,90;0,39;1,23;-1,85;-0,95;8,37;-1,51;-1,26;-0,97;946,93
15.933;-0,90;0,39;1,23;-0,13;-0,60;10,93;-1,51;-1,26;-0,97;946,93
15.99;-1,46;0,27;1,42;-0,13;-0,60;10,93;-1,51;-1,26;-0,97;946,93
15.991;-1,46;0,27;1,42;-0,13;-0,60;10,93;-0,15;1,58;-0,82;946,93
15.991;-1,46;0,27;1,42;-5,34;-1,13;12,46;-0,15;1,58;-0,82;946,93
16.01;-1,46;0,27;1,42;-5,34;-1,13;12,46;-0,15;1,58;-0,82;946,90
16.051;-1,95;0,48;0,93;-5,34;-1,13;12,46;-0,15;1,58;-0,82;946,90
16.052;-1,95;0,48;0,93;-5,34;-1,13;12,46;0,98;0,09;-0,89;946,90
16.052;-1,95;0,48;0,93;-9,91;1,34;8,29;0,98;0,09;-0,89;946,90
16.111;-2,13;0,13;0,84;-9,91;1,34;8,29;0,98;0,09;-0,89;946,90
16.111;-2,13;0,13;0,84;-9,91;1,34;8,29;1,17;-1,12;0,39;946,90
16.111;-2,13;0,13;0,84;-11,63;-1,89;7,63;1,17;-1,12;0,39;946,90
16.112;-2,13;0,13;0,84;-11,63;-1,89;7,63;1,17;-1,12;0,39;946,88
16.172;-1,75;0,44;0,66;-11,63;-1,89;7,63;1,17;-1,12;0,39;946,88
16.173;-1,75;0,44;0,66;-11,63;-1,89;7,63;2,30;0,48;1,42;946,88
16.173;-1,75;0,44;0,66;-8,08;0,52;5,76;2,30;0,48;1,42;946,88
16.211;-1,75;0,44;0,66;-8,08;0,52;5,76;2,30;0,48;1,42;946,88
16.232;-2,19;0,81;0,49;-8,08;0,52;5,76;2,30;0,48;1,42;946,88
16.233;-2,19;0,81;0,49;-8,08;0,52;5,76;2,09;-0,84;2,11;946,88
16.233;-2,19;0,81;0,49;-12,88;3,15;4,83;2,09;-0,84;2,11;946,88
16.293;-2,40;0,56;0,73;-12,88;3,15;4,83;2,09;-0,84;2,11;946,88
16.293;-2,40;0,56;0,73;-12,88;3,15;4,83;2,27;-1,56;2,37;946,88
16.294;-2,40;0,56;0,73;-15,66;-0,40;7,08;2,27;-1,56;2,37;946,88
16.31;-2,40;0,56;0,73;-15,66;-0,40;7,08;2,27;-1,56;2,37;946,87
16.351;-1,77;0,43;0,63;-15,66;-0,40;7,08;2,27;-1,56;2,37;946,87
16.351;-1,77;0,43;0,63;-15,66;-0,40;7,08;3,11;-1,54;3,24;946,87
16.351;-1,77;0,43;0,63;-10,62;-2,92;6,40;3,11;-1,54;3,24;946,87
16.411;-0,74;-0,37;0,10;-10,62;-2,92;6,40;3,11;-1,54;3,24;946,87
16.412;-0,74;-0,37;0,10;-10,62;-2,92;6,40;3,74;-1,98;3,31;946,87
16.412;-0,74;-0,37;0,10;-1,86;-11,74;2,17;3,74;-1,98;3,31;946,87
16.412;-0,74;-0,37;0,10;-1,86;-11,74;2,17;3,74;-1,98;3,31;946,83
16.471;0,09;-0,98;-0,39;-1,86;-11,74;2,17;3,74;-1,98;3,31;946,83
16.472;0,09;-0,98;-0,39;-1,86;-11,74;2,17;3,79;-2,78;3,03;946,83
16.473;0,09;-0,98;-0,39;4,84;-18,18;-1,34;3,79;-2,78;3,03;946,83
16.51;0,09;-0,98;-0,39;4,84;-18,18;-1,34;3,79;-2,78;3,03;946,83
16.531;-0,05;-0,76;-0,43;4,84;-18,18;-1,34;3,79;-2,78;3,03;946,83
16.532;-0,05;-0,76;-0,43;4,84;-18,18;-1,34;2,77;-0,79;2,70;946,83
16.532;-0,05;-0,76;-0,43;2,47;-15,95;-0,42;2,77;-0,79;2,70;946,83
16.591;0,31;-0,25;-0,50;2,47;-15,95;-0,42;2,77;-0,79;2,70;946,83
16.592;0,31;-0,25;-0,50;2,47;-15,95;-0,42;1,49;-3,44;1,50;946,83
16.592;0,31;-0,25;-0,50;5,11;-10,74;-0,01;1,49;-3,44;1,50;946,83
16.611;0,31;-0,25;-0,50;5,11;-10,74;-0,01;1,49;-3,44;1,50;946,77
16.651;-0,16;-0,30;-0,85;5,11;-10,74;-0,01;1,49;-3,44;1,50;946,77
16.652;-0,16;-0,30;-0,85;5,11;-10,74;-0,01;0,99;-0,94;1,05;946,77
16.653;-0,16;-0,30;-0,85;0,67;-10,99;-3,15;0,99;-0,94;1,05;946,77
16.711;0,47;-0,16;-2,29;0,67;-10,99;-3,15;0,99;-0,94;1,05;946,77
16.711;0,47;-0,16;-2,29;0,67;-10,99;-3,15;0,81;2,18;1,27;946,77
16.711;0,47;-0,16;-2,29;6,39;-9,39;-16,73;0,81;2,18;1,27;946,77
16.711;0,47;-0,16;-2,29;6,39;-9,39;-16,73;0,81;2,18;1,27;946,76
16.771;1,47;1,02;-2,56;6,39;-9,39;-16,73;0,81;2,18;1,27;946,76
16.772;1,47;1,02;-2,56;6,39;-9,39;-16,73;6,59;6,24;-0,28;946,76
16.773;1,47;1,02;-2,56;16,74;2,16;-19,74;6,59;6,24;-0,28;946,76
16.81;1,47;1,02;-2,56;16,74;2,16;-19,74;6,59;6,24;-0,28;946,76
16.83;0,67;1,52;-1,20;16,74;2,16;-19,74;6,59;6,24;-0,28;946,76
16.831;0,67;1,52;-1,20;16,74;2,16;-19,74;0,87;4,05;-0,93;946,76
16.831;0,67;1,52;-1,20;8,23;6,86;-6,45;0,87;4,05;-0,93;946,76
16.891;0,41;0,79;-1,50;8,23;6,86;-6,45;0,87;4,05;-0,93;946,76
16.891;0,41;0,79;-1,50;8,23;6,86;-6,45;-3,86;-0,26;-1,90;946,76
16.892;0,41;0,79;-1,50;5,46;0,14;-8,60;-3,86;-0,26;-1,90;946,76
16.911;0,41;0,79;-1,50;5,46;0,14;-8,60;-3,86;-0,26;-1,90;946,73
16.952;0,38;0,65;-2,19;5,46;0,14;-8,60;-3,86;-0,26;-1,90;946,73
16.953;0,38;0,65;-2,19;5,46;0,14;-8,60;-0,08;2,96;-2,61;946,73
16.953;0,38;0,65;-2,19;6,27;-1,31;-15,85;-0,08;2,96;-2,61;946,73
17.011;-0,36;-0,50;-0,91;6,27;-1,31;-15,85;-0,08;2,96;-2,61;946,73
17.012;-0,36;-0,50;-0,91;6,27;-1,31;-15,85;-2,40;2,97;-4,09;946,73
17.012;-0,36;-0,50;-0,91;-0,47;-13,14;-4,47;-2,40;2,97;-4,09;946,73
17.012;-0,36;-0,50;-0,91;-0,47;-13,14;-4,47;-2,40;2,97;-4,09;946,74
17.072;-0,34;-1,12;0,27;-0,47;-13,14;-4,47;-2,40;2,97;-4,09;946,74
17.073;-0,34;-1,12;0,27;-0,47;-13,14;-4,47;-4,46;0,79;-4,59;946,74
17.073;-0,34;-1,12;0,27;1,35;-19,04;5,57;-4,46;0,79;-4,59;946,74
17.11;-0,34;-1,12;0,27;1,35;-19,04;5,57;-4,46;0,79;-4,59;946,75
17.132;-0,79;-1,36;0,24;1,35;-19,04;5,57;-4,46;0,79;-4,59;946,75
17.132;-0,79;-1,36;0,24;1,35;-19,04;5,57;-5,07;2,44;-3,99;946,75
17.132;-0,79;-1,36;0,24;-1,06;-20,47;3,53;-5,07;2,44;-3,99;946,75
17.192;-1,31;-0,81;0,66;-1,06;-20,47;3,53;-5,07;2,44;-3,99;946,75
17.193;-1,31;-0,81;0,66;-1,06;-20,47;3,53;-4,27;2,25;-2,92;946,75
17.193;-1,31;-0,81;0,66;-4,74;-13,42;6,21;-4,27;2,25;-2,92;946,75
17.21;-1,31;-0,81;0,66;-4,74;-13,42;6,21;-4,27;2,25;-2,92;946,76
17.251;-1,39;0,17;1,47;-4,74;-13,42;6,21;-4,27;2,25;-2,92;946,76
17.251;-1,39;0,17;1,47;-4,74;-13,42;6,21;-2,06;-1,57;-1,35;946,76
17.252;-1,39;0,17;1,47;-4,85;-2,54;13,15;-2,06;-1,57;-1,35;946,76
17.31;-1,48;0,13;1,31;-4,85;-2,54;13,15;-2,06;-1,57;-1,35;946,76
17.311;-1,48;0,13;1,31;-4,85;-2,54;13,15;-1,44;2,41;-1,15;946,76
17.311;-1,48;0,13;1,31;-5,46;-2,33;11,92;-1,44;2,41;-1,15;946,76
17.311;-1,48;0,13;1,31;-5,46;-2,33;11,92;-1,44;2,41;-1,15;946,77
17.371;-1,65;0,46;0,78;-5,46;-2,33;11,92;-1,44;2,41;-1,15;946,77
17.372;-1,65;0,46;0,78;-5,46;-2,33;11,92;-0,65;-0,90;-1,06;946,77
17.372;-1,65;0,46;0,78;-6,84;1,52;7,44;-0,65;-0,90;-1,06;946,77
17.411;-1,65;0,46;0,78;-6,84;1,52;7,44;-0,65;-0,90;-1,06;946,81
17.431;-2,14;0,25;1,01;-6,84;1,52;7,44;-0,65;-0,90;-1,06;946,81
17.432;-2,14;0,25;1,01;-6,84;1,52;7,44;0,09;0,46;-0,20;946,81
17.432;-2,14;0,25;1,01;-11,47;-0,10;9,70;0,09;0,46;-0,20;946,81
17.492;-1,85;0,16;0,77;-11,47;-0,10;9,70;0,09;0,46;-0,20;946,81
17.492;-1,85;0,16;0,77;-11,47;-0,10;9,70;1,15;-0,07;0,82;946,81
17.492;-1,85;0,16;0,77;-8,69;-1,03;7,30;1,15;-0,07;0,82;946,81
17.511;-1,85;0,16;0,77;-8,69;-1,03;7,30;1,15;-0,07;0,82;946,82
17.551;-2,02;0,17;0,61;-8,69;-1,03;7,30;1,15;-0,07;0,82;946,82
17.552;-2,02;0,17;0,61;-8,69;-1,03;7,30;1,62;-1,11;1,59;946,82
17.552;-2,02;0,17;0,61;-10,59;-1,65;5,90;1,62;-1,11;1,59;946,82
17.611;-2,43;0,35;1,00;-10,59;-1,65;5,90;1,62;-1,11;1,59;946,82
17.611;-2,43;0,35;1,00;-10,59;-1,65;5,90;1,97;-0,58;2,32;946,82
17.612;-2,43;0,35;1,00;-15,05;-0,87;9,52;1,97;-0,58;2,32;946,82
17.612;-2,43;0,35;1,00;-15,05;-0,87;9,52;1,97;-0,58;2,32;946,83
17.672;-2,02;0,29;1,07;-15,05;-0,87;9,52;1,97;-0,58;2,32;946,83
17.673;-2,02;0,29;1,07;-15,05;-0,87;9,52;2,80;-2,76;3,10;946,83
17.673;-2,02;0,29;1,07;-11,79;-2,80;9,83;2,80;-2,76;3,10;946,83
17.71;-2,02;0,29;1,07;-11,79;-2,80;9,83;2,80;-2,76;3,10;946,85
17.731;-1,00;0,11;0,73;-11,79;-2,80;9,83;2,80;-2,76;3,10;946,85
17.732;-1,00;0,11;0,73;-11,79;-2,80;9,83;4,01;-3,85;2,82;946,85
17.732;-1,00;0,11;0,73;-3,14;-6,07;6,48;4,01;-3,85;2,82;946,85
17.79;-0,51;-0,89;0,15;-3,14;-6,07;6,48;4,01;-3,85;2,82;946,85
17.791;-0,51;-0,89;0,15;-3,14;-6,07;6,48;4,22;-1,90;2,94;946,85
17.791;-0,51;-0,89;0,15;0,26;-16,98;1,60;4,22;-1,90;2,94;946,85
17.81;-0,51;-0,89;0,15;0,26;-16,98;1,60;4,22;-1,90;2,94;946,85
17.85;-0,29;-0,88;-0,45;0,26;-16,98;1,60;4,22;-1,90;2,94;946,85
17.852;-0,29;-0,88;-0,45;0,26;-16,98;1,60;3,70;-2,17;2,67;946,85
17.852;-0,29;-0,88;-0,45;1,01;-17,45;-2,68;3,70;-2,17;2,67;946,85
17.913;0,12;-0,47;-0,72;1,01;-17,45;-2,68;3,70;-2,17;2,67;946,85
17.914;0,12;-0,47;-0,72;1,01;-17,45;-2,68;3,92;-0,20;2,36;946,85
17.914;0,12;-0,47;-0,72;3,99;-13,40;-3,65;3,92;-0,20;2,36;946,85
17.914;0,12;-0,47;-0,72;3,99;-13,40;-3,65;3,92;-0,20;2,36;946,83
17.972;0,03;-0,17;-0,75;3,99;-13,40;-3,65;3,92;-0,20;2,36;946,83
17.973;0,03;-0,17;-0,75;3,99;-13,40;-3,65;1,55;0,63;1,25;946,83
17.973;0,03;-0,17;-0,75;2,12;-10,04;-2,49;1,55;0,63;1,25;946,83
18.01;0,03;-0,17;-0,75;2,12;-10,04;-2,49;1,55;0,63;1,25;946,76
18.031;0,58;0,43;-1,32;2,12;-10,04;-2,49;1,55;0,63;1,25;946,76
18.032;0,58;0,43;-1,32;2,12;-10,04;-2,49;1,23;-4,79;-0,16;946,76
18.032;0,58;0,43;-1,32;7,33;-3,77;-7,49;1,23;-4,79;-0,16;946,76
18.092;0,67;1,11;-4,75;7,33;-3,77;-7,49;1,23;-4,79;-0,16;946,76
18.093;0,67;1,11;-4,75;7,33;-3,77;-7,49;11,73;0,40;0,20;946,76
18.094;0,67;1,11;-4,75;8,72;2,39;-42,06;11,73;0,40;0,20;946,76
18.11;0,67;1,11;-4,75;8,72;2,39;-42,06;11,73;0,40;0,20;947,35
18.15;0,62;0,80;-1,78;8,72;2,39;-42,06;11,73;0,40;0,20;947,35
18.151;0,62;0,80;-1,78;8,72;2,39;-42,06;2,50;2,65;-1,16;947,35
18.151;0,62;0,80;-1,78;8,18;0,21;-11,67;2,50;2,65;-1,16;947,35
18.211;0,03;1,02;-0,91;8,18;0,21;-11,67;2,50;2,65;-1,16;947,35
18.212;0,03;1,02;-0,91;8,18;0,21;-11,67;0,24;2,43;-1,01;947,35
18.212;0,03;1,02;-0,91;1,42;2,34;-2,88;0,24;2,43;-1,01;947,35
18.212;0,03;1,02;-0,91;1,42;2,34;-2,88;0,24;2,43;-1,01;947,13
18.271;-0,15;1,23;-1,00;1,42;2,34;-2,88;0,24;2,43;-1,01;947,13
18.271;-0,15;1,23;-1,00;1,42;2,34;-2,88;-3,16;0,34;-1,23;947,13
18.271;-0,15;1,23;-1,00;0,56;4,47;-4,02;-3,16;0,34;-1,23;947,13
18.312;-0,15;1,23;-1,00;0,56;4,47;-4,02;-3,16;0,34;-1,23;947,01
18.33;-0,03;1,61;-1,93;0,56;4,47;-4,02;-3,16;0,34;-1,23;947,01
18.332;-0,03;1,61;-1,93;0,56;4,47;-4,02;-1,79;-0,96;-1,04;947,01
18.332;-0,03;1,61;-1,93;2,19;7,76;-13,81;-1,79;-0,96;-1,04;947,01
18.391;0,38;0,56;-0,19;2,19;7,76;-13,81;-1,79;-0,96;-1,04;947,01
18.392;0,38;0,56;-0,19;2,19;7,76;-13,81;-1,36;-0,40;-2,00;947,01
18.392;0,38;0,56;-0,19;6,83;-3,17;1,66;-1,36;-0,40;-2,00;947,01
18.41;0,38;0,56;-0,19;6,83;-3,17;1,66;-1,36;-0,40;-2,00;946,93
18.451;-0,05;-0,35;-0,19;6,83;-3,17;1,66;-1,36;-0,40;-2,00;946,93
18.452;-0,05;-0,35;-0,19;6,83;-3,17;1,66;-3,26;1,97;-2,78;946,93
18.452;-0,05;-0,35;-0,19;3,85;-12,02;0,26;-3,26;1,97;-2,78;946,93
18.511;-0,96;-0,99;-0,04;3,85;-12,02;0,26;-3,26;1,97;-2,78;946,93
18.511;-0,96;-0,99;-0,04;3,85;-12,02;0,26;-3,77;3,04;-3,70;946,93
18.512;-0,96;-0,99;-0,04;-3,67;-17,53;1,08;-3,77;3,04;-3,70;946,93
18.512;-0,96;-0,99;-0,04;-3,67;-17,53;1,08;-3,77;3,04;-3,70;946,89
18.572;-0,89;-0,79;0,40;-3,67;-17,53;1,08;-3,77;3,04;-3,70;946,89
18.573;-0,89;-0,79;0,40;-3,67;-17,53;1,08;-3,42;1,39;-2,78;946,89
18.573;-0,89;-0,79;0,40;-1,70;-14,50;4,47;-3,42;1,39;-2,78;946,89
18.61;-0,89;-0,79;0,40;-1,70;-14,50;4,47;-3,42;1,39;-2,78;946,86
18.632;-0,37;-0,43;0,68;-1,70;-14,50;4,47;-3,42;1,39;-2,78;946,86
18.632;-0,37;-0,43;0,68;-1,70;-14,50;4,47;-2,55;-0,56;-1,57;946,86
18.633;-0,37;-0,43;0,68;4,35;-9,99;6,15;-2,55;-0,56;-1,57;946,86
18.691;-0,67;0,38;0,54;4,35;-9,99;6,15;-2,55;-0,56;-1,57;946,86
18.692;-0,67;0,38;0,54;4,35;-9,99;6,15;-2,05;1,38;-1,15;946,86
18.693;-0,67;0,38;0,54;1,90;-1,16;4,47;-2,05;1,38;-1,15;946,86
18.711;-0,67;0,38;0,54;1,90;-1,16;4,47;-2,05;1,38;-1,15;946,89
18.751;-0,76;0,57;1,10;1,90;-1,16;4,47;-2,05;1,38;-1,15;946,89
18.752;-0,76;0,57;1,10;1,90;-1,16;4,47;-2,11;0,47;-1,78;946,89
18.752;-0,76;0,57;1,10;1,38;1,54;9,58;-2,11;0,47;-1,78;946,89
18.813;-0,76;0,57;1,10;-12,66;-5,37;15,33;-2,11;0,47;-1,78;946,89
18.814;-0,76;0,57;1,10;-12,66;-5,37;15,33;-1,12;1,96;-1,51;946,89
18.814;-2,25;-0,26;1,64;-12,66;-5,37;15,33;-1,12;1,96;-1,51;946,89
18.814;-2,25;-0,26;1,64;-12,66;-5,37;15,33;-1,12;1,96;-1,51;946,89
18.872;-1,44;0,11;0,89;-12,66;-5,37;15,33;-1,12;1,96;-1,51;946,89
18.872;-1,44;0,11;0,89;-12,66;-5,37;15,33;0,46;0,33;-0,87;946,89
18.873;-1,44;0,11;0,89;-4,58;-1,12;8,08;0,46;0,33;-0,87;946,89
18.911;-1,44;0,11;0,89;-4,58;-1,12;8,08;0,46;0,33;-0,87;946,88
18.93;-1,92;0,01;0,57;-4,58;-1,12;8,08;0,46;0,33;-0,87;946,88
18.931;-1,92;0,01;0,57;-4,58;-1,12;8,08;0,77;0,05;-0,26;946,88
18.931;-1,92;0,01;0,57;-9,17;-1,68;5,59;0,77;0,05;-0,26;946,88
18.993;-1,59;0,02;0,42;-9,17;-1,68;5,59;0,77;0,05;-0,26;946,88
18.993;-1,59;0,02;0,42;-9,17;-1,68;5,59;1,51;0,41;0,37;946,88
18.994;-1,59;0,02;0,42;-5,98;-1,65;4,04;1,51;0,41;0,37;946,88
19.011;-1,59;0,02;0,42;-5,98;-1,65;4,04;1,51;0,41;0,37;946,86
19.05;-1,99;0,27;0,47;-5,98;-1,65;4,04;1,51;0,41;0,37;946,86
19.051;-1,99;0,27;0,47;-5,98;-1,65;4,04;1,86;-0,08;0,88;946,86
19.052;-1,99;0,27;0,47;-9,93;0,47;4,74;1,86;-0,08;0,88;946,86
19.112;-2,73;0,24;0,24;-9,93;0,47;4,74;1,86;-0,08;0,88;946,86
19.112;-2,73;0,24;0,24;-9,93;0,47;4,74;1,64;-1,10;1,80;946,86
19.113;-2,73;0,24;0,24;-17,38;-0,47;2,60;1,64;-1,10;1,80;946,86
19.113;-2,73;0,24;0,24;-17,38;-0,47;2,60;1,64;-1,10;1,80;946,84
19.172;-2,39;0,27;0,91;-17,38;-0,47;2,60;1,64;-1,10;1,80;946,84
19.173;-2,39;0,27;0,91;-17,38;-0,47;2,60;1,87;-1,48;2,65;946,84
19.173;-2,39;0,27;0,91;-14,53;-1,38;8,53;1,87;-1,48;2,65;946,84
19.211;-2,39;0,27;0,91;-14,53;-1,38;8,53;1,87;-1,48;2,65;946,84
19.23;-1,37;-0,19;0,89;-14,53;-1,38;8,53;1,87;-1,48;2,65;946,84
19.231;-1,37;-0,19;0,89;-14,53;-1,38;8,53;3,53;-2,61;3,80;946,84
19.231;-1,37;-0,19;0,89;-5,49;-7,56;8,24;3,53;-2,61;3,80;946,84
19.292;0,08;-0,63;0,28;-5,49;-7,56;8,24;3,53;-2,61;3,80;946,84
19.292;0,08;-0,63;0,28;-5,49;-7,56;8,24;4,86;-1,82;3,56;946,84
19.293;0,08;-0,63;0,28;7,13;-13,63;2,84;4,86;-1,82;3,56;946,84
19.31;0,08;-0,63;0,28;7,13;-13,63;2,84;4,86;-1,82;3,56;946,87
19.352;-0,03;-0,62;-0,14;7,13;-13,63;2,84;4,86;-1,82;3,56;946,87
19.353;-0,03;-0,62;-0,14;7,13;-13,63;2,84;3,88;0,63;2,96;946,87
19.353;-0,03;-0,62;-0,14;4,53;-14,32;0,67;3,88;0,63;2,96;946,87
19.412;-0,17;-0,43;-0,82;4,53;-14,32;0,67;3,88;0,63;2,96;946,87
19.413;-0,17;-0,43;-0,82;4,53;-14,32;0,67;2,38;-1,06;2,70;946,87
19.413;-0,17;-0,43;-0,82;1,62;-12,59;-4,24;2,38;-1,06;2,70;946,87
19.414;-0,17;-0,43;-0,82;1,62;-12,59;-4,24;2,38;-1,06;2,70;946,83
19.472;-0,03;-0,16;-0,98;1,62;-12,59;-4,24;2,38;-1,06;2,70;946,83
19.473;-0,03;-0,16;-0,98;1,62;-12,59;-4,24;1,44;-2,87;1,36;946,83
19.473;-0,03;-0,16;-0,98;2,63;-9,94;-5,29;1,44;-2,87;1,36;946,83
19.512;-0,03;-0,16;-0,98;2,63;-9,94;-5,29;1,44;-2,87;1,36;946,83
19.533;0,25;0,57;-1,48;2,63;-9,94;-5,29;1,44;-2,87;1,36;946,83
19.534;0,25;0,57;-1,48;2,63;-9,94;-5,29;1,01;0,02;0,90;946,83
19.534;0,25;0,57;-1,48;5,37;-2,69;-10,14;1,01;0,02;0,90;946,83
19.593;0,43;0,99;-1,30;5,37;-2,69;-10,14;1,01;0,02;0,90;946,83
19.593;0,43;0,99;-1,30;5,37;-2,69;-10,14;0,52;-0,56;0,43;946,83
19.593;0,43;0,99;-1,30;7,30;1,63;-8,11;0,52;-0,56;0,43;946,83
19.613;0,43;0,99;-1,30;7,30;1,63;-8,11;0,52;-0,56;0,43;946,76
19.651;0,15;0,91;-1,45;7,30;1,63;-8,11;0,52;-0,56;0,43;946,76
19.652;0,15;0,91;-1,45;7,30;1,63;-8,11;0,80;-1,26;0,65;946,76
19.653;0,15;0,91;-1,45;4,80;0,84;-9,72;0,80;-1,26;0,65;946,76
19.712;0,13;0,91;-0,29;4,80;0,84;-9,72;0,80;-1,26;0,65;946,76
19.713;0,13;0,91;-0,29;4,80;0,84;-9,72;0,21;1,35;0,39;946,76
19.713;0,13;0,91;-0,29;3,66;0,87;2,23;0,21;1,35;0,39;946,76
19.714;0,13;0,91;-0,29;3,66;0,87;2,23;0,21;1,35;0,39;946,82
19.771;0,17;0,84;-0,24;3,66;0,87;2,23;0,21;1,35;0,39;946,82
19.772;0,17;0,84;-0,24;3,66;0,87;2,23;-2,45;0,49;-0,95;946,82
19.773;0,17;0,84;-0,24;4,16;0,16;2,67;-2,45;0,49;-0,95;946,82
19.811;0,17;0,84;-0,24;4,16;0,16;2,67;-2,45;0,49;-0,95;946,82
19.83;-0,29;1,02;-1,72;4,16;0,16;2,67;-2,45;0,49;-0,95;946,82
19.832;-0,29;1,02;-1,72;4,16;0,16;2,67;-2,17;4,21;-1,47;946,82
19.832;-0,29;1,02;-1,72;-0,32;1,99;-11,80;-2,17;4,21;-1,47;946,82
19.892;0,17;1,41;-0,43;-0,32;1,99;-11,80;-2,17;4,21;-1,47;946,82
19.893;0,17;1,41;-0,43;-0,32;1,99;-11,80;-0,83;-1,01;-1,18;946,82
19.893;0,17;1,41;-0,43;4,47;5,40;-0,10;-0,83;-1,01;-1,18;946,82
19.91;0,17;1,41;-0,43;4,47;5,40;-0,10;-0,83;-1,01;-1,18;946,82
19.952;0,20;0,09;-0,18;4,47;5,40;-0,10;-0,83;-1,01;-1,18;946,82
19.953;0,20;0,09;-0,18;4,47;5,40;-0,10;-3,43;1,64;-1,92;946,82
19.953;0,20;0,09;-0,18;5,31;-7,83;1,04;-3,43;1,64;-1,92;946,82
20.012;-0,27;-1,13;0,09;5,31;-7,83;1,04;-3,43;1,64;-1,92;946,82
20.013;-0,27;-1,13;0,09;5,31;-7,83;1,04;-4,49;1,99;-2,88;946,82
20.013;-0,27;-1,13;0,09;1,82;-19,66;2,31;-4,49;1,99;-2,88;946,82
20.013;-0,27;-1,13;0,09;1,82;-19,66;2,31;-4,49;1,99;-2,88;946,84
20.072;-0,68;-1,34;0,47;1,82;-19,66;2,31;-4,49;1,99;-2,88;946,84
20.073;-0,68;-1,34;0,47;1,82;-19,66;2,31;-4,05;2,13;-2,69;946,84
20.073;-0,68;-1,34;0,47;-0,75;-20,95;4,81;-4,05;2,13;-2,69;946,84
20.11;-0,68;-1,34;0,47;-0,75;-20,95;4,81;-4,05;2,13;-2,69;946,84
20.132;-0,38;-0,89;0,59;-0,75;-20,95;4,81;-4,05;2,13;-2,69;946,84
20.132;-0,38;-0,89;0,59;-0,75;-20,95;4,81;-2,51;1,40;-2,53;946,84
20.133;-0,38;-0,89;0,59;3,36;-15,51;5,38;-2,51;1,40;-2,53;946,84
20.191;-0,92;-0,03;0,21;3,36;-15,51;5,38;-2,51;1,40;-2,53;946,84
20.191;-0,92;-0,03;0,21;3,36;-15,51;5,38;-1,99;2,19;-2,49;946,84
20.192;-0,92;-0,03;0,21;-0,90;-5,81;1,80;-1,99;2,19;-2,49;946,84
20.21;-0,92;-0,03;0,21;-0,90;-5,81;1,80;-1,99;2,19;-2,49;946,84
20.252;-1,30;0,80;0,52;-0,90;-5,81;1,80;-1,99;2,19;-2,49;946,84
20.253;-1,30;0,80;0,52;-0,90;-5,81;1,80;-2,38;1,01;-2,76;946,84
20.253;-1,30;0,80;0,52;-3,91;3,65;4,93;-2,38;1,01;-2,76;946,84
20.311;-2,52;-0,55;1,57;-3,91;3,65;4,93;-2,38;1,01;-2,76;946,84
20.312;-2,52;-0,55;1,57;-3,91;3,65;4,93;-2,46;0,72;-2,76;946,84
20.312;-2,52;-0,55;1,57;-15,19;-7,87;15,35;-2,46;0,72;-2,76;946,84
20.312;-2,52;-0,55;1,57;-15,19;-7,87;15,35;-2,46;0,72;-2,76;946,83
20.371;-2,05;-0,09;1,12;-15,19;-7,87;15,35;-2,46;0,72;-2,76;946,83
20.372;-2,05;-0,09;1,12;-15,19;-7,87;15,35;0,04;-0,04;-1,07;946,83
20.372;-2,05;-0,09;1,12;-10,44;-2,32;10,74;0,04;-0,04;-1,07;946,83
20.41;-2,05;-0,09;1,12;-10,44;-2,32;10,74;0,04;-0,04;-1,07;946,83
20.431;-2,11;0,08;0,56;-10,44;-2,32;10,74;0,04;-0,04;-1,07;946,83
20.432;-2,11;0,08;0,56;-10,44;-2,32;10,74;0,79;0,40;-0,42;946,83
20.433;-2,11;0,08;0,56;-10,98;-0,24;5,73;0,79;0,40;-0,42;946,83
20.492;-1,95;-0,03;0,36;-10,98;-0,24;5,73;0,79;0,40;-0,42;946,83
20.493;-1,95;-0,03;0,36;-10,98;-0,24;5,73;1,18;0,55;0,39;946,83
20.493;-1,95;-0,03;0,36;-9,32;-1,22;4,08;1,18;0,55;0,39;946,83
20.51;-1,95;-0,03;0,36;-9,32;-1,22;4,08;1,18;0,55;0,39;946,82
20.551;-1,46;0,06;0,45;-9,32;-1,22;4,08;1,18;0,55;0,39;946,82
20.552;-1,46;0,06;0,45;-9,32;-1,22;4,08;1,44;-0,12;1,01;946,82
20.553;-1,46;0,06;0,45;-4,65;-0,68;5,07;1,44;-0,12;1,01;946,82
20.613;-1,51;0,02;0,59;-4,65;-0,68;5,07;1,44;-0,12;1,01;946,82
20.613;-1,51;0,02;0,59;-4,65;-0,68;5,07;1,70;-0,10;1,76;946,82
20.613;-1,51;0,02;0,59;-5,23;-1,73;6,63;1,70;-0,10;1,76;946,82
20.613;-1,51;0,02;0,59;-5,23;-1,73;6,63;1,70;-0,10;1,76;946,85
20.67;-1,48;-0,20;0,82;-5,23;-1,73;6,63;1,70;-0,10;1,76;946,85
20.671;-1,48;-0,20;0,82;-5,23;-1,73;6,63;2,46;-0,62;2,26;946,85
20.671;-1,48;-0,20;0,82;-5,18;-4,91;8,92;2,46;-0,62;2,26;946,85
20.713;-1,48;-0,20;0,82;-5,18;-4,91;8,92;2,46;-0,62;2,26;946,85
20.731;-1,13;-0,32;0,74;-5,18;-4,91;8,92;2,46;-0,62;2,26;946,85
20.731;-1,13;-0,32;0,74;-5,18;-4,91;8,92;3,48;-1,42;2,79;946,85
20.732;-1,13;-0,32;0,74;-2,25;-7,27;8,32;3,48;-1,42;2,79;946,85
20.792;-1,24;-0,28;0,33;-2,25;-7,27;8,32;3,48;-1,42;2,79;946,85
20.793;-1,24;-0,28;0,33;-2,25;-7,27;8,32;3,84;-0,80;3,27;946,85
20.793;-1,24;-0,28;0,33;-4,09;-8,08;4,66;3,84;-0,80;3,27;946,85
20.81;-1,24;-0,28;0,33;-4,09;-8,08;4,66;3,84;-0,80;3,27;946,86
20.851;-1,07;-0,73;-0,12;-4,09;-8,08;4,66;3,84;-0,80;3,27;946,86
20.851;-1,07;-0,73;-0,12;-4,09;-8,08;4,66;3,70;-1,95;3,96;946,86
20.851;-1,07;-0,73;-0,12;-3,57;-13,70;1,06;3,70;-1,95;3,96;946,86
20.911;-0,79;-0,69;-0,56;-3,57;-13,70;1,06;3,70;-1,95;3,96;946,86
20.912;-0,79;-0,69;-0,56;-3,57;-13,70;1,06;3,08;-1,12;3,84;946,86
20.912;-0,79;-0,69;-0,56;-2,22;-14,22;-2,31;3,08;-1,12;3,84;946,86
20.913;-0,79;-0,69;-0,56;-2,22;-14,22;-2,31;3,08;-1,12;3,84;946,82
20.971;-0,35;0,85;-1,63;-2,22;-14,22;-2,31;3,08;-1,12;3,84;946,82
20.972;-0,35;0,85;-1,63;-2,22;-14,22;-2,31;2,47;-4,14;2,38;946,82
20.972;-0,35;0,85;-1,63;0,94;0,53;-11,95;2,47;-4,14;2,38;946,82
21.011;-0,35;0,85;-1,63;0,94;0,53;-11,95;2,47;-4,14;2,38;946,77
21.031;-0,43;0,76;-1,79;0,94;0,53;-11,95;2,47;-4,14;2,38;946,77
21.031;-0,43;0,76;-1,79;0,94;0,53;-11,95;1,62;1,06;2,55;946,77
21.032;-0,43;0,76;-1,79;-0,55;-0,36;-12,78;1,62;1,06;2,55;946,77
21.093;-2,27;4,16;-1,09;-0,55;-0,36;-12,78;1,62;1,06;2,55;946,77
21.093;-2,27;4,16;-1,09;-0,55;-0,36;-12,78;-9,69;-14,34;0,77;946,77
21.094;-2,27;4,16;-1,09;-19,20;33,23;-5,27;-9,69;-14,34;0,77;946,77
21.11;-2,27;4,16;-1,09;-19,20;33,23;-5,27;-9,69;-14,34;0,77;946,73
21.151;0,43;0,74;-3,53;-19,20;33,23;-5,27;-9,69;-14,34;0,77;946,73
21.151;0,43;0,74;-3,53;-19,20;33,23;-5,27;-0,27;-4,93;1,40;946,73
21.152;0,43;0,74;-3,53;7,22;-0,19;-28,97;-0,27;-4,93;1,40;946,73
21.211;0,40;0,32;1,06;7,22;-0,19;-28,97;-0,27;-4,93;1,40;946,73
21.211;0,40;0,32;1,06;7,22;-0,19;-28,97;4,84;-0,57;0,29;946,73
21.212;0,40;0,32;1,06;6,06;-4,83;15,73;4,84;-0,57;0,29;946,73
21.212;0,40;0,32;1,06;6,06;-4,83;15,73;4,84;-0,57;0,29;946,81
21.271;0,19;-0,28;-0,49;6,06;-4,83;15,73;4,84;-0,57;0,29;946,81
21.272;0,19;-0,28;-0,49;6,06;-4,83;15,73;-0,76;4,67;-1,01;946,81
21.272;0,19;-0,28;-0,49;3,31;-10,67;0,78;-0,76;4,67;-1,01;946,81
21.309;0,19;-0,28;-0,49;3,31;-10,67;0,78;-0,76;4,67;-1,01;946,78
21.331;0,04;-0,31;0,09;3,31;-10,67;0,78;-0,76;4,67;-1,01;946,78
21.332;0,04;-0,31;0,09;3,31;-10,67;0,78;-2,26;2,80;-1,77;946,78
21.332;0,04;-0,31;0,09;1,67;-11,09;6,40;-2,26;2,80;-1,77;946,78
21.393;0,09;-0,19;-0,08;1,67;-11,09;6,40;-2,26;2,80;-1,77;946,78
21.393;0,09;-0,19;-0,08;1,67;-11,09;6,40;-2,57;-0,48;-2,00;946,78
21.393;0,09;-0,19;-0,08;2,74;-10,23;4,05;-2,57;-0,48;-2,00;946,78
21.411;0,09;-0,19;-0,08;2,74;-10,23;4,05;-2,57;-0,48;-2,00;946,78
21.45;0,11;0,62;-0,59;2,74;-10,23;4,05;-2,57;-0,48;-2,00;946,78
21.45;0,11;0,62;-0,59;2,74;-10,23;4,05;-2,24;2,15;-2,03;946,78
21.45;0,11;0,62;-0,59;3,82;-2,44;-1,83;-2,24;2,15;-2,03;946,78
21.511;-0,40;1,11;-0,11;3,82;-2,44;-1,83;-2,24;2,15;-2,03;946,78
21.512;-0,40;1,11;-0,11;3,82;-2,44;-1,83;-3,48;3,73;-2,00;946,78
21.512;-0,40;1,11;-0,11;-0,37;2,22;1,87;-3,48;3,73;-2,00;946,78
21.512;-0,40;1,11;-0,11;-0,37;2,22;1,87;-3,48;3,73;-2,00;946,76
21.572;0,06;1,42;-0,60;-0,37;2,22;1,87;-3,48;3,73;-2,00;946,76
21.573;0,06;1,42;-0,60;-0,37;2,22;1,87;-4,07;-3,84;-2,87;946,76
21.573;0,06;1,42;-0,60;0,81;2,43;0,45;-4,07;-3,84;-2,87;946,76
21.609;0,06;1,42;-0,60;0,81;2,43;0,45;-4,07;-3,84;-2,87;946,76
21.63;-1,01;-1,34;0,29;0,81;2,43;0,45;-4,07;-3,84;-2,87;946,76
21.631;-1,01;-1,34;0,29;0,81;2,43;0,45;-5,49;2,39;-5,38;946,76
21.631;-1,01;-1,34;0,29;-3,18;-20,27;2,29;-5,49;2,39;-5,38;946,76
21.691;-1,98;-1,81;0,73;-3,18;-20,27;2,29;-5,49;2,39;-5,38;946,76
21.692;-1,98;-1,81;0,73;-3,18;-20,27;2,29;-4,65;2,87;-4,89;946,76
21.692;-1,98;-1,81;0,73;-10,68;-22,08;6,43;-4,65;2,87;-4,89;946,76
21.71;-1,98;-1,81;0,73;-10,68;-22,08;6,43;-4,65;2,87;-4,89;946,78
21.75;-1,59;-0,39;1,10;-10,68;-22,08;6,43;-4,65;2,87;-4,89;946,78
21.751;-1,59;-0,39;1,10;-10,68;-22,08;6,43;-1,95;2,23;-2,06;946,78
21.751;-1,59;-0,39;1,10;-6,03;-5,99;10,38;-1,95;2,23;-2,06;946,78
21.811;-1,04;0,23;0,42;-6,03;-5,99;10,38;-1,95;2,23;-2,06;946,78
21.812;-1,04;0,23;0,42;-6,03;-5,99;10,38;-0,92;0,55;-0,65;946,78
21.812;-1,04;0,23;0,42;-0,57;0,74;4,80;-0,92;0,55;-0,65;946,78
21.813;-1,04;0,23;0,42;-0,57;0,74;4,80;-0,92;0,55;-0,65;946,79
21.87;-1,11;0,27;0,68;-0,57;0,74;4,80;-0,92;0,55;-0,65;946,79
21.871;-1,11;0,27;0,68;-0,57;0,74;4,80;-1,00;-0,29;0,13;946,79
21.871;-1,11;0,27;0,68;-1,21;1,34;7,24;-1,00;-0,29;0,13;946,79
21.911;-1,11;0,27;0,68;-1,21;1,34;7,24;-1,00;-0,29;0,13;946,81
21.93;-0,93;-0,04;1,00;-1,21;1,34;7,24;-1,00;-0,29;0,13;946,81
21.931;-0,93;-0,04;1,00;-1,21;1,34;7,24;0,34;-1,40;1,00;946,81
21.931;-0,93;-0,04;1,00;0,59;-2,08;9,98;0,34;-1,40;1,00;946,81
21.99;-1,12;0,04;0,90;0,59;-2,08;9,98;0,34;-1,40;1,00;946,81
21.991;-1,12;0,04;0,90;0,59;-2,08;9,98;1,07;0,02;0,15;946,81
21.991;-1,12;0,04;0,90;-1,34;-1,60;8,48;1,07;0,02;0,15;946,81
22.01;-1,12;0,04;0,90;-1,34;-1,60;8,48;1,07;0,02;0,15;946,82
22.051;-1,94;0,08;0,42;-1,34;-1,60;8,48;1,07;0,02;0,15;946,82
22.052;-1,94;0,08;0,42;-1,34;-1,60;8,48;1,48;0,57;-0,50;946,82
22.053;-1,94;0,08;0,42;-9,42;-1,21;4,38;1,48;0,57;-0,50;946,82
22.112;-2,04;-0,02;0,41;-9,42;-1,21;4,38;1,48;0,57;-0,50;946,82
22.113;-2,04;-0,02;0,41;-9,42;-1,21;4,38;1,37;-0,77;0,57;946,82
22.113;-2,04;-0,02;0,41;-10,34;-1,98;4,71;1,37;-0,77;0,57;946,82
22.113;-2,04;-0,02;0,41;-10,34;-1,98;4,71;1,37;-0,77;0,57;946,81
22.17;-1,81;-0,10;0,49;-10,34;-1,98;4,71;1,37;-0,77;0,57;946,81
22.171;-1,81;-0,10;0,49;-10,34;-1,98;4,71;1,96;-0,02;2,12;946,81
22.171;-1,81;-0,10;0,49;-8,20;-3,40;5,19;1,96;-0,02;2,12;946,81
22.21;-1,81;-0,10;0,49;-8,20;-3,40;5,19;1,96;-0,02;2,12;946,80
22.232;-1,77;-0,23;0,70;-8,20;-3,40;5,19;1,96;-0,02;2,12;946,80
22.233;-1,77;-0,23;0,70;-8,20;-3,40;5,19;2,73;0,04;3,51;946,80
22.233;-1,77;-0,23;0,70;-8,37;-6,09;7,69;2,73;0,04;3,51;946,80
22.292;-1,96;0,10;0,00;-8,37;-6,09;7,69;2,73;0,04;3,51;946,80
22.292;-1,96;0,10;0,00;-8,37;-6,09;7,69;3,39;-1,38;4,37;946,80
22.293;-1,96;0,10;0,00;-11,41;-4,74;1,49;3,39;-1,38;4,37;946,80
22.313;-1,96;0,10;0,00;-11,41;-4,74;1,49;3,39;-1,38;4,37;946,85
22.351;-1,23;0,76;0,34;-11,41;-4,74;1,49;3,39;-1,38;4,37;946,85
22.352;-1,23;0,76;0,34;-11,41;-4,74;1,49;3,07;-2,66;4,40;946,85
22.352;-1,23;0,76;0,34;-5,82;0,15;5,47;3,07;-2,66;4,40;946,85
22.413;-0,32;0,73;-0,89;-5,82;0,15;5,47;3,07;-2,66;4,40;946,85
22.413;-0,32;0,73;-0,89;-5,82;0,15;5,47;3,54;-3,41;3,88;946,85
22.414;-0,32;0,73;-0,89;1,50;-1,05;-5,93;3,54;-3,41;3,88;946,85
22.414;-0,32;0,73;-0,89;1,50;-1,05;-5,93;3,54;-3,41;3,88;946,86
22.47;0,30;0,28;-0,40;1,50;-1,05;-5,93;3,54;-3,41;3,88;946,86
22.471;0,30;0,28;-0,40;1,50;-1,05;-5,93;3,31;-0,98;1,90;946,86
22.471;0,30;0,28;-0,40;6,88;-5,59;-0,47;3,31;-0,98;1,90;946,86
22.511;0,30;0,28;-0,40;6,88;-5,59;-0,47;3,31;-0,98;1,90;946,86
22.531;-0,26;-0,34;-0,46;6,88;-5,59;-0,47;3,31;-0,98;1,90;946,86
22.532;-0,26;-0,34;-0,46;6,88;-5,59;-0,47;1,39;-0,18;1,57;946,86
22.532;-0,26;-0,34;-0,46;0,64;-11,44;0,09;1,39;-0,18;1,57;946,86
22.592;0,03;-0,31;-0,59;0,64;-11,44;0,09;1,39;-0,18;1,57;946,86
22.593;0,03;-0,31;-0,59;0,64;-11,44;0,09;0,48;-2,02;1,27;946,86
22.593;0,03;-0,31;-0,59;2,93;-10,97;-0,61;0,48;-2,02;1,27;946,86
22.612;0,03;-0,31;-0,59;2,93;-10,97;-0,61;0,48;-2,02;1,27;946,84
22.65;0,24;-0,41;-0,56;2,93;-10,97;-0,61;0,48;-2,02;1,27;946,84
22.651;0,24;-0,41;-0,56;2,93;-10,97;-0,61;0,37;-0,82;1,16;946,84
22.651;0,24;-0,41;-0,56;4,86;-11,92;-0,24;0,37;-0,82;1,16;946,84
22.712;0,03;0,04;-1,09;4,86;-11,92;-0,24;0,37;-0,82;1,16;946,84
22.712;0,03;0,04;-1,09;4,86;-11,92;-0,24;0,14;0,36;-0,17;946,84
22.713;0,03;0,04;-1,09;2,50;-7,56;-5,37;0,14;0,36;-0,17;946,84
22.713;0,03;0,04;-1,09;2,50;-7,56;-5,37;0,14;0,36;-0,17;946,83
22.771;0,91;0,98;-1,25;2,50;-7,56;-5,37;0,14;0,36;-0,17;946,83
22.772;0,91;0,98;-1,25;2,50;-7,56;-5,37;1,62;1,84;-0,24;946,83
22.772;0,91;0,98;-1,25;11,05;1,63;-6,87;1,62;1,84;-0,24;946,83
22.81;0,91;0,98;-1,25;11,05;1,63;-6,87;1,62;1,84;-0,24;946,78
22.832;0,58;1,12;-0,54;11,05;1,63;-6,87;1,62;1,84;-0,24;946,78
22.833;0,58;1,12;-0,54;11,05;1,63;-6,87;-0,42;3,70;-1,45;946,78
22.833;0,58;1,12;-0,54;7,59;3,25;0,40;-0,42;3,70;-1,45;946,78
22.891;0,09;1,66;-1,88;7,59;3,25;0,40;-0,42;3,70;-1,45;946,78
22.891;0,09;1,66;-1,88;7,59;3,25;0,40;-1,37;3,60;-2,02;946,78
22.892;0,09;1,66;-1,88;2,03;8,83;-12,19;-1,37;3,60;-2,02;946,78
22.913;0,09;1,66;-1,88;2,03;8,83;-12,19;-1,37;3,60;-2,02;946,79
22.95;0,37;1,44;-1,66;2,03;8,83;-12,19;-1,37;3,60;-2,02;946,79
22.95;0,37;1,44;-1,66;2,03;8,83;-12,19;-0,49;-0,41;-2,02;946,79
22.951;0,37;1,44;-1,66;5,53;6,32;-10,68;-0,49;-0,41;-2,02;946,79
23.011;0,20;0,00;-0,40;5,53;6,32;-10,68;-0,49;-0,41;-2,02;946,79
23.012;0,20;0,00;-0,40;5,53;6,32;-10,68;-2,46;1,72;-2,48;946,79
23.012;0,20;0,00;-0,40;4,37;-8,20;0,84;-2,46;1,72;-2,48;946,79
23.012;0,20;0,00;-0,40;4,37;-8,20;0,84;-2,46;1,72;-2,48;946,78
23.071;-0,34;-1,21;0,01;4,37;-8,20;0,84;-2,46;1,72;-2,48;946,78
23.072;-0,34;-1,21;0,01;4,37;-8,20;0,84;-4,34;0,68;-3,30;946,78
23.072;-0,34;-1,21;0,01;0,32;-20,27;3,49;-4,34;0,68;-3,30;946,78
23.111;-0,34;-1,21;0,01;0,32;-20,27;3,49;-4,34;0,68;-3,30;946,78
23.131;-0,45;-1,16;0,32;0,32;-20,27;3,49;-4,34;0,68;-3,30;946,78
23.132;-0,45;-1,16;0,32;0,32;-20,27;3,49;-3,75;-0,30;-2,46;946,78
23.132;-0,45;-1,16;0,32;0,78;-19,62;4,66;-3,75;-0,30;-2,46;946,78
23.191;-0,19;-0,92;0,24;0,78;-19,62;4,66;-3,75;-0,30;-2,46;946,78
23.191;-0,19;-0,92;0,24;0,78;-19,62;4,66;-2,96;1,86;-2,32;946,78
23.192;-0,19;-0,92;0,24;4,39;-16,52;2,58;-2,96;1,86;-2,32;946,78
23.211;-0,19;-0,92;0,24;4,39;-16,52;2,58;-2,96;1,86;-2,32;946,83
23.25;-1,09;-0,40;0,17;4,39;-16,52;2,58;-2,96;1,86;-2,32;946,83
23.251;-1,09;-0,40;0,17;4,39;-16,52;2,58;-2,87;1,84;-2,12;946,83
23.251;-1,09;-0,40;0,17;-3,43;-10,49;1,88;-2,87;1,84;-2,12;946,83
23.31;-1,42;0,70;1,13;-3,43;-10,49;1,88;-2,87;1,84;-2,12;946,83
23.311;-1,42;0,70;1,13;-3,43;-10,49;1,88;-2,76;0,46;-2,78;946,83
23.311;-1,42;0,70;1,13;-5,80;1,48;10,50;-2,76;0,46;-2,78;946,83
23.312;-1,42;0,70;1,13;-5,80;1,48;10,50;-2,76;0,46;-2,78;946,83
23.372;-2,50;0,24;1,55;-5,80;1,48;10,50;-2,76;0,46;-2,78;946,83
23.373;-2,50;0,24;1,55;-5,80;1,48;10,50;-2,02;2,12;-2,57;946,83
23.373;-2,50;0,24;1,55;-15,48;-1,55;14,91;-2,02;2,12;-2,57;946,83
23.411;-2,50;0,24;1,55;-15,48;-1,55;14,91;-2,02;2,12;-2,57;946,83
23.43;-1,89;0,12;1,21;-15,48;-1,55;14,91;-2,02;2,12;-2,57;946,83
23.43;-1,89;0,12;1,21;-15,48;-1,55;14,91;-0,50;-0,85;-1,77;946,83
23.431;-1,89;0,12;1,21;-9,10;-1,51;11,57;-0,50;-0,85;-1,77;946,83
23.492;-2,18;-0,07;1,00;-9,10;-1,51;11,57;-0,50;-0,85;-1,77;946,83
23.493;-2,18;-0,07;1,00;-9,10;-1,51;11,57;0,54;1,29;-0,83;946,83
23.493;-2,18;-0,07;1,00;-11,78;-2,58;9,63;0,54;1,29;-0,83;946,83
23.51;-2,18;-0,07;1,00;-11,78;-2,58;9,63;0,54;1,29;-0,83;946,88
23.551;-1,87;0,22;1,01;-11,78;-2,58;9,63;0,54;1,29;-0,83;946,88
23.552;-1,87;0,22;1,01;-11,78;-2,58;9,63;0,93;-0,35;0,11;946,88
23.552;-1,87;0,22;1,01;-8,68;0,50;9,87;0,93;-0,35;0,11;946,88
23.613;-1,87;0,22;1,01;-8,68;0,50;9,87;0,93;-0,35;0,11;946,89
23.614;-1,51;-0,23;0,65;-8,68;0,50;9,87;0,93;-0,35;0,11;946,89
23.614;-1,51;-0,23;0,65;-8,68;0,50;9,87;2,27;-1,14;1,47;946,89
23.614;-1,51;-0,23;0,65;-5,25;-4,32;6,37;2,27;-1,14;1,47;946,89
23.671;-1,00;-0,48;0,56;-5,25;-4,32;6,37;2,27;-1,14;1,47;946,89
23.672;-1,00;-0,48;0,56;-5,25;-4,32;6,37;3,54;-1,00;2,38;946,89
23.672;-1,00;-0,48;0,56;-0,53;-7,87;5,17;3,54;-1,00;2,38;946,89
23.712;-1,00;-0,48;0,56;-0,53;-7,87;5,17;3,54;-1,00;2,38;946,89
23.732;-0,90;-0,32;0,22;-0,53;-7,87;5,17;3,54;-1,00;2,38;946,89
23.732;-0,90;-0,32;0,22;-0,53;-7,87;5,17;4,11;-1,09;2,89;946,89
23.732;-0,90;-0,32;0,22;-0,22;-7,77;2,18;4,11;-1,09;2,89;946,89
23.792;-1,83;0,97;0,13;-0,22;-7,77;2,18;4,11;-1,09;2,89;946,89
23.792;-1,83;0,97;0,13;-0,22;-7,77;2,18;2,94;-0,76;3,02;946,89
23.792;-1,83;0,97;0,13;-10,26;3,46;2,27;2,94;-0,76;3,02;946,89
23.81;-1,83;0,97;0,13;-10,26;3,46;2,27;2,94;-0,76;3,02;946,83
23.85;-1,62;0,61;0,04;-10,26;3,46;2,27;2,94;-0,76;3,02;946,83
23.85;-1,62;0,61;0,04;-10,26;3,46;2,27;3,23;-1,93;2,71;946,83
23.851;-1,62;0,61;0,04;-9,15;-1,03;1,85;3,23;-1,93;2,71;946,83
23.911;-1,62;0,61;0,04;-9,15;-1,03;1,85;3,23;-1,93;2,71;946,80
23.911;-0,72;0,94;-0,30;-9,15;-1,03;1,85;3,23;-1,93;2,71;946,80
23.912;-0,72;0,94;-0,30;-9,15;-1,03;1,85;3,49;-0,83;3,22;946,80
23.912;-0,72;0,94;-0,30;-1,50;1,50;-0,50;3,49;-0,83;3,22;946,80
23.971;-0,47;0,14;-0,84;-1,50;1,50;-0,50;3,49;-0,83;3,22;946,80
23.972;-0,47;0,14;-0,84;-1,50;1,50;-0,50;2,86;-2,55;2,85;946,80
23.973;-0,47;0,14;-0,84;-0,32;-6,63;-4,60;2,86;-2,55;2,85;946,80
24.011;-0,47;0,14;-0,84;-0,32;-6,63;-4,60;2,86;-2,55;2,85;946,80
24.03;0,10;0,10;-0,87;-0,32;-6,63;-4,60;2,86;-2,55;2,85;946,80
24.031;0,10;0,10;-0,87;-0,32;-6,63;-4,60;2,50;-2,97;2,08;946,80
24.031;0,10;0,10;-0,87;4,87;-7,01;-4,50;2,50;-2,97;2,08;946,80
24.092;0,25;-0,26;-0,48;4,87;-7,01;-4,50;2,50;-2,97;2,08;946,80
24.093;0,25;-0,26;-0,48;4,87;-7,01;-4,50;1,37;-0,93;1,55;946,80
24.093;0,25;-0,26;-0,48;5,86;-10,38;-0,02;1,37;-0,93;1,55;946,80
24.109;0,25;-0,26;-0,48;5,86;-10,38;-0,02;1,37;-0,93;1,55;946,78
24.15;0,15;-0,37;-0,85;5,86;-10,38;-0,02;1,37;-0,93;1,55;946,78
24.151;0,15;-0,37;-0,85;5,86;-10,38;-0,02;1,16;0,51;1,05;946,78
24.151;0,15;-0,37;-0,85;4,31;-11,39;-2,98;1,16;0,51;1,05;946,78
24.212;0,15;-0,37;-0,85;4,31;-11,39;-2,98;1,16;0,51;1,05;946,75
24.213;0,03;0,10;-1,70;4,31;-11,39;-2,98;1,16;0,51;1,05;946,75
24.213;0,03;0,10;-1,70;4,31;-11,39;-2,98;0,50;1,19;-0,08;946,75
24.213;0,03;0,10;-1,70;3,02;-6,52;-11,01;0,50;1,19;-0,08;946,75
24.27;0,03;0,10;-1,70;2,92;-6,79;-11,34;0,50;1,19;-0,08;946,75
24.271;0,35;0,46;-0,71;2,92;-6,79;-11,34;0,50;1,19;-0,08;946,75
24.271;0,35;0,46;-0,71;2,92;-6,79;-11,34;0,43;0,52;-0,51;946,75
24.311;0,35;0,46;-0,71;2,92;-6,79;-11,34;0,43;0,52;-0,51;946,75
24.33;0,18;0,92;-0,52;2,92;-6,79;-11,34;0,43;0,52;-0,51;946,75
24.33;0,18;0,92;-0,52;2,92;-6,79;-11,34;-0,58;3,97;-0,93;946,75
24.331;0,18;0,92;-0,52;4,52;1,33;0,36;-0,58;3,97;-0,93;946,75
24.39;-0,17;1,68;-1,83;4,52;1,33;0,36;-0,58;3,97;-0,93;946,75
24.391;-0,17;1,68;-1,83;4,52;1,33;0,36;-1,81;1,00;-1,93;946,75
24.391;-0,17;1,68;-1,83;-0,02;8,76;-12,07;-1,81;1,00;-1,93;946,75
24.409;-0,17;1,68;-1,83;-0,02;8,76;-12,07;-1,81;1,00;-1,93;946,81
24.45;0,52;1,90;-2,52;-0,02;8,76;-12,07;-1,81;1,00;-1,93;946,81
24.451;0,52;1,90;-2,52;-0,02;8,76;-12,07;-0,95;0,12;-1,85;946,81
24.451;0,52;1,90;-2,52;7,44;10,55;-19,62;-0,95;0,12;-1,85;946,81
24.511;0,52;1,90;-2,52;7,44;10,55;-19,62;-0,95;0,12;-1,85;946,82
24.512;0,01;0,35;-1,13;7,44;10,55;-19,62;-0,95;0,12;-1,85;946,82
24.513;0,01;0,35;-1,13;7,44;10,55;-19,62;-3,34;7,31;-2,54;946,82
24.513;0,01;0,35;-1,13;2,87;-5,05;-6,98;-3,34;7,31;-2,54;946,82
24.571;-0,39;-1,25;-0,15;2,87;-5,05;-6,98;-3,34;7,31;-2,54;946,82
24.572;-0,39;-1,25;-0,15;2,87;-5,05;-6,98;-4,66;1,13;-2,85;946,82
24.572;-0,39;-1,25;-0,15;-0,24;-20,99;1,32;-4,66;1,13;-2,85;946,82
24.612;-0,39;-1,25;-0,15;-0,24;-20,99;1,32;-4,66;1,13;-2,85;946,82
24.631;-0,17;-1,26;0,70;-0,24;-20,99;1,32;-4,66;1,13;-2,85;946,82
24.631;-0,17;-1,26;0,70;-0,24;-20,99;1,32;-3,67;0,64;-1,99;946,82
24.631;-0,17;-1,26;0,70;3,25;-20,84;7,25;-3,67;0,64;-1,99;946,82
24.691;-0,01;-0,81;0,50;3,25;-20,84;7,25;-3,67;0,64;-1,99;946,82
24.691;-0,01;-0,81;0,50;3,25;-20,84;7,25;-1,97;2,03;-1,55;946,82
24.691;-0,01;-0,81;0,50;5,72;-15,80;4,17;-1,97;2,03;-1,55;946,82
24.71;-0,01;-0,81;0,50;5,72;-15,80;4,17;-1,97;2,03;-1,55;946,86
24.75;-0,45;-0,31;0,24;5,72;-15,80;4,17;-1,97;2,03;-1,55;946,86
24.751;-0,45;-0,31;0,24;5,72;-15,80;4,17;-1,42;2,44;-2,06;946,86
24.751;-0,45;-0,31;0,24;2,39;-10,00;1,68;-1,42;2,44;-2,06;946,86
24.812;-1,03;0,44;0,63;2,39;-10,00;1,68;-1,42;2,44;-2,06;946,86
24.813;-1,03;0,44;0,63;2,39;-10,00;1,68;-2,26;2,04;-2,57;946,86
24.813;-1,03;0,44;0,63;-2,27;-1,62;5,68;-2,26;2,04;-2,57;946,86
24.813;-1,03;0,44;0,63;-2,27;-1,62;5,68;-2,26;2,04;-2,57;946,89
24.871;-2,19;0,15;1,17;-2,27;-1,62;5,68;-2,26;2,04;-2,57;946,89
24.872;-2,19;0,15;1,17;-2,27;-1,62;5,68;-2,59;1,56;-3,16;946,89
24.872;-2,19;0,15;1,17;-12,70;-2,79;11,08;-2,59;1,56;-3,16;946,89
24.91;-2,19;0,15;1,17;-12,70;-2,79;11,08;-2,59;1,56;-3,16;946,88
24.932;-1,86;-0,12;1,00;-12,70;-2,79;11,08;-2,59;1,56;-3,16;946,88
24.933;-1,86;-0,12;1,00;-12,70;-2,79;11,08;-0,53;-0,85;-1,77;946,88
24.933;-1,86;-0,12;1,00;-8,90;-4,07;9,25;-0,53;-0,85;-1,77;946,88
24.991;-2,02;0,01;0,87;-8,90;-4,07;9,25;-0,53;-0,85;-1,77;946,88
24.992;-2,02;0,01;0,87;-8,90;-4,07;9,25;0,56;1,62;-0,49;946,88
24.993;-2,02;0,01;0,87;-10,23;-2,05;8,19;0,56;1,62;-0,49;946,88
25.01;-2,02;0,01;0,87;-10,23;-2,05;8,19;0,56;1,62;-0,49;946,92
25.05;-1,69;0,15;0,70;-10,23;-2,05;8,19;0,56;1,62;-0,49;946,92
25.051;-1,69;0,15;0,70;-10,23;-2,05;8,19;0,85;-0,90;-0,00;946,92
25.051;-1,69;0,15;0,70;-6,97;-0,46;6,77;0,85;-0,90;-0,00;946,92
25.112;-1,74;0,11;0,75;-6,97;-0,46;6,77;0,85;-0,90;-0,00;946,92
25.113;-1,74;0,11;0,75;-6,97;-0,46;6,77;1,40;-1,15;0,98;946,92
25.114;-1,74;0,11;0,75;-7,53;-1,11;7,03;1,40;-1,15;0,98;946,92
25.114;-1,74;0,11;0,75;-7,53;-1,11;7,03;1,40;-1,15;0,98;946,90
25.17;-1,85;0,34;0,79;-7,53;-1,11;7,03;1,40;-1,15;0,98;946,90
25.171;-1,85;0,34;0,79;-7,53;-1,11;7,03;1,99;-1,36;1,61;946,90
25.171;-1,85;0,34;0,79;-8,81;0,38;6,79;1,99;-1,36;1,61;946,90
25.21;-1,85;0,34;0,79;-8,81;0,38;6,79;1,99;-1,36;1,61;946,89
25.23;-2,16;0,03;1,38;-8,81;0,38;6,79;1,99;-1,36;1,61;946,89
25.231;-2,16;0,03;1,38;-8,81;0,38;6,79;2,20;-2,17;2,09;946,89
25.231;-2,16;0,03;1,38;-12,32;-3,75;12,04;2,20;-2,17;2,09;946,89
25.291;-1,81;-0,04;1,19;-12,32;-3,75;12,04;2,20;-2,17;2,09;946,89
25.292;-1,81;-0,04;1,19;-12,32;-3,75;12,04;3,62;-1,40;2,86;946,89
25.293;-1,81;-0,04;1,19;-9,82;-5,97;9,88;3,62;-1,40;2,86;946,89
25.311;-1,81;-0,04;1,19;-9,82;-5,97;9,88;3,62;-1,40;2,86;946,92
25.35;-0,88;0,64;0,24;-9,82;-5,97;9,88;3,62;-1,40;2,86;946,92
25.351;-0,88;0,64;0,24;-9,82;-5,97;9,88;4,37;-0,68;2,97;946,92
25.351;-0,88;0,64;0,24;-2,00;-0,96;1,83;4,37;-0,68;2,97;946,92
25.412;-0,28;0,17;-0,03;-2,00;-0,96;1,83;4,37;-0,68;2,97;946,92
25.413;-0,28;0,17;-0,03;-2,00;-0,96;1,83;3,50;-0,34;2,22;946,92
25.413;-0,28;0,17;-0,03;2,69;-6,44;0,74;3,50;-0,34;2,22;946,92
25.413;-0,28;0,17;-0,03;2,69;-6,44;0,74;3,50;-0,34;2,22;946,90
25.474;-0,28;-0,47;-0,59;2,69;-6,44;0,74;3,50;-0,34;2,22;946,90
25.474;-0,28;-0,47;-0,59;2,69;-6,44;0,74;3,05;-3,25;2,07;946,90
25.475;-0,28;-0,47;-0,59;1,84;-12,99;-3,54;3,05;-3,25;2,07;946,90
25.511;-0,28;-0,47;-0,59;1,84;-12,99;-3,54;3,05;-3,25;2,07;946,84
25.531;-0,16;-0,48;-0,48;1,84;-12,99;-3,54;3,05;-3,25;2,07;946,84
25.531;-0,16;-0,48;-0,48;1,84;-12,99;-3,54;2,75;0,86;1,83;946,84
25.531;-0,16;-0,48;-0,48;2,42;-13,11;-1,54;2,75;0,86;1,83;946,84
25.591;0,28;-0,23;0,82;2,42;-13,11;-1,54;2,75;0,86;1,83;946,84
25.592;0,28;-0,23;0,82;2,42;-13,11;-1,54;1,73;-0,45;1,19;946,84
25.592;0,28;-0,23;0,82;5,69;-10,43;12,53;1,73;-0,45;1,19;946,84
25.61;0,28;-0,23;0,82;5,69;-10,43;12,53;1,73;-0,45;1,19;946,81
25.651;0,11;-0,16;-0,18;5,69;-10,43;12,53;1,73;-0,45;1,19;946,81
25.652;0,11;-0,16;-0,18;5,69;-10,43;12,53;0,84;-2,45;0,34;946,81
25.652;0,11;-0,16;-0,18;3,20;-9,49;3,58;0,84;-2,45;0,34;946,81
25.71;1,59;-0,40;0,16;3,20;-9,49;3,58;0,84;-2,45;0,34;946,81
25.711;1,59;-0,40;0,16;3,20;-9,49;3,58;-0,80;4,05;0,96;946,81
25.711;1,59;-0,40;0,16;3,20;-9,49;3,58;-0,80;4,05;0,96;946,79
25.711;1,59;-0,40;0,16;18,71;-12,08;5,99;-0,80;4,05;0,96;946,79
25.771;0,41;1,14;-0,84;18,71;-12,08;5,99;-0,80;4,05;0,96;946,79
25.771;0,41;1,14;-0,84;18,71;-12,08;5,99;-2,16;1,85;-0,37;946,79
25.771;0,41;1,14;-0,84;6,36;3,17;-3,11;-2,16;1,85;-0,37;946,79
25.809;0,41;1,14;-0,84;6,36;3,17;-3,11;-2,16;1,85;-0,37;946,76
25.832;0,42;2,55;-1,87;6,36;3,17;-3,11;-2,16;1,85;-0,37;946,76
25.833;0,42;2,55;-1,87;6,36;3,17;-3,11;0,30;-0,38;-0,73;946,76
25.833;0,42;2,55;-1,87;5,24;16,81;-13,07;0,30;-0,38;-0,73;946,76
25.89;0,87;1,37;-1,04;5,24;16,81;-13,07;0,30;-0,38;-0,73;946,76
25.89;0,87;1,37;-1,04;5,24;16,81;-13,07;-0,42;2,04;-1,68;946,76
25.891;0,87;1,37;-1,04;10,93;5,18;-5,44;-0,42;2,04;-1,68;946,76
25.911;0,87;1,37;-1,04;10,93;5,18;-5,44;-0,42;2,04;-1,68;946,73
25.951;0,05;-0,16;-0,77;10,93;5,18;-5,44;-0,42;2,04;-1,68;946,73
25.952;0,05;-0,16;-0,77;10,93;5,18;-5,44;-2,18;0,52;-2,28;946,73
25.952;0,05;-0,16;-0,77;2,76;-9,83;-2,85;-2,18;0,52;-2,28;946,73
26.011;-0,48;-1,12;-0,09;2,76;-9,83;-2,85;-2,18;0,52;-2,28;946,73
26.012;-0,48;-1,12;-0,09;2,76;-9,83;-2,85;-3,76;1,42;-3,31;946,73
26.012;-0,48;-1,12;-0,09;2,76;-9,83;-2,85;-3,76;1,42;-3,31;946,74
26.012;-0,48;-1,12;-0,09;-1,13;-19,41;2,59;-3,76;1,42;-3,31;946,74
26.071;-0,35;-1,08;0,28;-1,13;-19,41;2,59;-3,76;1,42;-3,31;946,74
26.071;-0,35;-1,08;0,28;-1,13;-19,41;2,59;-3,32;-0,36;-2,64;946,74
26.072;-0,35;-1,08;0,28;1,58;-18,78;4,56;-3,32;-0,36;-2,64;946,74
26.111;-0,35;-1,08;0,28;1,58;-18,78;4,56;-3,32;-0,36;-2,64;946,78
26.131;-0,26;-0,76;0,29;1,58;-18,78;4,56;-3,32;-0,36;-2,64;946,78
26.131;-0,26;-0,76;0,29;1,58;-18,78;4,56;-2,56;0,43;-2,35;946,78
26.131;-0,26;-0,76;0,29;3,65;-15,01;3,29;-2,56;0,43;-2,35;946,78
26.19;-0,79;0,05;0,07;3,65;-15,01;3,29;-2,56;0,43;-2,35;946,78
26.191;-0,79;0,05;0,07;3,65;-15,01;3,29;-2,59;1,77;-2,68;946,78
26.191;-0,79;0,05;0,07;-0,49;-6,13;0,64;-2,59;1,77;-2,68;946,78
26.21;-0,79;0,05;0,07;-0,49;-6,13;0,64;-2,59;1,77;-2,68;946,82
26.251;-1,76;1,02;0,75;-0,49;-6,13;0,64;-2,59;1,77;-2,68;946,82
26.251;-1,76;1,02;0,75;-0,49;-6,13;0,64;-2,47;1,28;-3,00;946,82
26.251;-1,76;1,02;0,75;-9,05;4,61;7,21;-2,47;1,28;-3,00;946,82
26.312;-2,51;0,13;1,13;-9,05;4,61;7,21;-2,47;1,28;-3,00;946,82
26.313;-2,51;0,13;1,13;-9,05;4,61;7,21;-2,63;0,72;-2,38;946,82
26.313;-2,51;0,13;1,13;-15,51;-2,51;10,76;-2,63;0,72;-2,38;946,82
26.314;-2,51;0,13;1,13;-15,51;-2,51;10,76;-2,63;0,72;-2,38;946,84
26.371;-1,78;0,02;1,02;-15,51;-2,51;10,76;-2,63;0,72;-2,38;946,84
26.371;-1,78;0,02;1,02;-15,51;-2,51;10,76;-0,31;-0,41;-1,30;946,84
26.371;-1,78;0,02;1,02;-8,03;-2,47;8,93;-0,31;-0,41;-1,30;946,84
26.41;-1,78;0,02;1,02;-8,03;-2,47;8,93;-0,31;-0,41;-1,30;946,84
26.431;-1,70;0,13;0,62;-8,03;-2,47;8,93;-0,31;-0,41;-1,30;946,84
26.432;-1,70;0,13;0,62;-8,03;-2,47;8,93;0,47;1,39;-0,46;946,84
26.432;-1,70;0,13;0,62;-7,11;-0,91;5,41;0,47;1,39;-0,46;946,84
26.491;-1,37;0,18;0,76;-7,11;-0,91;5,41;0,47;1,39;-0,46;946,84
26.492;-1,37;0,18;0,76;-7,11;-0,91;5,41;0,55;-1,05;0,02;946,84
26.492;-1,37;0,18;0,76;-3,85;-0,28;6,76;0,55;-1,05;0,02;946,84
26.509;-1,37;0,18;0,76;-3,85;-0,28;6,76;0,55;-1,05;0,02;946,82
26.55;-1,61;0,25;0,91;-3,85;-0,28;6,76;0,55;-1,05;0,02;946,82
26.55;-1,61;0,25;0,91;-3,85;-0,28;6,76;1,49;-0,06;0,92;946,82
26.551;-1,61;0,25;0,91;-6,25;0,06;8,05;1,49;-0,06;0,92;946,82
26.611;-3,09;0,48;0,91;-6,25;0,06;8,05;1,49;-0,06;0,92;946,82
26.612;-3,09;0,48;0,91;-6,25;0,06;8,05;1,80;-0,57;1,69;946,82
26.612;-3,09;0,48;0,91;-6,25;0,06;8,05;1,80;-0,57;1,69;946,84
26.612;-3,09;0,48;0,91;-20,94;1,65;8,49;1,80;-0,57;1,69;946,84
26.671;-2,67;0,56;0,90;-20,94;1,65;8,49;1,80;-0,57;1,69;946,84
26.672;-2,67;0,56;0,90;-20,94;1,65;8,49;2,04;-1,48;2,30;946,84
26.672;-2,67;0,56;0,90;-17,33;1,24;8,07;2,04;-1,48;2,30;946,84
26.71;-2,67;0,56;0,90;-17,33;1,24;8,07;2,04;-1,48;2,30;946,84
26.73;-1,21;0,19;0,63;-17,33;1,24;8,07;2,04;-1,48;2,30;946,84
26.731;-1,21;0,19;0,63;-17,33;1,24;8,07;2,67;-2,03;2,97;946,84
26.731;-1,21;0,19;0,63;-3,94;-3,89;5,22;2,67;-2,03;2,97;946,84
26.79;-0,25;-0,63;0,44;-3,94;-3,89;5,22;2,67;-2,03;2,97;946,84
26.79;-0,25;-0,63;0,44;-3,94;-3,89;5,22;2,78;-0,65;3,21;946,84
26.79;-0,25;-0,63;0,44;4,19;-13,35;3,99;2,78;-0,65;3,21;946,84
26.81;-0,25;-0,63;0,44;4,19;-13,35;3,99;2,78;-0,65;3,21;946,84
26.851;0,17;-0,78;0,47;4,19;-13,35;3,99;2,78;-0,65;3,21;946,84
26.852;0,17;-0,78;0,47;4,19;-13,35;3,99;3,14;-1,24;2,68;946,84
26.852;0,17;-0,78;0,47;6,97;-15,82;5,14;3,14;-1,24;2,68;946,84
26.911;-0,16;-0,95;0,09;6,97;-15,82;5,14;3,14;-1,24;2,68;946,84
26.912;-0,16;-0,95;0,09;6,97;-15,82;5,14;3,05;-0,42;2,59;946,84
26.912;-0,16;-0,95;0,09;2,47;-18,01;2,80;3,05;-0,42;2,59;946,84
26.913;-0,16;-0,95;0,09;2,47;-18,01;2,80;3,05;-0,42;2,59;946,82
26.971;-0,16;-0,62;-0,40;2,47;-18,01;2,80;3,05;-0,42;2,59;946,82
26.972;-0,16;-0,62;-0,40;2,47;-18,01;2,80;2,68;-2,37;1,73;946,82
26.972;-0,16;-0,62;-0,40;1,54;-14,82;-0,74;2,68;-2,37;1,73;946,82
27.011;-0,16;-0,62;-0,40;1,54;-14,82;-0,74;2,68;-2,37;1,73;946,82
27.032;-0,15;0,10;-0,61;1,54;-14,82;-0,74;2,68;-2,37;1,73;946,82
27.032;-0,15;0,10;-0,61;1,54;-14,82;-0,74;1,75;-2,67;1,01;946,82
27.033;-0,15;0,10;-0,61;1,35;-7,55;-2,00;1,75;-2,67;1,01;946,82
27.09;0,35;0,62;-1,11;1,35;-7,55;-2,00;1,75;-2,67;1,01;946,82
27.09;0,35;0,62;-1,11;1,35;-7,55;-2,00;2,03;-1,82;1,55;946,82
27.09;0,35;0,62;-1,11;6,09;-2,10;-6,26;2,03;-1,82;1,55;946,82
27.11;0,35;0,62;-1,11;6,09;-2,10;-6,26;2,03;-1,82;1,55;946,73
27.15;-0,20;2,91;-1,85;6,09;-2,10;-6,26;2,03;-1,82;1,55;946,73
27.151;-0,20;2,91;-1,85;6,09;-2,10;-6,26;-4,29;-6,20;1,02;946,73
27.151;-0,20;2,91;-1,85;0,52;20,54;-13,00;-4,29;-6,20;1,02;946,73
27.21;1,21;2,05;-3,16;0,52;20,54;-13,00;-4,29;-6,20;1,02;946,73
27.211;1,21;2,05;-3,16;0,52;20,54;-13,00;-2,71;0,22;1,44;946,73
27.212;1,21;2,05;-3,16;13,85;12,29;-25,30;-2,71;0,22;1,44;946,73
27.212;1,21;2,05;-3,16;13,85;12,29;-25,30;-2,71;0,22;1,44;946,70
27.27;0,99;1,41;-2,27;13,85;12,29;-25,30;-2,71;0,22;1,44;946,70
27.271;0,99;1,41;-2,27;13,85;12,29;-25,30;0,55;4,23;-1,50;946,70
27.271;0,99;1,41;-2,27;12,26;5,85;-17,14;0,55;4,23;-1,50;946,70
27.313;0,99;1,41;-2,27;12,26;5,85;-17,14;0,55;4,23;-1,50;946,70
27.331;0,19;0,01;-1,43;12,26;5,85;-17,14;0,55;4,23;-1,50;946,70
27.332;0,19;0,01;-1,43;12,26;5,85;-17,14;-0,10;2,06;-1,74;946,70
27.332;0,19;0,01;-1,43;4,19;-8,39;-9,57;-0,10;2,06;-1,74;946,70
27.392;-0,09;-0,84;-0,10;4,19;-8,39;-9,57;-0,10;2,06;-1,74;946,70
27.393;-0,09;-0,84;-0,10;4,19;-8,39;-9,57;-3,84;1,12;-3,03;946,70
27.393;-0,09;-0,84;-0,10;2,35;-16,77;2,52;-3,84;1,12;-3,03;946,70
27.41;-0,09;-0,84;-0,10;2,35;-16,77;2,52;-3,84;1,12;-3,03;946,75
27.451;0,00;-0,94;0,16;2,35;-16,77;2,52;-3,84;1,12;-3,03;946,75
27.452;0,00;-0,94;0,16;2,35;-16,77;2,52;-4,05;-0,37;-1,92;946,75
27.453;0,00;-0,94;0,16;4,55;-17,75;3,37;-4,05;-0,37;-1,92;946,75
27.512;0,08;-0,85;-0,16;4,55;-17,75;3,37;-4,05;-0,37;-1,92;946,75
27.513;0,08;-0,85;-0,16;4,55;-17,75;3,37;-3,08;1,02;-1,97;946,75
27.513;0,08;-0,85;-0,16;6,24;-16,51;-1,02;-3,08;1,02;-1,97;946,75
27.514;0,08;-0,85;-0,16;6,24;-16,51;-1,02;-3,08;1,02;-1,97;946,78
27.573;-0,65;-0,66;-0,80;6,24;-16,51;-1,02;-3,08;1,02;-1,97;946,78
27.573;-0,65;-0,66;-0,80;6,24;-16,51;-1,02;-2,51;4,31;-2,89;946,78
27.573;-0,65;-0,66;-0,80;0,08;-13,80;-7,41;-2,51;4,31;-2,89;946,78
27.611;-0,65;-0,66;-0,80;0,08;-13,80;-7,41;-2,51;4,31;-2,89;946,78
27.632;-1,22;0,26;0,09;0,08;-13,80;-7,41;-2,51;4,31;-2,89;946,78
27.633;-1,22;0,26;0,09;0,08;-13,80;-7,41;-2,86;1,43;-3,67;946,78
27.633;-1,22;0,26;0,09;-4,38;-3,64;1,60;-2,86;1,43;-3,67;946,78
27.69;-2,59;-0,48;1,08;-4,38;-3,64;1,60;-2,86;1,43;-3,67;946,78
27.691;-2,59;-0,48;1,08;-4,38;-3,64;1,60;-3,62;1,63;-4,13;946,78
27.691;-2,59;-0,48;1,08;-16,56;-8,88;11,39;-3,62;1,63;-4,13;946,78
27.711;-2,59;-0,48;1,08;-16,56;-8,88;11,39;-3,62;1,63;-4,13;946,75
27.75;-2,17;0,07;1,12;-16,56;-8,88;11,39;-3,62;1,63;-4,13;946,75
27.751;-2,17;0,07;1,12;-16,56;-8,88;11,39;-1,36;-1,55;-2,15;946,75
27.751;-2,17;0,07;1,12;-11,72;-1,75;11,21;-1,36;-1,55;-2,15;946,75
27.811;-2,40;0,11;0,93;-11,72;-1,75;11,21;-1,36;-1,55;-2,15;946,75
27.812;-2,40;0,11;0,93;-11,72;-1,75;11,21;-0,44;1,44;-1,14;946,75
27.812;-2,40;0,11;0,93;-13,82;-0,37;9,23;-0,44;1,44;-1,14;946,75
27.812;-2,40;0,11;0,93;-13,82;-0,37;9,23;-0,44;1,44;-1,14;946,83
27.871;-1,91;0,41;0,96;-13,82;-0,37;9,23;-0,44;1,44;-1,14;946,83
27.872;-1,91;0,41;0,96;-13,82;-0,37;9,23;0,46;-0,15;0,06;946,83
27.872;-1,91;0,41;0,96;-9,00;2,95;9,71;0,46;-0,15;0,06;946,83
27.91;-1,91;0,41;0,96;-9,00;2,95;9,71;0,46;-0,15;0,06;946,83
27.933;-1,75;0,14;0,89;-9,00;2,95;9,71;0,46;-0,15;0,06;946,83
27.933;-1,75;0,14;0,89;-9,00;2,95;9,71;1,21;0,17;0,98;946,83
27.933;-1,75;0,14;0,89;-7,39;0,06;9,17;1,21;0,17;0,98;946,83
27.99;-1,74;-0,03;0,87;-7,39;0,06;9,17;1,21;0,17;0,98;946,83
27.991;-1,74;-0,03;0,87;-7,39;0,06;9,17;1,97;-1,08;1,85;946,83
27.991;-1,74;-0,03;0,87;-7,47;-2,38;8,80;1,97;-1,08;1,85;946,83
28.011;-1,74;-0,03;0,87;-7,47;-2,38;8,80;1,97;-1,08;1,85;946,85
28.051;-2,37;0,02;0,76;-7,47;-2,38;8,80;1,97;-1,08;1,85;946,85
28.052;-2,37;0,02;0,76;-7,47;-2,38;8,80;2,67;-1,84;2,50;946,85
28.052;-2,37;0,02;0,76;-13,98;-3,07;7,63;2,67;-1,84;2,50;946,85
28.11;-2,07;0,25;0,42;-13,98;-3,07;7,63;2,67;-1,84;2,50;946,85
28.111;-2,07;0,25;0,42;-13,98;-3,07;7,63;3,53;-1,23;2,72;946,85
28.111;-2,07;0,25;0,42;-11,65;-2,21;3,96;3,53;-1,23;2,72;946,85
28.111;-2,07;0,25;0,42;-11,65;-2,21;3,96;3,53;-1,23;2,72;946,84
28.173;-1,23;0,45;0,22;-11,65;-2,21;3,96;3,53;-1,23;2,72;946,84
28.173;-1,23;0,45;0,22;-11,65;-2,21;3,96;3,77;-1,73;2,61;946,84
28.173;-1,23;0,45;0,22;-4,31;-1,61;2,41;3,77;-1,73;2,61;946,84
28.212;-1,23;0,45;0,22;-4,31;-1,61;2,41;3,77;-1,73;2,61;946,84
28.23;-0,57;-0,09;0,19;-4,31;-1,61;2,41;3,77;-1,73;2,61;946,84
28.231;-0,57;-0,09;0,19;-4,31;-1,61;2,41;2,89;0,36;2,86;946,84
28.231;-0,57;-0,09;0,19;1,09;-7,94;3,04;2,89;0,36;2,86;946,84
28.29;-0,24;-0,55;0,38;1,09;-7,94;3,04;2,89;0,36;2,86;946,84
28.291;-0,24;-0,55;0,38;1,09;-7,94;3,04;2,35;-0,68;2,75;946,84
28.291;-0,24;-0,55;0,38;3,12;-13,18;5,95;2,35;-0,68;2,75;946,84
28.312;-0,24;-0,55;0,38;3,12;-13,18;5,95;2,35;-0,68;2,75;946,83
28.351;-0,20;-0,71;0,07;3,12;-13,18;5,95;2,35;-0,68;2,75;946,83
28.352;-0,20;-0,71;0,07;3,12;-13,18;5,95;2,33;-0,45;2,52;946,83
28.353;-0,20;-0,71;0,07;2,30;-15,20;3,94;2,33;-0,45;2,52;946,83
28.411;-0,16;-0,72;0,09;2,30;-15,20;3,94;2,33;-0,45;2,52;946,83
28.412;-0,16;-0,72;0,09;2,30;-15,20;3,94;1,41;0,05;1,92;946,83
28.413;-0,16;-0,72;0,09;1,76;-15,33;4,97;1,41;0,05;1,92;946,83
28.413;-0,16;-0,72;0,09;1,76;-15,33;4,97;1,41;0,05;1,92;946,81
28.472;0,04;0,69;-2,22;1,76;-15,33;4,97;1,41;0,05;1,92;946,81
28.472;0,04;0,69;-2,22;1,76;-15,33;4,97;1,23;-3,85;1,54;946,81
28.473;0,04;0,69;-2,22;3,25;-1,33;-17,05;1,23;-3,85;1,54;946,81
28.511;0,04;0,69;-2,22;3,25;-1,33;-17,05;1,23;-3,85;1,54;946,81
28.531;0,19;1,20;-2,41;3,25;-1,33;-17,05;1,23;-3,85;1,54;946,81
28.531;0,19;1,20;-2,41;3,25;-1,33;-17,05;0,72;2,36;2,08;946,81
28.531;0,19;1,20;-2,41;3,96;3,83;-18,24;0,72;2,36;2,08;946,81
28.591;1,62;1,48;-1,44;3,96;3,83;-18,24;0,72;2,36;2,08;946,81
28.591;1,62;1,48;-1,44;3,96;3,83;-18,24;-0,74;-8,26;2,15;946,81
28.592;1,62;1,48;-1,44;17,82;6,32;-9,13;-0,74;-8,26;2,15;946,81
28.611;1,62;1,48;-1,44;17,82;6,32;-9,13;-0,74;-8,26;2,15;946,75
28.652;1,13;1,32;-2,58;17,82;6,32;-9,13;-0,74;-8,26;2,15;946,75
28.653;1,13;1,32;-2,58;17,82;6,32;-9,13;1,24;0,37;-1,03;946,75
28.653;1,13;1,32;-2,58;13,13;4,96;-19,94;1,24;0,37;-1,03;946,75
28.712;-0,16;-0,20;-1,30;13,13;4,96;-19,94;1,24;0,37;-1,03;946,75
28.713;-0,16;-0,20;-1,30;13,13;4,96;-19,94;0,48;3,78;-1,92;946,75
28.713;-0,16;-0,20;-1,30;-0,45;-9,91;-7,13;0,48;3,78;-1,92;946,75
28.713;-0,16;-0,20;-1,30;-0,45;-9,91;-7,13;0,48;3,78;-1,92;946,74
28.77;-0,27;-0,50;-0,19;-0,45;-9,91;-7,13;0,48;3,78;-1,92;946,74
28.771;-0,27;-0,50;-0,19;-0,45;-9,91;-7,13;-1,86;-2,11;-1,70;946,74
28.771;-0,27;-0,50;-0,19;-1,25;-13,09;3,31;-1,86;-2,11;-1,70;946,74
28.81;-0,27;-0,50;-0,19;-1,25;-13,09;3,31;-1,86;-2,11;-1,70;946,77
28.831;0,30;-0,54;0,08;-1,25;-13,09;3,31;-1,86;-2,11;-1,70;946,77
28.832;0,30;-0,54;0,08;-1,25;-13,09;3,31;-2,94;-1,29;-1,17;946,77
28.832;0,30;-0,54;0,08;5,77;-13,90;4,52;-2,94;-1,29;-1,17;946,77
28.89;0,25;-0,46;-0,12;5,77;-13,90;4,52;-2,94;-1,29;-1,17;946,77
28.891;0,25;-0,46;-0,12;5,77;-13,90;4,52;-3,05;1,26;-2,18;946,77
28.891;0,25;-0,46;-0,12;6,17;-13,32;1,15;-3,05;1,26;-2,18;946,77
28.91;0,25;-0,46;-0,12;6,17;-13,32;1,15;-3,05;1,26;-2,18;946,80
28.953;-0,48;0,66;-0,81;6,17;-13,32;1,15;-3,05;1,26;-2,18;946,80
28.954;-0,48;0,66;-0,81;6,17;-13,32;1,15;-3,00;2,40;-3,50;946,80
28.954;-0,48;0,66;-0,81;0,24;-1,87;-6,48;-3,00;2,40;-3,50;946,80
29.011;-1,35;0,19;0,05;0,24;-1,87;-6,48;-3,00;2,40;-3,50;946,80
29.012;-1,35;0,19;0,05;0,24;-1,87;-6,48;-3,46;0,78;-3,93;946,80
29.012;-1,35;0,19;0,05;-6,95;-5,63;1,49;-3,46;0,78;-3,93;946,80
29.013;-1,35;0,19;0,05;-6,95;-5,63;1,49;-3,46;0,78;-3,93;946,77
29.072;-1,59;-0,41;0,81;-6,95;-5,63;1,49;-3,46;0,78;-3,93;946,77
29.072;-1,59;-0,41;0,81;-6,95;-5,63;1,49;-4,50;-0,21;-4,08;946,77
29.072;-1,59;-0,41;0,81;-7,63;-9,75;7,28;-4,50;-0,21;-4,08;946,77
29.113;-1,59;-0,41;0,81;-7,63;-9,75;7,28;-4,50;-0,21;-4,08;946,80
29.131;-1,87;-0,51;1,22;-7,63;-9,75;7,28;-4,50;-0,21;-4,08;946,80
29.131;-1,87;-0,51;1,22;-7,63;-9,75;7,28;-3,27;2,10;-3,13;946,80
29.131;-1,87;-0,51;1,22;-9,34;-8,61;10,48;-3,27;2,10;-3,13;946,80
29.191;-1,90;-0,03;1,01;-9,34;-8,61;10,48;-3,27;2,10;-3,13;946,80
29.191;-1,90;-0,03;1,01;-9,34;-8,61;10,48;-1,48;0,92;-2,00;946,80
29.191;-1,90;-0,03;1,01;-9,07;-2,17;9,11;-1,48;0,92;-2,00;946,80
29.21;-1,90;-0,03;1,01;-9,07;-2,17;9,11;-1,48;0,92;-2,00;946,84
29.25;-1,88;0,03;0,76;-9,07;-2,17;9,11;-1,48;0,92;-2,00;946,84
29.251;-1,88;0,03;0,76;-9,07;-2,17;9,11;-0,22;1,26;-0,87;946,84
29.251;-1,88;0,03;0,76;-8,64;-0,71;7,41;-0,22;1,26;-0,87;946,84
29.312;-1,80;0,04;1,06;-8,64;-0,71;7,41;-0,22;1,26;-0,87;946,84
29.313;-1,80;0,04;1,06;-8,64;-0,71;7,41;0,06;-0,16;-0,25;946,84
29.313;-1,80;0,04;1,06;-7,90;-0,30;10,63;0,06;-0,16;-0,25;946,84
29.314;-1,80;0,04;1,06;-7,90;-0,30;10,63;0,06;-0,16;-0,25;946,85
29.371;-2,16;0,00;1,22;-7,90;-0,30;10,63;0,06;-0,16;-0,25;946,85
29.372;-2,16;0,00;1,22;-7,90;-0,30;10,63;1,26;-1,25;0,80;946,85
29.372;-2,16;0,00;1,22;-11,41;-0,68;11,93;1,26;-1,25;0,80;946,85
29.41;-2,16;0,00;1,22;-11,41;-0,68;11,93;1,26;-1,25;0,80;946,87
29.431;-3,04;-0,14;1,24;-11,41;-0,68;11,93;1,26;-1,25;0,80;946,87
29.432;-3,04;-0,14;1,24;-11,41;-0,68;11,93;2,48;-1,09;2,44;946,87
29.432;-3,04;-0,14;1,24;-20,10;-2,98;11,79;2,48;-1,09;2,44;946,87
29.49;-2,03;-0,59;1,45;-20,10;-2,98;11,79;2,48;-1,09;2,44;946,87
29.49;-2,03;-0,59;1,45;-20,10;-2,98;11,79;4,46;-2,07;3,23;946,87
29.49;-2,03;-0,59;1,45;-10,77;-9,10;13,10;4,46;-2,07;3,23;946,87
29.511;-2,03;-0,59;1,45;-10,77;-9,10;13,10;4,46;-2,07;3,23;946,88
29.55;-1,64;-0,53;0,68;-10,77;-9,10;13,10;4,46;-2,07;3,23;946,88
29.551;-1,64;-0,53;0,68;-10,77;-9,10;13,10;6,10;-2,25;3,42;946,88
29.551;-1,64;-0,53;0,68;-7,86;-10,57;6,01;6,10;-2,25;3,42;946,88
29.615;-0,73;-0,64;-0,33;-7,86;-10,57;6,01;6,10;-2,25;3,42;946,88
29.617;-0,73;-0,64;-0,33;-7,86;-10,57;6,01;5,74;-0,36;3,96;946,88
29.617;-0,73;-0,64;-0,33;-0,37;-13,27;-2,38;5,74;-0,36;3,96;946,88
29.617;-0,73;-0,64;-0,33;-0,37;-13,27;-2,38;5,74;-0,36;3,96;946,88
29.67;-0,05;-0,80;-0,55;-0,37;-13,27;-2,38;5,74;-0,36;3,96;946,88
29.671;-0,05;-0,80;-0,55;-0,37;-13,27;-2,38;3,80;2,36;4,51;946,88
29.671;-0,05;-0,80;-0,55;4,29;-15,78;-2,13;3,80;2,36;4,51;946,88
29.711;-0,05;-0,80;-0,55;4,29;-15,78;-2,13;3,80;2,36;4,51;946,82
29.73;0,18;-0,57;-1,03;4,29;-15,78;-2,13;3,80;2,36;4,51;946,82
29.732;0,18;-0,57;-1,03;4,29;-15,78;-2,13;2,10;-2,96;3,01;946,82
29.732;0,18;-0,57;-1,03;4,31;-13,64;-5,05;2,10;-2,96;3,01;946,82
29.79;0,50;-0,65;-0,58;4,31;-13,64;-5,05;2,10;-2,96;3,01;946,82
29.791;0,50;-0,65;-0,58;4,31;-13,64;-5,05;0,49;-1,18;1,50;946,82
29.791;0,50;-0,65;-0,58;7,67;-14,29;-0,56;0,49;-1,18;1,50;946,82
29.809;0,50;-0,65;-0,58;7,67;-14,29;-0,56;0,49;-1,18;1,50;946,78
29.85;0,10;-0,40;-0,75;7,67;-14,29;-0,56;0,49;-1,18;1,50;946,78
29.851;0,10;-0,40;-0,75;7,67;-14,29;-0,56;0,35;-0,48;1,11;946,78
29.851;0,10;-0,40;-0,75;3,29;-11,92;-2,12;0,35;-0,48;1,11;946,78
29.91;0,02;0,66;-2,00;3,29;-11,92;-2,12;0,35;-0,48;1,11;946,78
29.911;0,02;0,66;-2,00;3,29;-11,92;-2,12;-3,05;-9,50;2,36;946,78
29.911;0,02;0,66;-2,00;2,80;-1,55;-14,64;-3,05;-9,50;2,36;946,78
29.911;0,02;0,66;-2,00;2,80;-1,55;-14,64;-3,05;-9,50;2,36;946,74
29.97;0,75;1,46;-1,20;2,80;-1,55;-14,64;-3,05;-9,50;2,36;946,74
29.971;0,75;1,46;-1,20;2,80;-1,55;-14,64;-0,68;-1,80;0,02;946,74
29.971;0,75;1,46;-1,20;9,23;6,31;-6,34;-0,68;-1,80;0,02;946,74
30.01;0,75;1,46;-1,20;9,23;6,31;-6,34;-0,68;-1,80;0,02;946,75
30.029;0,81;2,19;-2,04;9,23;6,31;-6,34;-0,68;-1,80;0,02;946,75
30.03;0,81;2,19;-2,04;9,23;6,31;-6,34;0,03;4,61;-1,04;946,75
30.03;0,81;2,19;-2,04;9,30;13,50;-14,43;0,03;4,61;-1,04;946,75
30.091;0,99;1,48;-1,56;9,30;13,50;-14,43;0,03;4,61;-1,04;946,75
30.092;0,99;1,48;-1,56;9,30;13,50;-14,43;-0,91;-0,57;-2,39;946,75
30.092;0,99;1,48;-1,56;12,29;6,40;-10,47;-0,91;-0,57;-2,39;946,75
30.11;0,99;1,48;-1,56;12,29;6,40;-10,47;-0,91;-0,57;-2,39;946,73
30.151;-0,07;-0,32;-0,31;12,29;6,40;-10,47;-0,91;-0,57;-2,39;946,73
30.152;-0,07;-0,32;-0,31;12,29;6,40;-10,47;-3,42;2,99;-2,40;946,73
30.152;-0,07;-0,32;-0,31;2,70;-11,47;0,79;-3,42;2,99;-2,40;946,73
30.209;-0,38;-1,03;-0,16;2,70;-11,47;0,79;-3,42;2,99;-2,40;946,73
30.21;-0,38;-1,03;-0,16;2,70;-11,47;0,79;-3,95;-0,35;-2,88;946,73
30.21;-0,38;-1,03;-0,16;0,68;-18,39;1,12;-3,95;-0,35;-2,88;946,73
30.211;-0,38;-1,03;-0,16;0,68;-18,39;1,12;-3,95;-0,35;-2,88;946,75
30.272;-0,14;-0,91;0,04;0,68;-18,39;1,12;-3,95;-0,35;-2,88;946,75
30.273;-0,14;-0,91;0,04;0,68;-18,39;1,12;-2,81;1,25;-1,98;946,75
30.273;-0,14;-0,91;0,04;4,23;-16,88;1,56;-2,81;1,25;-1,98;946,75
30.309;-0,14;-0,91;0,04;4,23;-16,88;1,56;-2,81;1,25;-1,98;946,77
30.33;-0,30;-0,83;-0,24;4,23;-16,88;1,56;-2,81;1,25;-1,98;946,77
30.331;-0,30;-0,83;-0,24;4,23;-16,88;1,56;-2,70;3,45;-2,52;946,77
30.332;-0,30;-0,83;-0,24;3,63;-15,39;-1,73;-2,70;3,45;-2,52;946,77
30.39;-1,53;-0,03;-0,25;3,63;-15,39;-1,73;-2,70;3,45;-2,52;946,77
30.39;-1,53;-0,03;-0,25;3,63;-15,39;-1,73;-3,88;1,95;-2,63;946,77
30.391;-1,53;-0,03;-0,25;-7,44;-6,58;-1,71;-3,88;1,95;-2,63;946,77
30.41;-1,53;-0,03;-0,25;-7,44;-6,58;-1,71;-3,88;1,95;-2,63;946,77
30.449;-1,56;0,29;1,21;-7,44;-6,58;-1,71;-3,88;1,95;-2,63;946,77
30.45;-1,56;0,29;1,21;-7,44;-6,58;-1,71;-3,94;-0,48;-2,45;946,77
30.45;-1,56;0,29;1,21;-6,93;-2,29;11,31;-3,94;-0,48;-2,45;946,77
30.51;-1,86;0,12;1,50;-6,93;-2,29;11,31;-3,94;-0,48;-2,45;946,77
30.51;-1,86;0,12;1,50;-6,93;-2,29;11,31;-2,23;1,27;-1,63;946,77
30.51;-1,86;0,12;1,50;-9,28;-2,72;13,97;-2,23;1,27;-1,63;946,77
30.511;-1,86;0,12;1,50;-9,28;-2,72;13,97;-2,23;1,27;-1,63;946,84
30.57;-1,90;0,06;1,04;-9,28;-2,72;13,97;-2,23;1,27;-1,63;946,84
30.571;-1,90;0,06;1,04;-9,28;-2,72;13,97;-1,06;0,77;-1,21;946,84
30.571;-1,90;0,06;1,04;-9,25;-2,38;9,48;-1,06;0,77;-1,21;946,84
30.61;-1,90;0,06;1,04;-9,25;-2,38;9,48;-1,06;0,77;-1,21;946,85
30.63;-1,40;0,12;0,74;-9,25;-2,38;9,48;-1,06;0,77;-1,21;946,85
30.631;-1,40;0,12;0,74;-9,25;-2,38;9,48;-0,35;0,13;-0,75;946,85
