time,gFx,gFy,gFz,ax,ay,az,wx,wy,wz,P
0.023,-0.23,0.78,0.54,-0.03,0.16,0.24,0.03,-0.02,-0.0,949.83
0.024,-0.23,0.78,0.54,0.21,0.04,-0.41,0.03,-0.02,-0.0,949.83
0.024,-0.23,0.78,0.54,0.21,0.04,-0.41,-0.06,-0.04,0.01,949.83
0.04,-0.23,0.78,0.54,0.21,0.04,-0.41,-0.06,-0.04,0.01,949.83
0.084,-0.24,0.77,0.57,0.21,0.04,-0.41,-0.06,-0.04,0.01,949.83
0.084,-0.24,0.77,0.57,0.11,0.0,-0.09,-0.06,-0.04,0.01,949.83
0.084,-0.24,0.77,0.57,0.11,0.0,-0.09,-0.15,-0.01,-0.01,949.83
0.148,-0.26,0.8,0.58,0.11,0.0,-0.09,-0.15,-0.01,-0.01,949.83
0.149,-0.26,0.8,0.58,-0.04,0.31,-0.11,-0.15,-0.01,-0.01,949.83
0.149,-0.26,0.8,0.58,-0.04,0.31,-0.11,-0.13,-0.06,-0.01,949.83
0.149,-0.26,0.8,0.58,-0.04,0.31,-0.11,-0.13,-0.06,-0.01,949.84
0.211,-0.23,0.79,0.58,-0.04,0.31,-0.11,-0.13,-0.06,-0.01,949.84
0.212,-0.23,0.79,0.58,0.14,0.23,-0.13,-0.13,-0.06,-0.01,949.84
0.212,-0.23,0.79,0.58,0.14,0.23,-0.13,-0.09,0.0,0.01,949.84
0.252,-0.23,0.79,0.58,0.14,0.23,-0.13,-0.09,0.0,0.01,949.83
0.274,-0.21,0.8,0.57,0.14,0.23,-0.13,-0.09,0.0,0.01,949.83
0.275,-0.21,0.8,0.57,0.3,0.33,-0.24,-0.09,0.0,0.01,949.83
0.275,-0.21,0.8,0.57,0.3,0.33,-0.24,-0.16,-0.13,0.02,949.83
0.339,-0.19,0.8,0.56,0.3,0.33,-0.24,-0.16,-0.13,0.02,949.83
0.339,-0.19,0.8,0.56,0.45,0.34,-0.4,-0.16,-0.13,0.02,949.83
0.34,-0.19,0.8,0.56,0.45,0.34,-0.4,-0.06,-0.05,-0.01,949.83
0.357,-0.19,0.8,0.56,0.45,0.34,-0.4,-0.06,-0.05,-0.01,949.84
0.4,-0.14,0.81,0.55,0.45,0.34,-0.4,-0.06,-0.05,-0.01,949.84
0.401,-0.14,0.81,0.55,0.79,0.35,-0.44,-0.06,-0.05,-0.01,949.84
0.402,-0.14,0.81,0.55,0.79,0.35,-0.44,-0.2,-0.17,0.01,949.84
0.465,-0.14,0.81,0.49,0.79,0.35,-0.44,-0.2,-0.17,0.01,949.84
0.466,-0.14,0.81,0.49,0.65,0.33,-0.95,-0.2,-0.17,0.01,949.84
0.466,-0.14,0.81,0.49,0.65,0.33,-0.95,-0.15,-0.08,-0.01,949.84
0.467,-0.14,0.81,0.49,0.65,0.33,-0.95,-0.15,-0.08,-0.01,949.83
0.528,-0.09,0.8,0.49,0.65,0.33,-0.95,-0.15,-0.08,-0.01,949.83
0.53,-0.09,0.8,0.49,0.92,0.12,-0.98,-0.15,-0.08,-0.01,949.83
0.532,-0.09,0.8,0.49,0.92,0.12,-0.98,-0.35,-0.08,-0.11,949.83
0.57,-0.09,0.8,0.49,0.92,0.12,-0.98,-0.35,-0.08,-0.11,949.83
0.592,-0.11,0.74,0.51,0.92,0.12,-0.98,-0.35,-0.08,-0.11,949.83
0.594,-0.11,0.74,0.51,0.93,0.2,-1.08,-0.35,-0.08,-0.11,949.83
0.596,-0.11,0.74,0.51,0.93,0.2,-1.08,-0.31,0.01,-0.3,949.83
0.657,-0.09,0.64,0.3,0.93,0.2,-1.08,-0.31,0.01,-0.3,949.83
0.659,-0.09,0.64,0.3,1.07,-1.23,-3.01,-0.31,0.01,-0.3,949.83
0.66,-0.09,0.64,0.3,1.07,-1.23,-3.01,-0.26,0.36,-0.38,949.83
0.676,-0.09,0.64,0.3,1.07,-1.23,-3.01,-0.26,0.36,-0.38,949.83
0.72,-0.15,0.52,0.27,1.07,-1.23,-3.01,-0.26,0.36,-0.38,949.83
0.722,-0.15,0.52,0.27,1.07,-1.23,-3.01,-0.47,0.78,-0.64,949.83
0.724,-0.15,0.52,0.27,0.84,-2.29,-3.37,-0.47,0.78,-0.64,949.83
0.784,-0.27,0.37,0.33,0.84,-2.29,-3.37,-0.47,0.78,-0.64,949.83
0.785,-0.27,0.37,0.33,0.49,-3.44,-2.84,-0.47,0.78,-0.64,949.83
0.787,-0.27,0.37,0.33,0.49,-3.44,-2.84,-0.53,1.44,-1.12,949.83
0.788,-0.27,0.37,0.33,0.49,-3.44,-2.84,-0.53,1.44,-1.12,949.83
0.845,-0.48,0.24,0.37,0.49,-3.44,-2.84,-0.53,1.44,-1.12,949.83
0.847,-0.48,0.24,0.37,0.49,-3.44,-2.84,-0.72,1.69,-1.65,949.83
0.849,-0.48,0.24,0.37,-0.45,-4.12,-2.36,-0.72,1.69,-1.65,949.83
0.886,-0.48,0.24,0.37,-0.45,-4.12,-2.36,-0.72,1.69,-1.65,949.83
0.907,-0.48,0.24,0.37,0.91,-3.31,-2.07,-0.72,1.69,-1.65,949.83
0.909,-0.48,0.24,0.37,0.91,-3.31,-2.07,-1.04,2.17,-2.22,949.83
0.912,-0.92,0.14,0.44,0.91,-3.31,-2.07,-1.04,2.17,-2.22,949.83
0.97,-1.25,-0.02,0.49,0.91,-3.31,-2.07,-1.04,2.17,-2.22,949.83
0.971,-1.25,-0.02,0.49,-1.94,-2.89,-0.87,-1.04,2.17,-2.22,949.83
0.973,-1.25,-0.02,0.49,-1.94,-2.89,-0.87,-1.14,2.23,-2.39,949.83
0.99,-1.25,-0.02,0.49,-1.94,-2.89,-0.87,-1.14,2.23,-2.39,949.83
1.033,-1.25,-0.02,0.49,-3.84,-2.83,0.55,-1.14,2.23,-2.39,949.83
1.036,-1.25,-0.02,0.49,-3.84,-2.83,0.55,-1.34,2.61,-2.49,949.83
1.038,-1.83,0.01,0.66,-3.84,-2.83,0.55,-1.34,2.61,-2.49,949.83
1.097,-1.69,0.17,0.52,-3.84,-2.83,0.55,-1.34,2.61,-2.49,949.83
1.099,-1.69,0.17,0.52,-7.41,0.36,1.79,-1.34,2.61,-2.49,949.83
1.1,-1.69,0.17,0.52,-7.41,0.36,1.79,-1.42,1.49,-1.38,949.83
1.101,-1.69,0.17,0.52,-7.41,0.36,1.79,-1.42,1.49,-1.38,949.85
1.16,-1.59,0.31,0.71,-7.41,0.36,1.79,-1.42,1.49,-1.38,949.85
1.165,-1.59,0.31,0.71,-6.18,2.74,4.28,-1.42,1.49,-1.38,949.85
1.166,-1.59,0.31,0.71,-6.18,2.74,4.28,-1.89,0.96,-0.83,949.85
1.201,-1.59,0.31,0.71,-6.18,2.74,4.28,-1.89,0.96,-0.83,949.87
1.224,-1.35,0.58,0.7,-6.18,2.74,4.28,-1.89,0.96,-0.83,949.87
1.226,-1.35,0.58,0.7,-3.69,5.84,4.8,-1.89,0.96,-0.83,949.87
1.228,-1.35,0.58,0.7,-3.69,5.84,4.8,-1.56,1.16,-0.27,949.87
1.286,-0.83,0.7,0.91,-3.69,5.84,4.8,-1.56,1.16,-0.27,949.87
1.287,-0.83,0.7,0.91,1.57,7.31,7.28,-1.56,1.16,-0.27,949.87
1.289,-0.83,0.7,0.91,1.57,7.31,7.28,-0.91,0.4,0.04,949.87
1.307,-0.83,0.7,0.91,1.57,7.31,7.28,-0.91,0.4,0.04,949.89
1.349,-0.56,1.0,0.46,1.57,7.31,7.28,-0.91,0.4,0.04,949.89
1.353,-0.56,1.0,0.46,4.23,10.1,3.14,-0.91,0.4,0.04,949.89
1.356,-0.56,1.0,0.46,4.23,10.1,3.14,1.5,0.47,0.68,949.89
1.412,-0.65,0.86,0.2,4.23,10.1,3.14,1.5,0.47,0.68,949.89
1.415,-0.65,0.86,0.2,3.33,7.86,0.59,1.5,0.47,0.68,949.89
1.418,-0.65,0.86,0.2,3.33,7.86,0.59,1.14,-0.98,2.16,949.89
1.42,-0.65,0.86,0.2,3.33,7.86,0.59,1.14,-0.98,2.16,949.89
1.476,-1.12,0.5,0.54,3.33,7.86,0.59,1.14,-0.98,2.16,949.89
1.478,-1.12,0.5,0.54,-1.72,2.35,3.21,1.14,-0.98,2.16,949.89
1.48,-1.12,0.5,0.54,-1.72,2.35,3.21,2.09,-2.04,3.44,949.89
1.518,-1.12,0.5,0.54,-1.72,2.35,3.21,2.09,-2.04,3.44,949.89
1.546,-1.97,0.55,1.51,-1.72,2.35,3.21,2.09,-2.04,3.44,949.89
1.549,-1.97,0.55,1.51,-11.06,0.84,12.03,2.09,-2.04,3.44,949.89
1.551,-1.97,0.55,1.51,-11.06,0.84,12.03,1.99,-1.65,2.45,949.89
1.603,-1.59,0.23,0.65,-11.06,0.84,12.03,1.99,-1.65,2.45,949.89
1.605,-1.59,0.23,0.65,-8.25,-3.61,3.66,1.99,-1.65,2.45,949.89
1.607,-1.59,0.23,0.65,-8.25,-3.61,3.66,3.03,-1.7,1.36,949.89
1.623,-1.59,0.23,0.65,-8.25,-3.61,3.66,3.03,-1.7,1.36,949.88
1.666,-1.04,-0.12,0.07,-8.25,-3.61,3.66,3.03,-1.7,1.36,949.88
1.668,-1.04,-0.12,0.07,-8.25,-3.61,3.66,1.45,-1.33,0.55,949.88
1.669,-1.04,-0.12,0.07,-3.37,-7.81,-1.67,1.45,-1.33,0.55,949.88
1.731,-0.24,-0.46,-0.15,-3.37,-7.81,-1.67,1.45,-1.33,0.55,949.88
1.733,-0.24,-0.46,-0.15,4.22,-11.21,-4.14,1.45,-1.33,0.55,949.88
1.735,-0.24,-0.46,-0.15,4.22,-11.21,-4.14,0.15,-1.74,0.59,949.88
1.739,-0.24,-0.46,-0.15,4.22,-11.21,-4.14,0.15,-1.74,0.59,949.89
1.794,-0.18,-0.59,-0.49,4.22,-11.21,-4.14,0.15,-1.74,0.59,949.89
1.796,-0.18,-0.59,-0.49,4.41,-12.73,-7.91,0.15,-1.74,0.59,949.89
1.797,-0.18,-0.59,-0.49,4.41,-12.73,-7.91,0.61,-0.63,0.47,949.89
1.838,-0.18,-0.59,-0.49,4.41,-12.73,-7.91,0.61,-0.63,0.47,949.93
1.856,-1.06,-0.36,-0.24,4.41,-12.73,-7.91,0.61,-0.63,0.47,949.93
1.858,-1.06,-0.36,-0.24,-4.42,-10.64,-5.56,0.61,-0.63,0.47,949.93
1.86,-1.06,-0.36,-0.24,-4.42,-10.64,-5.56,-0.8,0.66,-0.03,949.93
1.921,-1.06,-0.36,-0.24,-3.36,-9.78,-5.15,-0.8,0.66,-0.03,949.93
1.923,-1.06,-0.36,-0.24,-3.36,-9.78,-5.15,-2.71,1.83,-1.02,949.93
1.924,-2.0,0.63,0.4,-3.36,-9.78,-5.15,-2.71,1.83,-1.02,949.93
1.942,-2.0,0.63,0.4,-3.36,-9.78,-5.15,-2.71,1.83,-1.02,949.91
1.984,-1.39,1.13,0.5,-3.36,-9.78,-5.15,-2.71,1.83,-1.02,949.91
1.985,-1.39,1.13,0.5,-11.78,0.92,1.38,-2.71,1.83,-1.02,949.91
1.986,-1.39,1.13,0.5,-11.78,0.92,1.38,-2.15,2.69,-1.24,949.91
2.047,-0.79,0.91,0.77,-11.78,0.92,1.38,-2.15,2.69,-1.24,949.91
2.049,-0.79,0.91,0.77,0.96,4.72,5.74,-2.15,2.69,-1.24,949.91
2.05,-0.79,0.91,0.77,0.96,4.72,5.74,-2.13,2.8,-1.88,949.91
2.052,-0.79,0.91,0.77,0.96,4.72,5.74,-2.13,2.8,-1.88,949.88
2.111,-0.3,0.96,0.68,0.96,4.72,5.74,-2.13,2.8,-1.88,949.88
2.113,-0.3,0.96,0.68,6.29,6.16,5.77,-2.13,2.8,-1.88,949.88
2.115,-0.3,0.96,0.68,6.29,6.16,5.77,-1.39,1.15,-1.44,949.88
2.163,-0.3,0.96,0.68,6.29,6.16,5.77,-1.39,1.15,-1.44,949.89
2.181,-0.39,1.19,0.51,6.29,6.16,5.77,-1.39,1.15,-1.44,949.89
2.184,-0.39,1.19,0.51,5.53,8.92,4.13,-1.39,1.15,-1.44,949.89
2.186,-0.39,1.19,0.51,5.53,8.92,4.13,-0.18,-0.4,0.49,949.89
2.238,-0.8,0.75,1.03,5.53,8.92,4.13,-0.18,-0.4,0.49,949.89
2.24,-0.8,0.75,1.03,1.22,3.95,8.32,-0.18,-0.4,0.49,949.89
2.242,-0.8,0.75,1.03,1.22,3.95,8.32,-0.69,-3.01,1.95,949.89
2.257,-0.8,0.75,1.03,1.22,3.95,8.32,-0.69,-3.01,1.95,949.92
2.3,-0.7,0.7,0.61,1.22,3.95,8.32,-0.69,-3.01,1.95,949.92
2.302,-0.7,0.7,0.61,1.19,2.11,2.89,-0.69,-3.01,1.95,949.92
2.304,-0.7,0.7,0.61,1.19,2.11,2.89,2.5,-2.7,2.3,949.92
2.366,-1.9,0.51,1.1,1.19,2.11,2.89,2.5,-2.7,2.3,949.92
2.368,-1.9,0.51,1.1,1.19,2.11,2.89,2.64,-1.56,-0.29,949.92
2.369,-1.9,0.51,1.1,1.19,2.11,2.89,2.64,-1.56,-0.29,949.88
2.37,-1.9,0.51,1.1,-11.37,-0.74,7.52,2.64,-1.56,-0.29,949.88
2.429,-0.94,0.11,0.06,-11.37,-0.74,7.52,2.64,-1.56,-0.29,949.88
2.433,-0.94,0.11,0.06,-1.98,-4.99,-2.1,2.64,-1.56,-0.29,949.88
2.437,-0.94,0.11,0.06,-1.98,-4.99,-2.1,3.06,-0.3,-1.01,949.88
2.469,-0.94,0.11,0.06,-1.98,-4.99,-2.1,3.06,-0.3,-1.01,949.88
2.491,-0.63,0.04,-0.12,-1.98,-4.99,-2.1,3.06,-0.3,-1.01,949.88
2.494,-0.63,0.04,-0.12,1.68,-5.31,-2.95,3.06,-0.3,-1.01,949.88
2.496,-0.63,0.04,-0.12,1.68,-5.31,-2.95,1.5,0.24,-1.15,949.88
2.555,-0.63,0.04,-0.12,1.97,-4.95,-2.75,1.5,0.24,-1.15,949.88
2.558,-0.63,0.04,-0.12,1.97,-4.95,-2.75,0.7,-0.48,0.0,949.88
2.56,-0.14,-0.31,-0.16,1.97,-4.95,-2.75,0.7,-0.48,0.0,949.88
2.574,-0.14,-0.31,-0.16,1.97,-4.95,-2.75,0.7,-0.48,0.0,949.9
2.618,-0.44,-0.25,-0.66,1.97,-4.95,-2.75,0.7,-0.48,0.0,949.9
2.619,-0.44,-0.25,-0.66,3.8,-7.8,-7.86,0.7,-0.48,0.0,949.9
2.62,-0.44,-0.25,-0.66,3.8,-7.8,-7.86,-0.46,0.81,-0.16,949.9
2.683,-1.51,0.15,-0.52,3.8,-7.8,-7.86,-0.46,0.81,-0.16,949.9
2.686,-1.51,0.15,-0.52,-6.57,-3.73,-6.24,-0.46,0.81,-0.16,949.9
2.688,-1.51,0.15,-0.52,-6.57,-3.73,-6.24,-2.17,1.22,0.59,949.9
2.689,-1.51,0.15,-0.52,-6.57,-3.73,-6.24,-2.17,1.22,0.59,949.88
2.747,-2.21,0.59,1.15,-6.57,-3.73,-6.24,-2.17,1.22,0.59,949.88
2.752,-2.21,0.59,1.15,-13.29,0.86,9.84,-2.17,1.22,0.59,949.88
2.755,-2.21,0.59,1.15,-13.29,0.86,9.84,-4.05,1.9,-0.3,949.88
2.786,-2.21,0.59,1.15,-13.29,0.86,9.84,-4.05,1.9,-0.3,949.88
2.808,-0.79,0.85,0.41,-13.29,0.86,9.84,-4.05,1.9,-0.3,949.88
2.811,-0.79,0.85,0.41,0.9,3.92,2.85,-4.05,1.9,-0.3,949.88
2.813,-0.79,0.85,0.41,0.9,3.92,2.85,-1.55,2.42,-1.06,949.88
2.872,-0.79,0.85,0.41,1.37,4.81,3.9,-1.55,2.42,-1.06,949.88
2.875,-0.79,0.85,0.41,1.37,4.81,3.9,-1.21,2.23,-1.6,949.88
2.877,-0.77,0.87,0.46,1.37,4.81,3.9,-1.21,2.23,-1.6,949.88
2.892,-0.77,0.87,0.46,1.37,4.81,3.9,-1.21,2.23,-1.6,949.91
2.94,-0.11,0.74,0.35,1.37,4.81,3.9,-1.21,2.23,-1.6,949.91
2.942,-0.11,0.74,0.35,8.26,4.23,3.66,-1.21,2.23,-1.6,949.91
2.944,-0.11,0.74,0.35,8.26,4.23,3.66,-1.43,0.13,-0.57,949.91
2.999,-0.09,1.08,0.46,8.26,4.23,3.66,-1.43,0.13,-0.57,949.91
3.001,-0.09,1.08,0.46,8.14,6.67,4.22,-1.43,0.13,-0.57,949.91
3.002,-0.09,1.08,0.46,8.14,6.67,4.22,-0.08,-0.15,0.63,949.91
3.003,-0.09,1.08,0.46,8.14,6.67,4.22,-0.08,-0.15,0.63,949.94
3.064,-1.21,1.28,0.92,8.14,6.67,4.22,-0.08,-0.15,0.63,949.94
3.071,-1.21,1.28,0.92,-3.56,7.46,7.79,-0.08,-0.15,0.63,949.94
3.074,-1.21,1.28,0.92,-3.56,7.46,7.79,-0.06,-2.37,2.66,949.94
3.103,-1.21,1.28,0.92,-3.56,7.46,7.79,-0.06,-2.37,2.66,949.91
3.125,-1.21,1.28,0.92,-4.87,6.08,6.65,-0.06,-2.37,2.66,949.91
3.128,-1.21,1.28,0.92,-4.87,6.08,6.65,1.8,-1.31,1.79,949.91
3.129,-2.13,1.45,2.12,-4.87,6.08,6.65,1.8,-1.31,1.79,949.91
3.191,-2.04,0.36,0.44,-4.87,6.08,6.65,1.8,-1.31,1.79,949.91
3.194,-2.04,0.36,0.44,-14.02,-4.09,2.97,1.8,-1.31,1.79,949.91
3.197,-2.04,0.36,0.44,-14.02,-4.09,2.97,4.57,-1.5,1.88,949.91
3.211,-2.04,0.36,0.44,-14.02,-4.09,2.97,4.57,-1.5,1.88,949.9
3.253,-0.72,-0.35,-0.25,-14.02,-4.09,2.97,4.57,-1.5,1.88,949.9
3.257,-0.72,-0.35,-0.25,-1.74,-11.72,-2.57,4.57,-1.5,1.88,949.9
3.259,-0.72,-0.35,-0.25,-1.74,-11.72,-2.57,1.33,-1.79,0.77,949.9
3.318,-0.06,-0.68,-0.3,-1.74,-11.72,-2.57,1.33,-1.79,0.77,949.9
3.32,-0.06,-0.68,-0.3,-1.74,-11.72,-2.57,1.54,-0.82,-0.32,949.9
3.321,-0.06,-0.68,-0.3,-1.74,-11.72,-2.57,1.54,-0.82,-0.32,949.92
3.322,-0.06,-0.68,-0.3,4.84,-14.78,-3.09,1.54,-0.82,-0.32,949.92
3.38,-0.01,-0.76,-0.72,4.84,-14.78,-3.09,1.54,-0.82,-0.32,949.92
3.384,-0.01,-0.76,-0.72,5.54,-15.47,-6.94,1.54,-0.82,-0.32,949.92
3.387,-0.01,-0.76,-0.72,5.54,-15.47,-6.94,0.33,-0.79,-0.27,949.92
3.422,-0.01,-0.76,-0.72,5.54,-15.47,-6.94,0.33,-0.79,-0.27,949.97
3.444,-1.43,-0.15,0.02,5.54,-15.47,-6.94,0.33,-0.79,-0.27,949.97
3.446,-1.43,-0.15,0.02,-7.79,-9.06,0.26,0.33,-0.79,-0.27,949.97
3.449,-1.43,-0.15,0.02,-7.79,-9.06,0.26,-1.93,0.75,-1.19,949.97
3.508,-1.43,-0.15,0.02,-6.62,-7.93,0.08,-1.93,0.75,-1.19,949.97
3.514,-1.43,-0.15,0.02,-6.62,-7.93,0.08,-4.3,1.84,-1.82,949.97
3.519,-1.87,0.65,0.29,-6.62,-7.93,0.08,-4.3,1.84,-1.82,949.97
3.528,-1.87,0.65,0.29,-6.62,-7.93,0.08,-4.3,1.84,-1.82,949.93
3.569,-1.55,1.28,0.8,-6.62,-7.93,0.08,-4.3,1.84,-1.82,949.93
3.571,-1.55,1.28,0.8,-7.1,7.06,7.67,-4.3,1.84,-1.82,949.93
3.572,-1.55,1.28,0.8,-7.1,7.06,7.67,-0.9,2.64,-1.51,949.93
3.633,-0.97,1.3,0.26,-7.1,7.06,7.67,-0.9,2.64,-1.51,949.93
3.635,-0.97,1.3,0.26,-0.86,8.2,3.36,-0.9,2.64,-1.51,949.93
3.636,-0.97,1.3,0.26,-0.86,8.2,3.36,-1.5,2.43,-1.94,949.93
3.638,-0.97,1.3,0.26,-0.86,8.2,3.36,-1.5,2.43,-1.94,949.9
3.698,-0.33,0.78,0.33,-0.86,8.2,3.36,-1.5,2.43,-1.94,949.9
3.7,-0.33,0.78,0.33,5.62,3.66,4.65,-1.5,2.43,-1.94,949.9
3.702,-0.33,0.78,0.33,5.62,3.66,4.65,-1.26,1.23,-0.96,949.9
3.751,-0.33,0.78,0.33,5.62,3.66,4.65,-1.26,1.23,-0.96,949.91
3.766,0.22,0.8,0.31,5.62,3.66,4.65,-1.26,1.23,-0.96,949.91
3.769,0.22,0.8,0.31,10.93,3.67,4.42,-1.26,1.23,-0.96,949.91
3.776,0.22,0.8,0.31,10.93,3.67,4.42,-0.72,0.53,-0.05,949.91
3.823,-0.61,1.23,0.72,10.93,3.67,4.42,-0.72,0.53,-0.05,949.91
3.825,-0.61,1.23,0.72,2.23,6.7,7.74,-0.72,0.53,-0.05,949.91
3.826,-0.61,1.23,0.72,2.23,6.7,7.74,-0.3,-1.31,1.66,949.91
3.843,-0.61,1.23,0.72,2.23,6.7,7.74,-0.3,-1.31,1.66,949.93
3.886,-0.94,1.53,0.83,2.23,6.7,7.74,-0.3,-1.31,1.66,949.93
3.888,-0.94,1.53,0.83,-1.94,8.4,8.04,-0.3,-1.31,1.66,949.93
3.889,-0.94,1.53,0.83,-1.94,8.4,8.04,1.85,-2.53,2.77,949.93
3.95,-3.01,1.08,0.55,-1.94,8.4,8.04,1.85,-2.53,2.77,949.93
3.952,-3.01,1.08,0.55,-1.94,8.4,8.04,4.63,-1.75,2.51,949.93
3.955,-3.01,1.08,0.55,-23.12,3.19,5.86,4.63,-1.75,2.51,949.93
3.958,-3.01,1.08,0.55,-23.12,3.19,5.86,4.63,-1.75,2.51,949.91
4.015,-0.78,-0.25,-0.22,-23.12,3.19,5.86,4.63,-1.75,2.51,949.91
4.019,-0.78,-0.25,-0.22,-2.29,-10.5,-0.79,4.63,-1.75,2.51,949.91
4.021,-0.78,-0.25,-0.22,-2.29,-10.5,-0.79,2.39,-1.98,1.64,949.91
4.069,-0.78,-0.25,-0.22,-2.29,-10.5,-0.79,2.39,-1.98,1.64,949.91
4.082,-0.24,-0.38,-0.21,-2.29,-10.5,-0.79,2.39,-1.98,1.64,949.91
4.084,-0.24,-0.38,-0.21,3.09,-11.68,-0.29,2.39,-1.98,1.64,949.91
4.088,-0.24,-0.38,-0.21,3.09,-11.68,-0.29,0.82,-1.28,0.11,949.91
4.142,-0.05,-0.77,-0.23,3.09,-11.68,-0.29,0.82,-1.28,0.11,949.91
4.144,-0.05,-0.77,-0.23,5.1,-15.4,-0.71,0.82,-1.28,0.11,949.91
4.146,-0.05,-0.77,-0.23,5.1,-15.4,-0.71,0.45,-1.33,0.22,949.91
4.165,-0.05,-0.77,-0.23,5.1,-15.4,-0.71,0.45,-1.33,0.22,949.96
4.203,-0.4,-0.54,-0.52,5.1,-15.4,-0.71,0.45,-1.33,0.22,949.96
4.206,-0.4,-0.54,-0.52,5.1,-15.4,-0.71,-0.62,0.25,-1.11,949.96
4.207,-0.4,-0.54,-0.52,1.84,-13.1,-3.66,-0.62,0.25,-1.11,949.96
4.268,-1.35,0.49,-0.62,1.84,-13.1,-3.66,-0.62,0.25,-1.11,949.96
4.269,-1.35,0.49,-0.62,-6.79,-2.49,-4.99,-0.62,0.25,-1.11,949.96
4.271,-1.35,0.49,-0.62,-6.79,-2.49,-4.99,-2.51,0.47,-1.23,949.96
4.272,-1.35,0.49,-0.62,-6.79,-2.49,-4.99,-2.51,0.47,-1.23,949.93
4.331,-2.5,1.35,0.91,-6.79,-2.49,-4.99,-2.51,0.47,-1.23,949.93
4.334,-2.5,1.35,0.91,-17.14,6.75,9.28,-2.51,0.47,-1.23,949.93
4.335,-2.5,1.35,0.91,-17.14,6.75,9.28,-2.49,1.54,-1.29,949.93
4.371,-2.5,1.35,0.91,-17.14,6.75,9.28,-2.49,1.54,-1.29,949.92
4.393,-0.57,1.02,0.29,-17.14,6.75,9.28,-2.49,1.54,-1.29,949.92
4.395,-0.57,1.02,0.29,2.1,3.96,2.98,-2.49,1.54,-1.29,949.92
4.398,-0.57,1.02,0.29,2.1,3.96,2.98,-2.31,2.13,-1.34,949.92
4.458,-0.56,1.02,0.24,2.1,3.96,2.98,-2.31,2.13,-1.34,949.92
4.459,-0.56,1.02,0.24,2.76,4.65,3.07,-2.31,2.13,-1.34,949.92
4.461,-0.56,1.02,0.24,2.76,4.65,3.07,-1.4,1.94,-1.22,949.92
4.477,-0.56,1.02,0.24,2.76,4.65,3.07,-1.4,1.94,-1.22,949.93
4.52,0.07,0.81,0.5,2.76,4.65,3.07,-1.4,1.94,-1.22,949.93
4.522,0.07,0.81,0.5,2.91,4.9,3.16,-1.4,1.94,-1.22,949.93
4.524,0.07,0.81,0.5,2.91,4.9,3.16,-1.2,0.59,-0.05,949.93
4.582,-0.27,1.18,0.59,2.91,4.9,3.16,-1.2,0.59,-0.05,949.93
4.584,-0.27,1.18,0.59,2.91,4.9,3.16,-0.4,-0.71,1.03,949.93
4.585,-0.27,1.18,0.59,5.23,5.67,5.82,-0.4,-0.71,1.03,949.93
4.587,-0.27,1.18,0.59,5.23,5.67,5.82,-0.4,-0.71,1.03,950.0
4.647,-0.83,1.11,1.08,5.23,5.67,5.82,-0.4,-0.71,1.03,950.0
4.65,-0.83,1.11,1.08,5.23,5.67,5.82,1.9,-2.42,2.71,950.0
4.652,-0.83,1.11,1.08,-1.19,4.02,9.8,1.9,-2.42,2.71,950.0
4.687,-0.83,1.11,1.08,-1.19,4.02,9.8,1.9,-2.42,2.71,949.96
4.71,-0.83,1.11,1.08,-2.05,3.2,10.45,1.9,-2.42,2.71,949.96
4.716,-0.83,1.11,1.08,-2.05,3.2,10.45,5.17,-0.96,1.37,949.96
4.719,-3.16,1.23,1.25,-2.05,3.2,10.45,5.17,-0.96,1.37,949.96
4.772,-3.16,1.23,1.25,-25.56,3.96,13.71,5.17,-0.96,1.37,949.96
4.775,-3.16,1.23,1.25,-25.56,3.96,13.71,2.67,-2.17,1.51,949.96
4.776,-1.21,0.11,-0.07,-25.56,3.96,13.71,2.67,-2.17,1.51,949.96
4.792,-1.21,0.11,-0.07,-25.56,3.96,13.71,2.67,-2.17,1.51,949.94
4.842,-1.21,0.11,-0.07,-6.58,-6.92,1.33,2.67,-2.17,1.51,949.94
4.845,-1.21,0.11,-0.07,-6.58,-6.92,1.33,1.88,-1.04,-0.12,949.94
4.846,-0.37,-0.28,-0.08,-6.58,-6.92,1.33,1.88,-1.04,-0.12,949.94
4.9,-0.11,-0.73,-0.09,-6.58,-6.92,1.33,1.88,-1.04,-0.12,949.94
4.902,-0.11,-0.73,-0.09,2.17,-10.39,1.32,1.88,-1.04,-0.12,949.94
4.903,-0.11,-0.73,-0.09,2.17,-10.39,1.32,0.91,-1.49,-0.05,949.94
4.904,-0.11,-0.73,-0.09,2.17,-10.39,1.32,0.91,-1.49,-0.05,949.95
4.962,0.06,-0.81,-0.77,2.17,-10.39,1.32,0.91,-1.49,-0.05,949.95
4.968,0.06,-0.81,-0.77,6.6,-15.36,-5.4,0.91,-1.49,-0.05,949.95
4.97,0.06,-0.81,-0.77,6.6,-15.36,-5.4,0.49,-0.03,-0.87,949.95
5.002,0.06,-0.81,-0.77,6.6,-15.36,-5.4,0.49,-0.03,-0.87,949.97
5.024,-1.56,-0.03,-0.4,6.6,-15.36,-5.4,0.49,-0.03,-0.87,949.97
5.026,-1.56,-0.03,-0.4,-8.49,-7.0,-1.63,0.49,-0.03,-0.87,949.97
5.028,-1.56,-0.03,-0.4,-8.49,-7.0,-1.63,-1.71,0.81,-1.0,949.97
5.087,-2.98,0.59,0.82,-8.49,-7.0,-1.63,-1.71,0.81,-1.0,949.97
5.09,-2.98,0.59,0.82,-21.7,-0.33,9.63,-1.71,0.81,-1.0,949.97
5.091,-2.98,0.59,0.82,-21.7,-0.33,9.63,-5.8,1.78,-2.4,949.97
5.107,-2.98,0.59,0.82,-21.7,-0.33,9.63,-5.8,1.78,-2.4,949.95
5.151,-1.08,0.94,0.44,-21.7,-0.33,9.63,-5.8,1.78,-2.4,949.95
5.155,-1.08,0.94,0.44,-21.7,-0.33,9.63,-1.6,2.06,-1.48,949.95
5.158,-1.08,0.94,0.44,-2.55,3.67,5.27,-1.6,2.06,-1.48,949.95
5.213,-0.81,1.06,0.22,-2.55,3.67,5.27,-1.6,2.06,-1.48,949.95
5.215,-0.81,1.06,0.22,0.49,5.62,3.81,-1.6,2.06,-1.48,949.95
5.216,-0.81,1.06,0.22,0.49,5.62,3.81,-1.88,1.82,-1.94,949.95
5.217,-0.81,1.06,0.22,0.49,5.62,3.81,-1.88,1.82,-1.94,949.94
5.278,-0.13,0.86,0.49,0.49,5.62,3.81,-1.88,1.82,-1.94,949.94
5.282,-0.13,0.86,0.49,7.44,4.19,6.57,-1.88,1.82,-1.94,949.94
5.284,-0.13,0.86,0.49,7.44,4.19,6.57,-1.5,0.7,-0.79,949.94
5.317,-0.13,0.86,0.49,7.44,4.19,6.57,-1.5,0.7,-0.79,950.02
5.339,0.02,1.28,0.35,7.44,4.19,6.57,-1.5,0.7,-0.79,950.02
5.34,0.02,1.28,0.35,8.74,7.86,4.77,-1.5,0.7,-0.79,950.02
5.342,0.02,1.28,0.35,8.74,7.86,4.77,-0.37,-0.15,0.55,950.02
5.403,-1.19,1.25,1.04,8.74,7.86,4.77,-0.37,-0.15,0.55,950.02
5.406,-1.19,1.25,1.04,-3.61,6.73,10.81,-0.37,-0.15,0.55,950.02
5.407,-1.19,1.25,1.04,-3.61,6.73,10.81,0.63,-1.78,2.69,950.02
5.422,-1.19,1.25,1.04,-3.61,6.73,10.81,0.63,-1.78,2.69,949.98
5.466,-1.59,1.28,1.33,-3.61,6.73,10.81,0.63,-1.78,2.69,949.98
5.469,-1.59,1.28,1.33,-8.68,5.62,13.15,0.63,-1.78,2.69,949.98
5.471,-1.59,1.28,1.33,-8.68,5.62,13.15,1.45,-2.3,2.1,949.98
5.531,-2.48,0.85,0.2,-8.68,5.62,13.15,1.45,-2.3,2.1,949.98
5.533,-2.48,0.85,0.2,-18.15,0.82,3.22,1.45,-2.3,2.1,949.98
5.534,-2.48,0.85,0.2,-18.15,0.82,3.22,4.53,-1.31,2.29,949.98
5.536,-2.48,0.85,0.2,-18.15,0.82,3.22,4.53,-1.31,2.29,949.97
5.594,-0.73,-0.31,-0.49,-18.15,0.82,3.22,4.53,-1.31,2.29,949.97
5.595,-0.73,-0.31,-0.49,-1.84,-10.95,-2.69,4.53,-1.31,2.29,949.97
5.596,-0.73,-0.31,-0.49,-1.84,-10.95,-2.69,0.8,-2.02,1.39,949.97
5.635,-0.73,-0.31,-0.49,-1.84,-10.95,-2.69,0.8,-2.02,1.39,949.97
5.661,-0.18,-0.69,-0.16,-1.84,-10.95,-2.69,0.8,-2.02,1.39,949.97
5.663,-0.18,-0.69,-0.16,3.69,-14.67,0.06,0.8,-2.02,1.39,949.97
5.665,-0.18,-0.69,-0.16,3.69,-14.67,0.06,0.1,-1.07,0.54,949.97
5.719,-0.14,-0.82,-0.62,3.69,-14.67,0.06,0.1,-1.07,0.54,949.97
5.723,-0.14,-0.82,-0.62,3.69,-14.67,0.06,-0.62,-0.9,0.14,949.97
5.724,-0.14,-0.82,-0.62,4.06,-16.15,-4.74,-0.62,-0.9,0.14,949.97
5.739,-0.14,-0.82,-0.62,4.06,-16.15,-4.74,-0.62,-0.9,0.14,950.01
5.781,-0.14,-0.82,-0.62,4.75,-15.67,-4.94,-0.62,-0.9,0.14,950.01
5.785,-0.14,-0.82,-0.62,4.75,-15.67,-4.94,-1.37,1.45,-0.8,950.01
5.786,-1.44,-0.24,0.34,4.75,-15.67,-4.94,-1.37,1.45,-0.8,950.01
5.846,-1.64,0.68,-0.13,4.75,-15.67,-4.94,-1.37,1.45,-0.8,950.01
5.848,-1.64,0.68,-0.13,-8.9,0.03,0.09,-1.37,1.45,-0.8,950.01
5.85,-1.64,0.68,-0.13,-8.9,0.03,0.09,-3.88,1.46,-1.33,950.01
5.852,-1.64,0.68,-0.13,-8.9,0.03,0.09,-3.88,1.46,-1.33,949.97
5.909,-1.64,0.68,-0.13,-8.51,0.34,-0.97,-3.88,1.46,-1.33,949.97
5.912,-1.64,0.68,-0.13,-8.51,0.34,-0.97,-3.46,1.24,-0.74,949.97
5.913,-1.2,0.9,0.94,-8.51,0.34,-0.97,-3.46,1.24,-0.74,949.97
5.95,-1.2,0.9,0.94,-8.51,0.34,-0.97,-3.46,1.24,-0.74,949.94
5.972,-0.75,1.03,0.63,-8.51,0.34,-0.97,-3.46,1.24,-0.74,949.94
5.974,-0.75,1.03,0.63,0.51,4.26,6.29,-3.46,1.24,-0.74,949.94
5.975,-0.75,1.03,0.63,0.51,4.26,6.29,-2.3,2.65,-1.43,949.94
6.035,-0.12,0.91,1.13,0.51,4.26,6.29,-2.3,2.65,-1.43,949.94
6.036,-0.12,0.91,1.13,0.51,4.26,6.29,-4.67,-1.21,-0.22,949.94
6.038,-0.12,0.91,1.13,7.04,3.67,10.4,-4.67,-1.21,-0.22,949.94
6.059,-0.12,0.91,1.13,7.04,3.67,10.4,-4.67,-1.21,-0.22,949.97
6.098,-0.12,0.91,1.13,6.96,3.83,9.18,-4.67,-1.21,-0.22,949.97
6.101,-0.12,0.91,1.13,6.96,3.83,9.18,0.08,-0.66,0.35,949.97
6.102,0.27,1.08,0.83,6.96,3.83,9.18,0.08,-0.66,0.35,949.97
6.163,-0.23,0.67,1.31,6.96,3.83,9.18,0.08,-0.66,0.35,949.97
6.167,-0.23,0.67,1.31,5.5,1.1,10.24,0.08,-0.66,0.35,949.97
6.169,-0.23,0.67,1.31,5.5,1.1,10.24,1.1,-2.57,0.9,949.97
6.171,-0.23,0.67,1.31,5.5,1.1,10.24,1.1,-2.57,0.9,949.99
6.226,-0.76,1.02,1.22,5.5,1.1,10.24,1.1,-2.57,0.9,949.99
6.23,-0.76,1.02,1.22,-0.5,3.73,9.1,1.1,-2.57,0.9,949.99
6.232,-0.76,1.02,1.22,-0.5,3.73,9.1,3.01,-2.3,0.93,949.99
6.267,-0.76,1.02,1.22,-0.5,3.73,9.1,3.01,-2.3,0.93,949.98
6.288,-1.71,0.56,1.78,-0.5,3.73,9.1,3.01,-2.3,0.93,949.98
6.29,-1.71,0.56,1.78,-10.35,-1.36,14.75,3.01,-2.3,0.93,949.98
6.292,-1.71,0.56,1.78,-10.35,-1.36,14.75,3.26,-2.72,-0.08,949.98
6.361,-1.71,0.56,1.78,-10.66,-1.8,15.26,3.26,-2.72,-0.08,949.98
6.364,-1.71,0.56,1.78,-10.66,-1.8,15.26,2.26,-1.98,-0.2,949.98
6.368,-1.0,0.38,-0.01,-10.66,-1.8,15.26,2.26,-1.98,-0.2,949.98
6.386,-1.0,0.38,-0.01,-10.66,-1.8,15.26,2.26,-1.98,-0.2,949.94
6.415,-1.0,0.38,-0.01,-3.74,-3.53,-2.52,2.26,-1.98,-0.2,949.94
6.42,-1.0,0.38,-0.01,-3.74,-3.53,-2.52,0.12,-1.39,-0.31,949.94
6.423,-0.32,-0.18,-0.32,-3.74,-3.53,-2.52,0.12,-1.39,-0.31,949.94
6.479,-0.32,-0.18,-0.32,2.96,-8.98,-5.73,0.12,-1.39,-0.31,949.94
6.482,-0.32,-0.18,-0.32,2.96,-8.98,-5.73,0.12,-1.39,-0.31,949.95
6.483,-0.32,-0.18,-0.32,2.96,-8.98,-5.73,0.76,-0.19,-0.43,949.95
6.484,-0.17,-0.59,-0.41,2.96,-8.98,-5.73,0.76,-0.19,-0.43,949.95
6.544,-0.83,-0.69,-0.39,2.96,-8.98,-5.73,0.76,-0.19,-0.43,949.95
6.545,-0.83,-0.69,-0.39,4.83,-12.78,-6.19,0.76,-0.19,-0.43,949.95
6.546,-0.83,-0.69,-0.39,4.83,-12.78,-6.19,-0.44,1.76,-0.89,949.95
6.585,-0.83,-0.69,-0.39,4.83,-12.78,-6.19,-0.44,1.76,-0.89,949.98
6.607,-1.85,-0.08,0.38,4.83,-12.78,-6.19,-0.44,1.76,-0.89,949.98
6.609,-1.85,-0.08,0.38,-10.27,-6.46,2.59,-0.44,1.76,-0.89,949.98
6.611,-1.85,-0.08,0.38,-10.27,-6.46,2.59,-2.03,3.71,-1.55,949.98
6.668,-2.25,0.85,1.58,-10.27,-6.46,2.59,-2.03,3.71,-1.55,949.98
6.671,-2.25,0.85,1.58,-13.39,3.74,15.16,-2.03,3.71,-1.55,949.98
6.672,-2.25,0.85,1.58,-13.39,3.74,15.16,-3.11,2.73,-1.83,949.98
6.688,-2.25,0.85,1.58,-13.39,3.74,15.16,-3.11,2.73,-1.83,949.95
6.73,-0.96,1.24,0.89,-13.39,3.74,15.16,-3.11,2.73,-1.83,949.95
6.733,-0.96,1.24,0.89,-0.31,8.47,9.41,-3.11,2.73,-1.83,949.95
6.734,-0.96,1.24,0.89,-0.31,8.47,9.41,-1.36,3.9,-2.13,949.95
6.796,-0.59,1.27,0.93,-0.31,8.47,9.41,-1.36,3.9,-2.13,949.95
6.799,-0.59,1.27,0.93,3.4,9.72,11.06,-1.36,3.9,-2.13,949.95
6.801,-0.59,1.27,0.93,3.4,9.72,11.06,-2.99,0.96,-0.91,949.95
6.803,-0.59,1.27,0.93,3.4,9.72,11.06,-2.99,0.96,-0.91,949.97
6.861,-0.59,1.27,0.93,3.39,9.78,11.17,-2.99,0.96,-0.91,949.97
6.864,-0.59,1.27,0.93,3.39,9.78,11.17,0.6,0.96,0.22,949.97
6.866,0.25,1.19,0.81,3.39,9.78,11.17,0.6,0.96,0.22,949.97
6.898,0.25,1.19,0.81,3.39,9.78,11.17,0.6,0.96,0.22,950.01
6.921,-0.42,1.24,0.84,3.39,9.78,11.17,0.6,0.96,0.22,950.01
6.923,-0.42,1.24,0.84,11.5,8.64,10.19,0.6,0.96,0.22,950.01
6.924,-0.42,1.24,0.84,11.5,8.64,10.19,0.48,-1.38,2.01,950.01
6.983,-1.1,1.06,0.86,11.5,8.64,10.19,0.48,-1.38,2.01,950.01
6.986,-1.1,1.06,0.86,-2.04,6.15,9.97,0.48,-1.38,2.01,950.01
6.987,-1.1,1.06,0.86,-2.04,6.15,9.97,2.81,-2.71,3.38,950.01
7.005,-1.1,1.06,0.86,-2.04,6.15,9.97,2.81,-2.71,3.38,949.98
7.046,-3.25,1.02,1.95,-2.04,6.15,9.97,2.81,-2.71,3.38,949.98
7.048,-3.25,1.02,1.95,-23.72,4.62,20.39,2.81,-2.71,3.38,949.98
7.049,-3.25,1.02,1.95,-23.72,4.62,20.39,4.02,-1.83,2.13,949.98
7.112,-1.51,-0.14,-0.27,-23.72,4.62,20.39,4.02,-1.83,2.13,949.98
7.116,-1.51,-0.14,-0.27,-23.72,4.62,20.39,3.8,-1.49,1.82,949.98
7.119,-1.51,-0.14,-0.27,-23.72,4.62,20.39,3.8,-1.49,1.82,949.93
7.12,-1.51,-0.14,-0.27,-7.28,-7.41,-0.7,3.8,-1.49,1.82,949.93
7.177,-0.15,-0.48,-0.21,-7.28,-7.41,-0.7,3.8,-1.49,1.82,949.93
7.18,-0.15,-0.48,-0.21,5.74,-10.92,0.27,3.8,-1.49,1.82,949.93
7.185,-0.15,-0.48,-0.21,5.74,-10.92,0.27,0.81,-0.97,0.3,949.93
7.215,-0.15,-0.48,-0.21,5.74,-10.92,0.27,0.81,-0.97,0.3,949.93
7.237,-0.07,-0.82,-0.14,5.74,-10.92,0.27,0.81,-0.97,0.3,949.93
7.238,-0.07,-0.82,-0.14,5.74,-10.92,0.27,1.03,-0.52,-0.25,949.93
7.239,-0.07,-0.82,-0.14,6.9,-13.97,0.76,1.03,-0.52,-0.25,949.93
7.301,-0.15,-0.83,-0.59,6.9,-13.97,0.76,1.03,-0.52,-0.25,949.93
7.302,-0.15,-0.83,-0.59,7.12,-13.61,0.93,1.03,-0.52,-0.25,949.93
7.303,-0.15,-0.83,-0.59,7.12,-13.61,0.93,-0.22,0.35,-1.42,949.93
7.321,-0.15,-0.83,-0.59,7.12,-13.61,0.93,-0.22,0.35,-1.42,949.94
7.364,-1.44,-0.09,-0.36,7.12,-13.61,0.93,-0.22,0.35,-1.42,949.94
7.366,-1.44,-0.09,-0.36,-5.55,-4.92,-0.8,-0.22,0.35,-1.42,949.94
7.369,-1.44,-0.09,-0.36,-5.55,-4.92,-0.8,-1.67,0.68,-1.91,949.94
7.429,-3.1,0.85,1.71,-5.55,-4.92,-0.8,-1.67,0.68,-1.91,949.94
7.431,-3.1,0.85,1.71,-21.35,5.6,19.44,-1.67,0.68,-1.91,949.94
7.432,-3.1,0.85,1.71,-21.35,5.6,19.44,-4.04,2.3,-3.17,949.94
7.433,-3.1,0.85,1.71,-21.35,5.6,19.44,-4.04,2.3,-3.17,949.93
7.492,-3.1,0.85,1.71,-21.39,6.59,20.24,-4.04,2.3,-3.17,949.93
7.494,-3.1,0.85,1.71,-21.39,6.59,20.24,-2.22,1.47,-2.21,949.93
7.495,-1.32,1.42,0.17,-21.39,6.59,20.24,-2.22,1.47,-2.21,949.93
7.533,-1.32,1.42,0.17,-21.39,6.59,20.24,-2.22,1.47,-2.21,949.93
7.554,-1.32,1.42,0.17,-4.04,12.62,5.62,-2.22,1.47,-2.21,949.93
7.556,-1.32,1.42,0.17,-4.04,12.62,5.62,-2.13,1.52,-1.5,949.93
7.557,-0.64,1.13,0.85,-4.04,12.62,5.62,-2.13,1.52,-1.5,949.93
7.617,-0.11,1.38,0.48,-4.04,12.62,5.62,-2.13,1.52,-1.5,949.93
7.619,-0.11,1.38,0.48,-4.04,12.62,5.62,-0.71,0.48,-0.35,949.93
7.62,-0.11,1.38,0.48,7.55,12.55,9.33,-0.71,0.48,-0.35,949.93
7.638,-0.11,1.38,0.48,7.55,12.55,9.33,-0.71,0.48,-0.35,949.95
7.682,-0.25,1.28,0.7,7.55,12.55,9.33,-0.71,0.48,-0.35,949.95
7.683,-0.25,1.28,0.7,6.18,11.14,11.43,-0.71,0.48,-0.35,949.95
7.685,-0.25,1.28,0.7,6.18,11.14,11.43,-0.11,-0.89,1.61,949.95
7.745,-0.25,1.28,0.7,6.28,9.94,10.63,-0.11,-0.89,1.61,949.95
7.747,-0.25,1.28,0.7,6.28,9.94,10.63,-0.11,-0.89,1.61,949.97
7.747,-0.25,1.28,0.7,6.28,9.94,10.63,1.57,-2.76,3.56,949.97
7.748,-1.2,0.99,0.88,6.28,9.94,10.63,1.57,-2.76,3.56,949.97
7.807,-3.1,1.26,2.54,6.28,9.94,10.63,1.57,-2.76,3.56,949.97
7.808,-3.1,1.26,2.54,-21.71,8.51,27.42,1.57,-2.76,3.56,949.97
7.81,-3.1,1.26,2.54,-21.71,8.51,27.42,3.67,-1.03,1.81,949.97
7.848,-3.1,1.26,2.54,-21.71,8.51,27.42,3.67,-1.03,1.81,949.96
7.87,-3.1,1.26,2.54,-22.0,8.26,27.95,3.67,-1.03,1.81,949.96
7.872,-3.1,1.26,2.54,-22.0,8.26,27.95,4.04,-2.24,2.45,949.96
7.873,-1.94,0.08,-0.08,-22.0,8.26,27.95,4.04,-2.24,2.45,949.96
7.934,-0.28,-0.61,-0.17,-22.0,8.26,27.95,4.04,-2.24,2.45,949.96
7.935,-0.28,-0.61,-0.17,5.49,-10.47,1.17,4.04,-2.24,2.45,949.96
7.936,-0.28,-0.61,-0.17,5.49,-10.47,1.17,1.77,-1.44,0.72,949.96
7.956,-0.28,-0.61,-0.17,5.49,-10.47,1.17,1.77,-1.44,0.72,949.95
7.997,-0.02,-0.84,-0.26,5.49,-10.47,1.17,1.77,-1.44,0.72,949.95
7.998,-0.02,-0.84,-0.26,8.39,-12.43,-0.1,1.77,-1.44,0.72,949.95
7.999,-0.02,-0.84,-0.26,8.39,-12.43,-0.1,0.99,-0.92,0.08,949.95
8.062,-0.02,-0.84,-0.26,8.53,-12.28,-0.34,0.99,-0.92,0.08,949.95
8.064,-0.02,-0.84,-0.26,8.53,-12.28,-0.34,0.99,-0.92,0.08,949.97
8.064,-0.02,-0.84,-0.26,8.53,-12.28,-0.34,-0.19,-0.42,-0.58,949.97
8.065,0.18,-0.89,-0.67,8.53,-12.28,-0.34,-0.19,-0.42,-0.58,949.97
8.124,-1.24,-0.39,-0.1,8.53,-12.28,-0.34,-0.19,-0.42,-0.58,949.97
8.125,-1.24,-0.39,-0.1,-2.95,-6.08,1.73,-0.19,-0.42,-0.58,949.97
8.126,-1.24,-0.39,-0.1,-2.95,-6.08,1.73,-1.91,0.3,-1.6,949.97
8.164,-1.24,-0.39,-0.1,-2.95,-6.08,1.73,-1.91,0.3,-1.6,949.94
8.186,-2.95,0.63,0.81,-2.95,-6.08,1.73,-1.91,0.3,-1.6,949.94
8.188,-2.95,0.63,0.81,-19.62,5.43,10.86,-1.91,0.3,-1.6,949.94
8.189,-2.95,0.63,0.81,-19.62,5.43,10.86,-5.03,1.84,-3.78,949.94
8.25,-1.66,1.31,0.95,-19.62,5.43,10.86,-5.03,1.84,-3.78,949.94
8.252,-1.66,1.31,0.95,-7.17,12.95,13.0,-5.03,1.84,-3.78,949.94
8.253,-1.66,1.31,0.95,-7.17,12.95,13.0,-2.1,1.31,-1.95,949.94
8.269,-1.66,1.31,0.95,-7.17,12.95,13.0,-2.1,1.31,-1.95,949.93
8.314,-1.03,1.39,0.62,-7.17,12.95,13.0,-2.1,1.31,-1.95,949.93
8.316,-1.03,1.39,0.62,-7.61,13.62,13.87,-2.1,1.31,-1.95,949.93
8.317,-1.03,1.39,0.62,-7.61,13.62,13.87,-2.05,1.75,-2.04,949.93
8.377,-0.19,1.27,0.26,-7.61,13.62,13.87,-2.05,1.75,-2.04,949.93
8.379,-0.19,1.27,0.26,6.24,13.33,7.89,-2.05,1.75,-2.04,949.93
8.38,-0.19,1.27,0.26,6.24,13.33,7.89,-1.76,0.12,-0.49,949.93
8.381,-0.19,1.27,0.26,6.24,13.33,7.89,-1.76,0.12,-0.49,949.97
8.441,-0.19,1.27,0.26,6.27,12.82,7.9,-1.76,0.12,-0.49,949.97
8.443,-0.19,1.27,0.26,6.27,12.82,7.9,0.12,-0.04,1.03,949.97
8.444,0.16,1.18,0.57,6.27,12.82,7.9,0.12,-0.04,1.03,949.97
8.482,0.16,1.18,0.57,6.27,12.82,7.9,0.12,-0.04,1.03,949.99
8.503,-1.04,0.99,1.12,6.27,12.82,7.9,0.12,-0.04,1.03,949.99
8.505,-1.04,0.99,1.12,-1.77,9.35,15.88,0.12,-0.04,1.03,949.99
8.506,-1.04,0.99,1.12,-1.77,9.35,15.88,1.07,-1.94,2.95,949.99
8.567,-2.31,1.52,1.64,-1.77,9.35,15.88,1.07,-1.94,2.95,949.99
8.568,-2.31,1.52,1.64,-13.83,13.58,20.12,1.07,-1.94,2.95,949.99
8.57,-2.31,1.52,1.64,-13.83,13.58,20.12,3.3,-1.28,2.05,949.99
8.589,-2.31,1.52,1.64,-13.83,13.58,20.12,3.3,-1.28,2.05,949.97
8.63,-2.16,0.44,0.39,-13.83,13.58,20.12,3.3,-1.28,2.05,949.97
8.631,-2.16,0.44,0.39,-12.21,2.68,7.48,3.3,-1.28,2.05,949.97
8.632,-2.16,0.44,0.39,-12.21,2.68,7.48,4.32,-1.55,2.42,949.97
8.693,-2.16,0.44,0.39,-12.14,2.37,7.16,4.32,-1.55,2.42,949.97
8.695,-2.16,0.44,0.39,-12.14,2.37,7.16,1.41,-1.27,0.9,949.97
8.696,-2.16,0.44,0.39,-12.14,2.37,7.16,1.41,-1.27,0.9,949.97
8.697,-0.47,-0.45,-0.17,-12.14,2.37,7.16,1.41,-1.27,0.9,949.97
8.759,-0.07,-0.76,-0.05,-12.14,2.37,7.16,1.41,-1.27,0.9,949.97
8.76,-0.07,-0.76,-0.05,8.62,-9.27,2.08,1.41,-1.27,0.9,949.97
8.761,-0.07,-0.76,-0.05,8.62,-9.27,2.08,1.09,-0.88,-0.31,949.97
8.796,-0.07,-0.76,-0.05,8.62,-9.27,2.08,1.09,-0.88,-0.31,950.02
8.818,0.09,-1.07,-0.44,8.62,-9.27,2.08,1.09,-0.88,-0.31,950.02
8.82,0.09,-1.07,-0.44,8.62,-9.27,2.08,0.32,-0.84,-0.8,950.02
8.82,0.09,-1.07,-0.44,10.32,-11.92,-2.16,0.32,-0.84,-0.8,950.02
8.882,-1.36,-0.4,-0.35,10.32,-11.92,-2.16,0.32,-0.84,-0.8,950.02
8.883,-1.36,-0.4,-0.35,-3.83,-3.55,-1.06,0.32,-0.84,-0.8,950.02
8.884,-1.36,-0.4,-0.35,-3.83,-3.55,-1.06,-1.24,0.34,-2.29,950.02
8.904,-1.36,-0.4,-0.35,-3.83,-3.55,-1.06,-1.24,0.34,-2.29,950.0
8.944,-2.81,0.48,0.56,-3.83,-3.55,-1.06,-1.24,0.34,-2.29,950.0
8.946,-2.81,0.48,0.56,-18.3,6.41,8.36,-1.24,0.34,-2.29,950.0
8.947,-2.81,0.48,0.56,-18.3,6.41,8.36,-5.84,0.47,-3.07,950.0
9.008,-1.91,1.21,0.51,-18.3,6.41,8.36,-5.84,0.47,-3.07,950.0
9.01,-1.91,1.21,0.51,-10.13,14.07,9.16,-5.84,0.47,-3.07,950.0
9.011,-1.91,1.21,0.51,-10.13,14.07,9.16,-1.43,2.27,-1.37,950.0
9.012,-1.91,1.21,0.51,-10.13,14.07,9.16,-1.43,2.27,-1.37,949.96
9.073,-0.81,1.07,0.71,-10.13,14.07,9.16,-1.43,2.27,-1.37,949.96
9.075,-0.81,1.07,0.71,-0.04,12.75,12.35,-1.43,2.27,-1.37,949.96
9.077,-0.81,1.07,0.71,-0.04,12.75,12.35,-2.99,1.78,-1.7,949.96
9.112,-0.81,1.07,0.71,-0.04,12.75,12.35,-2.99,1.78,-1.7,949.95
9.135,-0.15,0.99,0.32,-0.04,12.75,12.35,-2.99,1.78,-1.7,949.95
9.138,-0.15,0.99,0.32,-0.04,12.75,12.35,-1.33,0.97,-0.48,949.95
9.139,-0.15,0.99,0.32,5.66,11.78,9.61,-1.33,0.97,-0.48,949.95
9.198,0.4,1.0,0.37,5.66,11.78,9.61,-1.33,0.97,-0.48,949.95
9.199,0.4,1.0,0.37,5.66,11.78,9.61,-0.73,0.17,0.81,949.95
9.2,0.4,1.0,0.37,11.09,10.79,10.25,-0.73,0.17,0.81,949.95
9.217,0.4,1.0,0.37,11.09,10.79,10.25,-0.73,0.17,0.81,950.0
9.26,-0.87,1.31,1.01,11.09,10.79,10.25,-0.73,0.17,0.81,950.0
9.262,-0.87,1.31,1.01,-0.92,12.08,16.11,-0.73,0.17,0.81,950.0
9.263,-0.87,1.31,1.01,-0.92,12.08,16.11,-0.24,-1.41,2.52,950.0
9.326,-1.42,1.29,1.49,-0.92,12.08,16.11,-0.24,-1.41,2.52,950.0
9.327,-1.42,1.29,1.49,-0.92,12.08,16.11,1.16,-2.75,2.59,950.0
9.328,-1.42,1.29,1.49,-5.81,10.57,19.76,1.16,-2.75,2.59,950.0
9.329,-1.42,1.29,1.49,-5.81,10.57,19.76,1.16,-2.75,2.59,949.98
9.388,-2.46,0.59,0.27,-5.81,10.57,19.76,1.16,-2.75,2.59,949.98
9.39,-2.46,0.59,0.27,-15.86,3.73,7.49,1.16,-2.75,2.59,949.98
9.391,-2.46,0.59,0.27,-15.86,3.73,7.49,5.25,-1.61,2.01,949.98
9.429,-2.46,0.59,0.27,-15.86,3.73,7.49,5.25,-1.61,2.01,949.97
9.451,-2.46,0.59,0.27,-15.67,3.94,7.24,5.25,-1.61,2.01,949.97
9.453,-2.46,0.59,0.27,-15.67,3.94,7.24,2.47,-1.22,0.72,949.97
9.454,-0.7,-0.54,-0.24,-15.67,3.94,7.24,2.47,-1.22,0.72,949.97
9.515,-0.19,-0.61,-0.09,-15.67,3.94,7.24,2.47,-1.22,0.72,949.97
9.516,-0.19,-0.61,-0.09,7.01,-7.24,3.05,2.47,-1.22,0.72,949.97
9.518,-0.19,-0.61,-0.09,7.01,-7.24,3.05,0.96,-1.3,-0.39,949.97
9.535,-0.19,-0.61,-0.09,7.01,-7.24,3.05,0.96,-1.3,-0.39,949.98
9.578,0.11,-0.91,-0.41,7.01,-7.24,3.05,0.96,-1.3,-0.39,949.98
9.58,0.11,-0.91,-0.41,10.35,-9.75,-0.78,0.96,-1.3,-0.39,949.98
9.581,0.11,-0.91,-0.41,10.35,-9.75,-0.78,0.68,-1.19,-0.69,949.98
9.643,-1.24,-0.33,-0.29,10.35,-9.75,-0.78,0.68,-1.19,-0.69,949.98
9.644,-1.24,-0.33,-0.29,-2.88,-3.19,0.24,0.68,-1.19,-0.69,949.98
9.646,-1.24,-0.33,-0.29,-2.88,-3.19,0.24,-0.97,0.38,-2.03,949.98
9.646,-1.24,-0.33,-0.29,-2.88,-3.19,0.24,-0.97,0.38,-2.03,950.0
9.706,-2.82,0.29,0.08,-2.88,-3.19,0.24,-0.97,0.38,-2.03,950.0
9.708,-2.82,0.29,0.08,-18.57,4.03,4.36,-0.97,0.38,-2.03,950.0
9.709,-2.82,0.29,0.08,-18.57,4.03,4.36,-4.08,1.34,-2.44,950.0
9.746,-2.82,0.29,0.08,-18.57,4.03,4.36,-4.08,1.34,-2.44,950.0
9.769,-2.19,0.85,0.58,-18.57,4.03,4.36,-4.08,1.34,-2.44,950.0
9.77,-2.19,0.85,0.58,-12.99,9.67,10.46,-4.08,1.34,-2.44,950.0
9.771,-2.19,0.85,0.58,-12.99,9.67,10.46,-3.4,2.06,-1.86,950.0
9.833,-1.08,1.14,0.84,-12.99,9.67,10.46,-3.4,2.06,-1.86,950.0
9.835,-1.08,1.14,0.84,-2.88,12.33,14.26,-3.4,2.06,-1.86,950.0
9.836,-1.08,1.14,0.84,-2.88,12.33,14.26,-2.75,2.15,-2.17,950.0
9.851,-1.08,1.14,0.84,-2.88,12.33,14.26,-2.75,2.15,-2.17,950.01
9.895,-0.42,1.18,0.46,-2.88,12.33,14.26,-2.75,2.15,-2.17,950.01
9.897,-0.42,1.18,0.46,2.7,12.8,11.5,-2.75,2.15,-2.17,950.01
9.898,-0.42,1.18,0.46,2.7,12.8,11.5,-1.31,0.94,-0.98,950.01
9.959,0.21,1.11,0.39,2.7,12.8,11.5,-1.31,0.94,-0.98,950.01
9.96,0.21,1.11,0.39,8.72,11.7,11.03,-1.31,0.94,-0.98,950.01
9.961,0.21,1.11,0.39,8.72,11.7,11.03,-0.66,0.16,0.55,950.01
9.962,0.21,1.11,0.39,8.72,11.7,11.03,-0.66,0.16,0.55,950.05
10.022,-0.9,1.29,0.73,8.72,11.7,11.03,-0.66,0.16,0.55,950.05
10.023,-0.9,1.29,0.73,8.72,11.7,11.03,-0.47,-1.72,2.49,950.05
10.024,-0.9,1.29,0.73,-2.01,12.82,14.21,-0.47,-1.72,2.49,950.05
10.065,-0.9,1.29,0.73,-2.01,12.82,14.21,-0.47,-1.72,2.49,950.03
10.086,-0.89,1.09,0.94,-2.01,12.82,14.21,-0.47,-1.72,2.49,950.03
10.088,-0.89,1.09,0.94,-0.97,9.47,15.09,-0.47,-1.72,2.49,950.03
10.091,-0.89,1.09,0.94,-0.97,9.47,15.09,0.69,-3.68,2.97,950.03
10.15,-2.93,0.54,1.16,-0.97,9.47,15.09,0.69,-3.68,2.97,950.03
10.152,-2.93,0.54,1.16,-20.35,3.8,16.26,0.69,-3.68,2.97,950.03
10.154,-2.93,0.54,1.16,-20.35,3.8,16.26,5.5,-1.63,1.66,950.03
10.171,-2.93,0.54,1.16,-20.35,3.8,16.26,5.5,-1.63,1.66,950.0
10.219,-1.16,-0.3,-0.4,-20.35,3.8,16.26,5.5,-1.63,1.66,950.0
10.223,-1.16,-0.3,-0.4,-20.1,4.42,15.96,5.5,-1.63,1.66,950.0
10.225,-1.16,-0.3,-0.4,-20.1,4.42,15.96,2.36,-1.26,1.28,950.0
10.278,-0.05,-0.61,-0.02,-20.1,4.42,15.96,2.36,-1.26,1.28,950.0
10.28,-0.05,-0.61,-0.02,8.45,-6.85,3.72,2.36,-1.26,1.28,950.0
10.282,-0.05,-0.61,-0.02,8.45,-6.85,3.72,0.76,-0.73,-0.02,950.0
10.283,-0.05,-0.61,-0.02,8.45,-6.85,3.72,0.76,-0.73,-0.02,950.0
10.34,0.1,-0.84,-0.3,8.45,-6.85,3.72,0.76,-0.73,-0.02,950.0
10.342,0.1,-0.84,-0.3,10.15,-8.86,0.49,0.76,-0.73,-0.02,950.0
10.344,0.1,-0.84,-0.3,10.15,-8.86,0.49,0.5,-0.95,-0.13,950.0
10.381,0.1,-0.84,-0.3,10.15,-8.86,0.49,0.5,-0.95,-0.13,950.05
10.404,-0.92,-0.47,-0.45,10.15,-8.86,0.49,0.5,-0.95,-0.13,950.05
10.409,-0.92,-0.47,-0.45,0.19,-4.69,-1.14,0.5,-0.95,-0.13,950.05
10.411,-0.92,-0.47,-0.45,0.19,-4.69,-1.14,-0.68,0.63,-1.63,950.05
10.468,-0.92,-0.47,-0.45,0.07,-3.88,-0.89,-0.68,0.63,-1.63,950.05
10.47,-0.92,-0.47,-0.45,0.07,-3.88,-0.89,-2.91,0.3,-1.13,950.05
10.472,-1.19,-0.04,-0.62,0.07,-3.88,-0.89,-2.91,0.3,-1.13,950.05
10.488,-1.19,-0.04,-0.62,0.07,-3.88,-0.89,-2.91,0.3,-1.13,950.0
10.53,-2.81,1.05,1.59,0.07,-3.88,-0.89,-2.91,0.3,-1.13,950.0
10.533,-2.81,1.05,1.59,-18.9,11.22,20.03,-2.91,0.3,-1.13,950.0
10.537,-2.81,1.05,1.59,-18.9,11.22,20.03,-2.8,1.24,-1.52,950.0
10.594,-0.87,1.23,0.31,-18.9,11.22,20.03,-2.8,1.24,-1.52,950.0
10.596,-0.87,1.23,0.31,-18.9,11.22,20.03,-1.54,1.91,-1.75,950.0
10.598,-0.87,1.23,0.31,-0.33,13.13,8.29,-1.54,1.91,-1.75,950.0
10.599,-0.87,1.23,0.31,-0.33,13.13,8.29,-1.54,1.91,-1.75,949.99
10.658,-0.87,1.23,0.31,-1.09,13.32,9.3,-1.54,1.91,-1.75,949.99
10.659,-0.87,1.23,0.31,-1.09,13.32,9.3,-1.48,1.39,-0.94,949.99
10.66,-0.63,1.13,0.43,-1.09,13.32,9.3,-1.48,1.39,-0.94,949.99
10.699,-0.63,1.13,0.43,-1.09,13.32,9.3,-1.48,1.39,-0.94,950.0
10.72,0.18,0.95,0.34,-1.09,13.32,9.3,-1.48,1.39,-0.94,950.0
10.721,0.18,0.95,0.34,8.93,10.17,9.97,-1.48,1.39,-0.94,950.0
10.723,0.18,0.95,0.34,8.93,10.17,9.97,-1.18,-0.01,0.52,950.0
10.79,0.18,0.95,0.34,9.26,8.37,9.59,-1.18,-0.01,0.52,950.0
10.793,-0.39,1.27,0.43,9.26,8.37,9.59,-1.18,-0.01,0.52,950.0
10.794,-0.39,1.27,0.43,9.26,8.37,9.59,-0.37,-0.85,1.74,950.0
10.803,-0.39,1.27,0.43,9.26,8.37,9.59,-0.37,-0.85,1.74,950.07
10.846,-0.97,1.03,0.98,9.26,8.37,9.59,-0.37,-0.85,1.74,950.07
10.849,-0.97,1.03,0.98,-1.66,7.92,15.12,-0.37,-0.85,1.74,950.07
10.85,-0.97,1.03,0.98,-1.66,7.92,15.12,1.47,-2.7,3.44,950.07
10.908,-3.65,1.29,2.15,-1.66,7.92,15.12,1.47,-2.7,3.44,950.07
10.91,-3.65,1.29,2.15,-27.67,9.98,26.01,1.47,-2.7,3.44,950.07
10.912,-3.65,1.29,2.15,-27.67,9.98,26.01,4.19,-0.68,1.42,950.07
10.912,-3.65,1.29,2.15,-27.67,9.98,26.01,4.19,-0.68,1.42,950.03
10.982,-1.53,-0.24,-0.08,-27.67,9.98,26.01,4.19,-0.68,1.42,950.03
10.984,-1.53,-0.24,-0.08,-6.71,-4.59,4.01,4.19,-0.68,1.42,950.03
10.987,-1.53,-0.24,-0.08,-6.71,-4.59,4.01,3.65,-2.13,1.96,950.03
11.011,-1.53,-0.24,-0.08,-6.71,-4.59,4.01,3.65,-2.13,1.96,950.0
11.033,-0.26,-0.56,-0.25,-6.71,-4.59,4.01,3.65,-2.13,1.96,950.0
11.035,-0.26,-0.56,-0.25,6.03,-7.47,1.86,3.65,-2.13,1.96,950.0
11.037,-0.26,-0.56,-0.25,6.03,-7.47,1.86,1.7,-1.34,-0.0,950.0
11.096,-0.11,-0.81,-0.24,6.03,-7.47,1.86,1.7,-1.34,-0.0,950.0
11.098,-0.11,-0.81,-0.24,6.03,-7.47,1.86,0.77,-1.08,-0.42,950.0
11.099,-0.11,-0.81,-0.24,7.97,-9.42,1.18,0.77,-1.08,-0.42,950.0
11.116,-0.11,-0.81,-0.24,7.97,-9.42,1.18,0.77,-1.08,-0.42,950.05
11.159,-0.11,-0.81,-0.24,8.19,-8.99,0.73,0.77,-1.08,-0.42,950.05
11.162,-0.11,-0.81,-0.24,8.19,-8.99,0.73,-0.54,-0.01,-1.38,950.05
11.163,-0.08,-0.8,-0.69,8.19,-8.99,0.73,-0.54,-0.01,-1.38,950.05
11.224,-1.54,-0.06,-0.47,8.19,-8.99,0.73,-0.54,-0.01,-1.38,950.05
11.225,-1.54,-0.06,-0.47,8.19,-8.99,0.73,-2.2,0.66,-1.2,950.05
11.226,-1.54,-0.06,-0.47,8.19,-8.99,0.73,-2.2,0.66,-1.2,950.01
11.227,-1.54,-0.06,-0.47,-6.01,-0.22,-0.83,-2.2,0.66,-1.2,950.01
11.287,-1.54,-0.06,-0.47,-6.34,-0.02,-0.14,-2.2,0.66,-1.2,950.01
11.29,-1.54,-0.06,-0.47,-6.34,-0.02,-0.14,-4.35,2.37,-2.27,950.01
11.291,-3.51,0.76,1.9,-6.34,-0.02,-0.14,-4.35,2.37,-2.27,950.01
11.328,-3.51,0.76,1.9,-6.34,-0.02,-0.14,-4.35,2.37,-2.27,949.99
11.35,-1.03,1.25,0.49,-6.34,-0.02,-0.14,-4.35,2.37,-2.27,949.99
11.352,-1.03,1.25,0.49,-6.34,-0.02,-0.14,-2.07,1.26,-1.67,949.99
11.353,-1.03,1.25,0.49,-1.9,12.89,10.24,-2.07,1.26,-1.67,949.99
11.413,-0.65,1.4,0.54,-1.9,12.89,10.24,-2.07,1.26,-1.67,949.99
11.415,-0.65,1.4,0.54,1.33,14.51,11.36,-2.07,1.26,-1.67,949.99
11.416,-0.65,1.4,0.54,1.33,14.51,11.36,-1.56,1.11,-1.35,949.99
11.433,-0.65,1.4,0.54,1.33,14.51,11.36,-1.56,1.11,-1.35,950.0
11.478,-0.1,1.18,0.28,1.33,14.51,11.36,-1.56,1.11,-1.35,950.0
11.48,-0.1,1.18,0.28,6.53,12.24,9.05,-1.56,1.11,-1.35,950.0
11.482,-0.1,1.18,0.28,6.53,12.24,9.05,-1.08,-0.46,0.46,950.0
11.539,-0.0,0.89,0.3,6.53,12.24,9.05,-1.08,-0.46,0.46,950.0
11.54,-0.0,0.89,0.3,7.69,8.53,9.0,-1.08,-0.46,0.46,950.0
11.541,-0.0,0.89,0.3,7.69,8.53,9.0,-0.04,-0.96,1.54,950.0
11.541,-0.0,0.89,0.3,7.69,8.53,9.0,-0.04,-0.96,1.54,950.05
11.603,-1.27,0.82,1.01,7.69,8.53,9.0,-0.04,-0.96,1.54,950.05
11.607,-1.27,0.82,1.01,8.12,6.69,8.0,-0.04,-0.96,1.54,950.05
11.609,-1.27,0.82,1.01,8.12,6.69,8.0,1.66,-1.9,3.1,950.05
11.643,-1.27,0.82,1.01,8.12,6.69,8.0,1.66,-1.9,3.1,950.03
11.664,-2.42,1.26,2.14,8.12,6.69,8.0,1.66,-1.9,3.1,950.03
11.665,-2.42,1.26,2.14,-15.44,9.49,25.27,1.66,-1.9,3.1,950.03
11.667,-2.42,1.26,2.14,-15.44,9.49,25.27,2.69,-0.46,1.12,950.03
11.728,-1.83,0.61,0.16,-15.44,9.49,25.27,2.69,-0.46,1.12,950.03
11.73,-1.83,0.61,0.16,-9.65,3.59,6.2,2.69,-0.46,1.12,950.03
11.732,-1.83,0.61,0.16,-9.65,3.59,6.2,2.96,-1.61,1.71,950.03
11.748,-1.83,0.61,0.16,-9.65,3.59,6.2,2.96,-1.61,1.71,950.01
11.792,-0.35,-0.38,-0.13,-9.65,3.59,6.2,2.96,-1.61,1.71,950.01
11.793,-0.35,-0.38,-0.13,-9.39,3.6,5.71,2.96,-1.61,1.71,950.01
11.795,-0.35,-0.38,-0.13,-9.39,3.6,5.71,1.72,-0.91,0.04,950.01
11.856,-0.04,-0.62,-0.29,-9.39,3.6,5.71,1.72,-0.91,0.04,950.01
11.858,-0.04,-0.62,-0.29,-9.39,3.6,5.71,0.41,-1.13,-0.41,950.01
11.858,-0.04,-0.62,-0.29,8.47,-8.02,0.82,0.41,-1.13,-0.41,950.01
11.859,-0.04,-0.62,-0.29,8.47,-8.02,0.82,0.41,-1.13,-0.41,950.03
11.919,0.05,-0.77,-0.59,8.47,-8.02,0.82,0.41,-1.13,-0.41,950.03
11.921,0.05,-0.77,-0.59,9.64,-9.2,-2.52,0.41,-1.13,-0.41,950.03
11.924,0.05,-0.77,-0.59,9.64,-9.2,-2.52,0.06,-0.1,-0.9,950.03
11.959,0.05,-0.77,-0.59,9.64,-9.2,-2.52,0.06,-0.1,-0.9,950.02
11.981,-1.48,-0.26,-0.05,9.64,-9.2,-2.52,0.06,-0.1,-0.9,950.02
11.982,-1.48,-0.26,-0.05,-5.45,-3.45,3.1,0.06,-0.1,-0.9,950.02
11.983,-1.48,-0.26,-0.05,-5.45,-3.45,3.1,-1.48,1.11,-1.62,950.02
12.047,-1.48,-0.26,-0.05,-5.65,-2.66,3.67,-1.48,1.11,-1.62,950.02
12.049,-1.48,-0.26,-0.05,-5.65,-2.66,3.67,-4.82,1.7,-2.88,950.02
12.05,-2.69,0.37,0.63,-5.65,-2.66,3.67,-4.82,1.7,-2.88,950.02
12.065,-2.69,0.37,0.63,-5.65,-2.66,3.67,-4.82,1.7,-2.88,949.99
12.108,-1.72,1.15,0.66,-5.65,-2.66,3.67,-4.82,1.7,-2.88,949.99
12.11,-1.72,1.15,0.66,-8.44,11.48,11.48,-4.82,1.7,-2.88,949.99
12.111,-1.72,1.15,0.66,-8.44,11.48,11.48,-1.53,1.21,-1.68,949.99
12.18,-0.71,1.23,0.41,-8.44,11.48,11.48,-1.53,1.21,-1.68,949.99
12.181,-0.71,1.23,0.41,0.97,12.56,9.68,-1.53,1.21,-1.68,949.99
12.183,-0.71,1.23,0.41,0.97,12.56,9.68,-2.19,1.25,-2.01,949.99
12.184,-0.71,1.23,0.41,0.97,12.56,9.68,-2.19,1.25,-2.01,949.98
12.236,-0.28,1.21,0.31,0.97,12.56,9.68,-2.19,1.25,-2.01,949.98
12.238,-0.28,1.21,0.31,4.79,12.47,9.32,-2.19,1.25,-2.01,949.98
12.24,-0.28,1.21,0.31,4.79,12.47,9.32,-1.18,0.35,-0.65,949.98
12.281,-0.28,1.21,0.31,4.79,12.47,9.32,-1.18,0.35,-0.65,950.0
12.304,0.23,1.21,0.2,4.79,12.47,9.32,-1.18,0.35,-0.65,950.0
12.306,0.23,1.21,0.2,9.84,12.13,8.14,-1.18,0.35,-0.65,950.0
12.308,0.23,1.21,0.2,9.84,12.13,8.14,-0.13,-0.37,1.14,950.0
12.363,-0.94,1.1,0.84,9.84,12.13,8.14,-0.13,-0.37,1.14,950.0
12.364,-0.94,1.1,0.84,9.84,12.13,8.14,0.4,-1.75,2.71,950.0
12.365,-0.94,1.1,0.84,-1.26,10.19,14.02,0.4,-1.75,2.71,950.0
12.382,-0.94,1.1,0.84,-1.26,10.19,14.02,0.4,-1.75,2.71,950.03
12.425,-1.22,1.51,1.15,-1.26,10.19,14.02,0.4,-1.75,2.71,950.03
12.427,-1.22,1.51,1.15,-3.65,13.08,16.16,0.4,-1.75,2.71,950.03
12.428,-1.22,1.51,1.15,-3.65,13.08,16.16,1.87,-2.31,2.72,950.03
12.491,-2.82,0.96,0.21,-3.65,13.08,16.16,1.87,-2.31,2.72,950.03
12.493,-2.82,0.96,0.21,-3.65,13.08,16.16,5.25,-1.0,2.66,950.03
12.494,-2.82,0.96,0.21,-3.65,13.08,16.16,5.25,-1.0,2.66,950.0
12.495,-2.82,0.96,0.21,-19.3,7.65,6.97,5.25,-1.0,2.66,950.0
12.554,-0.53,-0.58,-0.18,-19.3,7.65,6.97,5.25,-1.0,2.66,950.0
12.556,-0.53,-0.58,-0.18,3.16,-7.79,2.91,5.25,-1.0,2.66,950.0
12.557,-0.53,-0.58,-0.18,3.16,-7.79,2.91,1.44,-1.21,1.59,950.0
12.601,-0.53,-0.58,-0.18,3.16,-7.79,2.91,1.44,-1.21,1.59,950.01
12.632,0.11,-0.66,-0.13,3.16,-7.79,2.91,1.44,-1.21,1.59,950.01
12.633,0.11,-0.66,-0.13,9.74,-8.53,2.73,1.44,-1.21,1.59,950.01
12.635,0.11,-0.66,-0.13,9.74,-8.53,2.73,0.34,-0.78,-0.35,950.01
12.681,0.11,-0.79,-0.22,9.74,-8.53,2.73,0.34,-0.78,-0.35,950.01
12.683,0.11,-0.79,-0.22,9.74,-8.53,2.73,0.2,-0.77,-0.8,950.01
12.684,0.11,-0.79,-0.22,10.05,-9.41,1.46,0.2,-0.77,-0.8,950.01
12.703,0.11,-0.79,-0.22,10.05,-9.41,1.46,0.2,-0.77,-0.8,950.02
12.744,-0.85,-0.5,-0.31,10.05,-9.41,1.46,0.2,-0.77,-0.8,950.02
12.746,-0.85,-0.5,-0.31,10.19,-8.66,1.37,0.2,-0.77,-0.8,950.02
12.747,-0.85,-0.5,-0.31,10.19,-8.66,1.37,-0.76,0.6,-2.15,950.02
12.808,-1.89,0.28,-0.38,10.19,-8.66,1.37,-0.76,0.6,-2.15,950.02
12.809,-1.89,0.28,-0.38,-9.48,2.83,0.06,-0.76,0.6,-2.15,950.02
12.811,-1.89,0.28,-0.38,-9.48,2.83,0.06,-3.94,0.53,-2.72,950.02
12.811,-1.89,0.28,-0.38,-9.48,2.83,0.06,-3.94,0.53,-2.72,950.0
12.88,-2.85,1.31,1.09,-9.48,2.83,0.06,-3.94,0.53,-2.72,950.0
12.881,-2.85,1.31,1.09,-9.91,3.3,0.92,-3.94,0.53,-2.72,950.0
12.883,-2.85,1.31,1.09,-9.91,3.3,0.92,-2.16,2.06,-2.14,950.0
12.912,-2.85,1.31,1.09,-9.91,3.3,0.92,-2.16,2.06,-2.14,949.99
12.934,-0.81,1.27,0.52,-9.91,3.3,0.92,-2.16,2.06,-2.14,949.99
12.936,-0.81,1.27,0.52,0.16,13.3,10.56,-2.16,2.06,-2.14,949.99
12.937,-0.81,1.27,0.52,0.16,13.3,10.56,-3.16,0.95,-1.92,949.99
12.999,-0.4,1.28,0.59,0.16,13.3,10.56,-3.16,0.95,-1.92,949.99
13.001,-0.4,1.28,0.59,3.64,13.42,11.95,-3.16,0.95,-1.92,949.99
13.003,-0.4,1.28,0.59,3.64,13.42,11.95,-0.58,1.39,-1.15,949.99
13.018,-0.4,1.28,0.59,3.64,13.42,11.95,-0.58,1.39,-1.15,950.0
13.061,0.16,1.22,0.24,3.64,13.42,11.95,-0.58,1.39,-1.15,950.0
13.062,0.16,1.22,0.24,8.78,12.87,8.84,-0.58,1.39,-1.15,950.0
13.064,0.16,1.22,0.24,8.78,12.87,8.84,-0.14,-0.26,0.64,950.0
13.125,-0.5,1.09,0.46,8.78,12.87,8.84,-0.14,-0.26,0.64,950.0
13.126,-0.5,1.09,0.46,2.71,11.07,10.71,-0.14,-0.26,0.64,950.0
13.127,-0.5,1.09,0.46,2.71,11.07,10.71,0.57,-1.47,2.21,950.0
13.128,-0.5,1.09,0.46,2.71,11.07,10.71,0.57,-1.47,2.21,950.03
13.188,-0.92,1.12,0.55,2.71,11.07,10.71,0.57,-1.47,2.21,950.03
13.19,-0.92,1.12,0.55,-0.88,10.49,10.8,0.57,-1.47,2.21,950.03
13.191,-0.92,1.12,0.55,-0.88,10.49,10.8,2.0,-2.4,3.61,950.03
13.229,-0.92,1.12,0.55,-0.88,10.49,10.8,2.0,-2.4,3.61,950.0
13.251,-3.38,1.3,1.15,-0.88,10.49,10.8,2.0,-2.4,3.61,950.0
13.253,-3.38,1.3,1.15,-0.62,10.05,10.32,2.0,-2.4,3.61,950.0
13.254,-3.38,1.3,1.15,-0.62,10.05,10.32,6.25,0.59,2.14,950.0
13.315,-1.37,-0.18,-0.0,-0.62,10.05,10.32,6.25,0.59,2.14,950.0
13.316,-1.37,-0.18,-0.0,-4.95,-2.56,4.87,6.25,0.59,2.14,950.0
13.317,-1.37,-0.18,-0.0,-4.95,-2.56,4.87,1.78,-1.51,2.59,950.0
13.334,-1.37,-0.18,-0.0,-4.95,-2.56,4.87,1.78,-1.51,2.59,949.98
13.378,-0.01,-0.58,-0.12,-4.95,-2.56,4.87,1.78,-1.51,2.59,949.98
13.379,-0.01,-0.58,-0.12,8.71,-6.99,2.96,1.78,-1.51,2.59,949.98
13.381,-0.01,-0.58,-0.12,8.71,-6.99,2.96,0.95,-1.03,0.31,949.98
13.442,0.0,-0.9,-0.1,8.71,-6.99,2.96,0.95,-1.03,0.31,949.98
13.443,0.0,-0.9,-0.1,9.09,-9.93,2.61,0.95,-1.03,0.31,949.98
13.444,0.0,-0.9,-0.1,9.09,-9.93,2.61,0.1,-1.01,-0.42,949.98
13.445,0.0,-0.9,-0.1,9.09,-9.93,2.61,0.1,-1.01,-0.42,949.99
13.506,-0.18,-0.89,-0.52,9.09,-9.93,2.61,0.1,-1.01,-0.42,949.99
13.508,-0.18,-0.89,-0.52,7.47,-9.37,-1.98,0.1,-1.01,-0.42,949.99
13.51,-0.18,-0.89,-0.52,7.47,-9.37,-1.98,-0.7,0.19,-1.85,949.99
13.546,-0.18,-0.89,-0.52,7.47,-9.37,-1.98,-0.7,0.19,-1.85,949.97
13.569,-1.2,-0.28,-0.8,7.47,-9.37,-1.98,-0.7,0.19,-1.85,949.97
13.572,-1.2,-0.28,-0.8,-2.72,-1.64,-4.27,-0.7,0.19,-1.85,949.97
13.573,-1.2,-0.28,-0.8,-2.72,-1.64,-4.27,-2.57,0.38,-2.31,949.97
13.632,-3.53,1.18,1.48,-2.72,-1.64,-4.27,-2.57,0.38,-2.31,949.97
13.634,-3.53,1.18,1.48,-26.19,13.45,19.1,-2.57,0.38,-2.31,949.97
13.635,-3.53,1.18,1.48,-26.19,13.45,19.1,-3.86,2.0,-3.09,949.97
13.652,-3.53,1.18,1.48,-26.19,13.45,19.1,-3.86,2.0,-3.09,949.95
13.698,-1.16,1.43,0.2,-26.19,13.45,19.1,-3.86,2.0,-3.09,949.95
13.7,-1.16,1.43,0.2,-26.19,13.45,19.1,-2.4,1.33,-2.07,949.95
13.701,-1.16,1.43,0.2,-3.84,16.32,7.77,-2.4,1.33,-2.07,949.95
13.76,-1.16,1.43,0.2,-4.62,16.25,8.7,-2.4,1.33,-2.07,949.95
13.764,-1.16,1.43,0.2,-4.62,16.25,8.7,-2.4,1.33,-2.07,949.94
13.765,-1.16,1.43,0.2,-4.62,16.25,8.7,-1.4,1.4,-1.14,949.94
13.766,-0.61,1.24,0.6,-4.62,16.25,8.7,-1.4,1.4,-1.14,949.94
13.823,0.0,1.08,0.36,-4.62,16.25,8.7,-1.4,1.4,-1.14,949.94
13.826,0.0,1.08,0.36,6.35,12.71,10.7,-1.4,1.4,-1.14,949.94
13.828,0.0,1.08,0.36,6.35,12.71,10.7,-0.74,0.15,0.08,949.94
13.864,0.0,1.08,0.36,6.35,12.71,10.7,-0.74,0.15,0.08,949.97
13.887,-0.09,1.09,0.43,6.35,12.71,10.7,-0.74,0.15,0.08,949.97
13.889,-0.09,1.09,0.43,6.35,12.71,10.7,0.41,-0.66,1.76,949.97
13.89,-0.09,1.09,0.43,5.62,12.32,11.38,0.41,-0.66,1.76,949.97
13.95,-1.23,1.13,0.5,5.62,12.32,11.38,0.41,-0.66,1.76,949.97
13.952,-1.23,1.13,0.5,-4.91,11.87,11.56,0.41,-0.66,1.76,949.97
13.953,-1.23,1.13,0.5,-4.91,11.87,11.56,1.44,-1.99,3.56,949.97
13.969,-1.23,1.13,0.5,-4.91,11.87,11.56,1.44,-1.99,3.56,949.98
14.011,-1.23,1.13,0.5,-4.0,10.82,10.47,1.44,-1.99,3.56,949.98
14.014,-1.23,1.13,0.5,-4.0,10.82,10.47,2.67,-0.43,2.08,949.98
14.015,-3.12,1.38,2.34,-4.0,10.82,10.47,2.67,-0.43,2.08,949.98
14.081,-2.21,0.33,-0.21,-4.0,10.82,10.47,2.67,-0.43,2.08,949.98
14.084,-2.21,0.33,-0.21,-13.44,3.14,3.2,2.67,-0.43,2.08,949.98
14.085,-2.21,0.33,-0.21,-13.44,3.14,3.2,3.65,-1.55,2.95,949.98
14.086,-2.21,0.33,-0.21,-13.44,3.14,3.2,3.65,-1.55,2.95,949.97
14.138,-0.41,-0.5,-0.18,-13.44,3.14,3.2,3.65,-1.55,2.95,949.97
14.14,-0.41,-0.5,-0.18,4.75,-5.41,2.66,3.65,-1.55,2.95,949.97
14.141,-0.41,-0.5,-0.18,4.75,-5.41,2.66,0.85,-1.56,0.83,949.97
14.183,-0.41,-0.5,-0.18,4.75,-5.41,2.66,0.85,-1.56,0.83,949.98
14.212,-0.11,-0.61,-0.05,4.75,-5.41,2.66,0.85,-1.56,0.83,949.98
14.213,-0.11,-0.61,-0.05,8.02,-6.37,3.19,0.85,-1.56,0.83,949.98
14.215,-0.11,-0.61,-0.05,8.02,-6.37,3.19,0.38,-1.01,-0.39,949.98
14.264,0.16,-0.76,-0.58,8.02,-6.37,3.19,0.38,-1.01,-0.39,949.98
14.266,0.16,-0.76,-0.58,8.21,-6.08,2.68,0.38,-1.01,-0.39,949.98
14.267,0.16,-0.76,-0.58,8.21,-6.08,2.68,0.34,-0.51,-0.58,949.98
14.284,0.16,-0.76,-0.58,8.21,-6.08,2.68,0.34,-0.51,-0.58,949.97
14.327,-1.11,-0.4,-0.21,8.21,-6.08,2.68,0.34,-0.51,-0.58,949.97
14.329,-1.11,-0.4,-0.21,-1.63,-3.37,1.28,0.34,-0.51,-0.58,949.97
14.33,-1.11,-0.4,-0.21,-1.63,-3.37,1.28,-1.34,0.87,-1.65,949.97
14.392,-1.11,-0.4,-0.21,-1.99,-2.56,1.96,-1.34,0.87,-1.65,949.97
14.393,-1.11,-0.4,-0.21,-1.99,-2.56,1.96,-1.34,0.87,-1.65,949.95
14.394,-1.11,-0.4,-0.21,-1.99,-2.56,1.96,-4.67,1.32,-2.97,949.95
14.396,-2.5,0.5,0.08,-1.99,-2.56,1.96,-4.67,1.32,-2.97,949.95
14.454,-2.19,1.31,0.95,-1.99,-2.56,1.96,-4.67,1.32,-2.97,949.95
14.456,-2.19,1.31,0.95,-16.29,6.34,5.96,-4.67,1.32,-2.97,949.95
14.458,-2.19,1.31,0.95,-16.29,6.34,5.96,-2.92,1.77,-1.75,949.95
14.495,-2.19,1.31,0.95,-16.29,6.34,5.96,-2.92,1.77,-1.75,949.94
14.517,-0.83,1.22,0.59,-16.29,6.34,5.96,-2.92,1.77,-1.75,949.94
14.519,-0.83,1.22,0.59,-0.66,13.44,11.93,-2.92,1.77,-1.75,949.94
14.52,-0.83,1.22,0.59,-0.66,13.44,11.93,-2.53,1.66,-2.15,949.94
14.581,-0.18,1.13,0.32,-0.66,13.44,11.93,-2.53,1.66,-2.15,949.94
14.582,-0.18,1.13,0.32,-1.45,13.45,12.78,-2.53,1.66,-2.15,949.94
14.583,-0.18,1.13,0.32,-1.45,13.45,12.78,-1.28,0.84,-0.84,949.94
14.601,-0.18,1.13,0.32,-1.45,13.45,12.78,-1.28,0.84,-0.84,949.97
14.644,-0.18,1.13,0.32,4.78,12.03,10.38,-1.28,0.84,-0.84,949.97
14.645,-0.18,1.13,0.32,4.78,12.03,10.38,-0.25,-0.02,0.93,949.97
14.646,0.29,0.98,0.47,4.78,12.03,10.38,-0.25,-0.02,0.93,949.97
14.709,-0.85,1.2,0.62,4.78,12.03,10.38,-0.25,-0.02,0.93,949.97
14.711,-0.85,1.2,0.62,-1.36,11.52,12.97,-0.25,-0.02,0.93,949.97
14.712,-0.85,1.2,0.62,-1.36,11.52,12.97,0.69,-1.25,2.5,949.97
14.712,-0.85,1.2,0.62,-1.36,11.52,12.97,0.69,-1.25,2.5,950.01
14.773,-0.85,1.2,0.62,-0.76,10.55,12.19,0.69,-1.25,2.5,950.01
14.775,-0.85,1.2,0.62,-0.76,10.55,12.19,0.92,-2.28,2.55,950.01
14.777,-1.36,1.69,1.31,-0.76,10.55,12.19,0.92,-2.28,2.55,950.01
14.812,-1.36,1.69,1.31,-0.76,10.55,12.19,0.92,-2.28,2.55,949.99
14.836,-2.83,1.0,0.13,-0.76,10.55,12.19,0.92,-2.28,2.55,949.99
14.838,-2.83,1.0,0.13,-19.95,8.74,7.16,0.92,-2.28,2.55,949.99
14.84,-2.83,1.0,0.13,-19.95,8.74,7.16,4.78,-1.77,3.24,949.99
14.9,-0.71,-0.53,-0.19,-19.95,8.74,7.16,4.78,-1.77,3.24,949.99
14.902,-0.71,-0.53,-0.19,1.32,-6.59,3.29,4.78,-1.77,3.24,949.99
14.903,-0.71,-0.53,-0.19,1.32,-6.59,3.29,2.21,-1.93,1.75,949.99
14.932,-0.71,-0.53,-0.19,1.32,-6.59,3.29,2.21,-1.93,1.75,949.97
14.96,-0.07,-0.69,-0.15,1.32,-6.59,3.29,2.21,-1.93,1.75,949.97
14.962,-0.07,-0.69,-0.15,8.0,-7.97,2.85,2.21,-1.93,1.75,949.97
14.963,-0.07,-0.69,-0.15,8.0,-7.97,2.85,0.76,-1.41,0.18,949.97
15.025,0.05,-0.93,-0.35,8.0,-7.97,2.85,0.76,-1.41,0.18,949.97
15.027,0.05,-0.93,-0.35,9.48,-10.16,0.29,0.76,-1.41,0.18,949.97
15.028,0.05,-0.93,-0.35,9.48,-10.16,0.29,0.77,-0.9,-0.36,949.97
15.029,0.05,-0.93,-0.35,9.48,-10.16,0.29,0.77,-0.9,-0.36,949.98
15.088,-0.75,-0.65,-0.39,9.48,-10.16,0.29,0.77,-0.9,-0.36,949.98
15.089,-0.75,-0.65,-0.39,1.76,-6.38,-0.11,0.77,-0.9,-0.36,949.98
15.09,-0.75,-0.65,-0.39,1.76,-6.38,-0.11,-1.2,0.55,-1.99,949.98
15.128,-0.75,-0.65,-0.39,1.76,-6.38,-0.11,-1.2,0.55,-1.99,949.96
15.152,-1.98,0.21,-0.18,1.76,-6.38,-0.11,-1.2,0.55,-1.99,949.96
15.153,-1.98,0.21,-0.18,1.37,-4.9,0.48,-1.2,0.55,-1.99,949.96
15.155,-1.98,0.21,-0.18,1.37,-4.9,0.48,-3.75,1.41,-3.18,949.96
15.214,-3.14,1.58,0.97,1.37,-4.9,0.48,-3.75,1.41,-3.18,949.96
15.215,-3.14,1.58,0.97,-23.0,17.52,15.18,-3.75,1.41,-3.18,949.96
15.217,-3.14,1.58,0.97,-23.0,17.52,15.18,-1.82,2.49,-2.79,949.96
15.234,-3.14,1.58,0.97,-23.0,17.52,15.18,-1.82,2.49,-2.79,949.95
15.277,-3.14,1.58,0.97,-23.97,17.78,16.23,-1.82,2.49,-2.79,949.95
15.28,-3.14,1.58,0.97,-23.97,17.78,16.23,-2.94,1.22,-2.15,949.95
15.281,-1.04,1.44,0.33,-23.97,17.78,16.23,-2.94,1.22,-2.15,949.95
15.342,-0.32,1.14,0.34,-23.97,17.78,16.23,-2.94,1.22,-2.15,949.95
15.344,-0.32,1.14,0.34,2.87,13.17,10.87,-2.94,1.22,-2.15,949.95
15.346,-0.32,1.14,0.34,2.87,13.17,10.87,-1.34,1.19,-0.8,949.95
15.347,-0.32,1.14,0.34,2.87,13.17,10.87,-1.34,1.19,-0.8,949.95
15.406,0.31,0.89,0.52,2.87,13.17,10.87,-1.34,1.19,-0.8,949.95
15.408,0.31,0.89,0.52,8.69,10.25,12.96,-1.34,1.19,-0.8,949.95
15.41,0.31,0.89,0.52,8.69,10.25,12.96,-0.83,0.2,0.55,949.95
15.446,0.31,0.89,0.52,8.69,10.25,12.96,-0.83,0.2,0.55,949.98
15.469,-0.42,1.2,0.43,8.69,10.25,12.96,-0.83,0.2,0.55,949.98
15.471,-0.42,1.2,0.43,1.98,11.17,11.87,-0.83,0.2,0.55,949.98
15.472,-0.42,1.2,0.43,1.98,11.17,11.87,-0.08,-1.08,1.91,949.98
15.531,-0.91,1.29,0.6,1.98,11.17,11.87,-0.08,-1.08,1.91,949.98
15.533,-0.91,1.29,0.6,-2.28,10.92,12.88,-0.08,-1.08,1.91,949.98
15.534,-0.91,1.29,0.6,-2.28,10.92,12.88,1.16,-2.72,3.88,949.98
15.551,-0.91,1.29,0.6,-2.28,10.92,12.88,1.16,-2.72,3.88,949.96
15.598,-3.94,1.65,1.43,-2.28,10.92,12.88,1.16,-2.72,3.88,949.96
15.599,-3.94,1.65,1.43,-1.97,10.57,12.46,1.16,-2.72,3.88,949.96
15.6,-3.94,1.65,1.43,-1.97,10.57,12.46,5.42,-0.33,2.43,949.96
15.657,-1.35,-0.36,-0.11,-1.97,10.57,12.46,5.42,-0.33,2.43,949.96
15.659,-1.35,-0.36,-0.11,-1.97,10.57,12.46,2.34,-2.38,2.74,949.96
15.66,-1.35,-0.36,-0.11,-5.93,-5.26,5.27,2.34,-2.38,2.74,949.96
15.66,-1.35,-0.36,-0.11,-5.93,-5.26,5.27,2.34,-2.38,2.74,949.95
15.72,-1.35,-0.36,-0.11,-5.38,-5.29,4.56,2.34,-2.38,2.74,949.95
15.723,-1.35,-0.36,-0.11,-5.38,-5.29,4.56,0.85,-1.43,0.11,949.95
15.723,-0.17,-0.58,-0.21,-5.38,-5.29,4.56,0.85,-1.43,0.11,949.95
15.762,-0.17,-0.58,-0.21,-5.38,-5.29,4.56,0.85,-1.43,0.11,949.97
15.785,-0.09,-0.81,-0.1,-5.38,-5.29,4.56,0.85,-1.43,0.11,949.97
15.787,-0.09,-0.81,-0.1,7.57,-9.21,3.86,0.85,-1.43,0.11,949.97
15.789,-0.09,-0.81,-0.1,7.57,-9.21,3.86,0.72,-1.01,-0.42,949.97
15.848,-0.01,-0.74,-0.71,7.57,-9.21,3.86,0.72,-1.01,-0.42,949.97
15.85,-0.01,-0.74,-0.71,8.5,-7.98,-2.37,0.72,-1.01,-0.42,949.97
15.851,-0.01,-0.74,-0.71,8.5,-7.98,-2.37,-0.02,0.29,-1.58,949.97
15.868,-0.01,-0.74,-0.71,8.5,-7.98,-2.37,-0.02,0.29,-1.58,949.95
15.911,-1.14,-0.39,-0.56,8.5,-7.98,-2.37,-0.02,0.29,-1.58,949.95
15.912,-1.14,-0.39,-0.56,8.5,-7.98,-2.37,-1.78,0.79,-1.7,949.95
15.913,-1.14,-0.39,-0.56,-2.74,-3.5,-0.47,-1.78,0.79,-1.7,949.95
15.976,-3.53,0.6,1.0,-2.74,-3.5,-0.47,-1.78,0.79,-1.7,949.95
15.977,-3.53,0.6,1.0,-26.66,6.78,15.49,-1.78,0.79,-1.7,949.95
15.978,-3.53,0.6,1.0,-26.66,6.78,15.49,-4.73,2.31,-3.7,949.95
15.979,-3.53,0.6,1.0,-26.66,6.78,15.49,-4.73,2.31,-3.7,949.94
16.038,-2.02,1.57,0.49,-26.66,6.78,15.49,-4.73,2.31,-3.7,949.94
16.04,-2.02,1.57,0.49,-12.91,16.36,11.68,-4.73,2.31,-3.7,949.94
16.042,-2.02,1.57,0.49,-12.91,16.36,11.68,-2.59,1.69,-2.07,949.94
16.079,-2.02,1.57,0.49,-12.91,16.36,11.68,-2.59,1.69,-2.07,949.92
16.101,-2.02,1.57,0.49,-13.51,15.81,12.28,-2.59,1.69,-2.07,949.92
16.103,-2.02,1.57,0.49,-13.51,15.81,12.28,-2.21,1.3,-1.68,949.92
16.104,-0.78,1.37,0.74,-13.51,15.81,12.28,-2.21,1.3,-1.68,949.92
16.165,-0.07,0.94,0.29,-13.51,15.81,12.28,-2.21,1.3,-1.68,949.92
16.167,-0.07,0.94,0.29,5.08,9.46,10.75,-2.21,1.3,-1.68,949.92
16.168,-0.07,0.94,0.29,5.08,9.46,10.75,-0.76,0.32,-0.45,949.92
16.184,-0.07,0.94,0.29,5.08,9.46,10.75,-0.76,0.32,-0.45,949.94
16.228,0.35,0.87,0.26,5.08,9.46,10.75,-0.76,0.32,-0.45,949.94
16.229,0.35,0.87,0.26,5.21,8.75,10.64,-0.76,0.32,-0.45,949.94
16.231,0.35,0.87,0.26,5.21,8.75,10.64,0.59,-0.14,0.86,949.94
16.3,-0.89,1.16,0.45,5.21,8.75,10.64,0.59,-0.14,0.86,949.94
16.301,-0.89,1.16,0.45,-2.55,9.14,11.62,0.59,-0.14,0.86,949.94
16.302,-0.89,1.16,0.45,-2.55,9.14,11.62,1.28,-1.25,2.38,949.94
16.304,-0.89,1.16,0.45,-2.55,9.14,11.62,1.28,-1.25,2.38,949.97
16.355,-1.24,1.67,1.02,-2.55,9.14,11.62,1.28,-1.25,2.38,949.97
16.357,-1.24,1.67,1.02,-5.71,13.15,16.61,1.28,-1.25,2.38,949.97
16.358,-1.24,1.67,1.02,-5.71,13.15,16.61,1.09,-2.23,2.95,949.97
16.4,-1.24,1.67,1.02,-5.71,13.15,16.61,1.09,-2.23,2.95,949.96
16.43,-2.86,1.17,0.14,-5.71,13.15,16.61,1.09,-2.23,2.95,949.96
16.432,-2.86,1.17,0.14,-5.71,13.15,16.61,4.49,-1.65,3.71,949.96
16.433,-2.86,1.17,0.14,-21.73,8.46,8.2,4.49,-1.65,3.71,949.96
16.481,-0.87,-0.36,-0.14,-21.73,8.46,8.2,4.49,-1.65,3.71,949.96
16.482,-0.87,-0.36,-0.14,-1.99,-6.6,5.31,4.49,-1.65,3.71,949.96
16.483,-0.87,-0.36,-0.14,-1.99,-6.6,5.31,2.28,-1.92,2.22,949.96
16.501,-0.87,-0.36,-0.14,-1.99,-6.6,5.31,2.28,-1.92,2.22,949.96
16.544,-0.15,-0.53,-0.12,-1.99,-6.6,5.31,2.28,-1.92,2.22,949.96
16.546,-0.15,-0.53,-0.12,5.56,-8.08,4.99,2.28,-1.92,2.22,949.96
16.547,-0.15,-0.53,-0.12,5.56,-8.08,4.99,0.49,-1.37,0.39,949.96
16.61,-0.05,-0.89,-0.2,5.56,-8.08,4.99,0.49,-1.37,0.39,949.96
16.611,-0.05,-0.89,-0.2,7.1,-11.32,3.63,0.49,-1.37,0.39,949.96
16.613,-0.05,-0.89,-0.2,7.1,-11.32,3.63,0.74,-1.08,-0.24,949.96
16.614,-0.05,-0.89,-0.2,7.1,-11.32,3.63,0.74,-1.08,-0.24,949.97
16.672,-0.05,-0.89,-0.2,7.47,-10.68,3.37,0.74,-1.08,-0.24,949.97
16.675,-0.05,-0.89,-0.2,7.47,-10.68,3.37,-0.45,0.2,-2.03,949.97
16.676,-0.42,-0.84,-0.45,7.47,-10.68,3.37,-0.45,0.2,-2.03,949.97
16.722,-0.42,-0.84,-0.45,7.47,-10.68,3.37,-0.45,0.2,-2.03,949.97
16.736,-1.67,-0.06,-0.89,7.47,-10.68,3.37,-0.45,0.2,-2.03,949.97
16.737,-1.67,-0.06,-0.89,3.91,-8.45,1.14,-0.45,0.2,-2.03,949.97
16.74,-1.67,-0.06,-0.89,3.91,-8.45,1.14,-3.08,0.64,-3.0,949.97
16.801,-3.68,1.24,1.49,3.91,-8.45,1.14,-3.08,0.64,-3.0,949.97
16.803,-3.68,1.24,1.49,-28.48,11.96,20.8,-3.08,0.64,-3.0,949.97
16.804,-3.68,1.24,1.49,-28.48,11.96,20.8,-3.12,2.56,-3.31,949.97
16.829,-3.68,1.24,1.49,-28.48,11.96,20.8,-3.12,2.56,-3.31,949.94
16.861,-1.29,1.35,0.43,-28.48,11.96,20.8,-3.12,2.56,-3.31,949.94
16.863,-1.29,1.35,0.43,-5.75,13.22,11.2,-3.12,2.56,-3.31,949.94
16.865,-1.29,1.35,0.43,-5.75,13.22,11.2,-3.78,1.16,-1.97,949.94
16.926,-0.5,1.15,0.6,-5.75,13.22,11.2,-3.78,1.16,-1.97,949.94
16.927,-0.5,1.15,0.6,-6.36,12.57,11.71,-3.78,1.16,-1.97,949.94
16.929,-0.5,1.15,0.6,-6.36,12.57,11.71,-1.52,1.8,-1.31,949.94
16.93,-0.5,1.15,0.6,-6.36,12.57,11.71,-1.52,1.8,-1.31,949.96
16.99,0.27,1.08,0.49,-6.36,12.57,11.71,-1.52,1.8,-1.31,949.96
16.991,0.27,1.08,0.49,8.26,9.61,12.75,-1.52,1.8,-1.31,949.96
16.992,0.27,1.08,0.49,8.26,9.61,12.75,-0.81,0.75,0.13,949.96
17.03,0.27,1.08,0.49,8.26,9.61,12.75,-0.81,0.75,0.13,950.01
17.052,-0.21,1.25,0.44,8.26,9.61,12.75,-0.81,0.75,0.13,950.01
17.054,-0.21,1.25,0.44,3.34,10.84,12.4,-0.81,0.75,0.13,950.01
17.056,-0.21,1.25,0.44,3.34,10.84,12.4,-0.03,-0.52,2.06,950.01
17.118,-1.17,1.23,0.54,3.34,10.84,12.4,-0.03,-0.52,2.06,950.01
17.12,-1.17,1.23,0.54,-5.83,9.75,13.01,-0.03,-0.52,2.06,950.01
17.122,-1.17,1.23,0.54,-5.83,9.75,13.01,0.69,-2.0,3.9,950.01
17.134,-1.17,1.23,0.54,-5.83,9.75,13.01,0.69,-2.0,3.9,949.99
17.178,-3.59,1.6,1.83,-5.83,9.75,13.01,0.69,-2.0,3.9,949.99
17.18,-3.59,1.6,1.83,-29.22,12.72,25.15,0.69,-2.0,3.9,949.99
17.181,-3.59,1.6,1.83,-29.22,12.72,25.15,3.29,-0.68,2.55,949.99
17.242,-1.71,-0.07,-0.16,-29.22,12.72,25.15,3.29,-0.68,2.55,949.99
17.244,-1.71,-0.07,-0.16,-10.68,-3.09,5.72,3.29,-0.68,2.55,949.99
17.245,-1.71,-0.07,-0.16,-10.68,-3.09,5.72,2.62,-2.17,2.94,949.99
17.247,-1.71,-0.07,-0.16,-10.68,-3.09,5.72,2.62,-2.17,2.94,949.97
17.304,-1.71,-0.07,-0.16,-10.12,-2.94,5.26,2.62,-2.17,2.94,949.97
17.307,-1.71,-0.07,-0.16,-10.12,-2.94,5.26,1.1,-1.31,0.43,949.97
17.308,-0.31,-0.51,-0.33,-10.12,-2.94,5.26,1.1,-1.31,0.43,949.97
17.344,-0.31,-0.51,-0.33,-10.12,-2.94,5.26,1.1,-1.31,0.43,949.97
17.367,-0.09,-0.76,-0.17,-10.12,-2.94,5.26,1.1,-1.31,0.43,949.97
17.368,-0.09,-0.76,-0.17,6.43,-9.32,4.58,1.1,-1.31,0.43,949.97
17.37,-0.09,-0.76,-0.17,6.43,-9.32,4.58,0.41,-1.01,-0.61,949.97
17.429,0.17,-0.98,-0.64,6.43,-9.32,4.58,0.41,-1.01,-0.61,949.97
17.431,0.17,-0.98,-0.64,6.43,-9.32,4.58,0.14,-0.23,-1.27,949.97
17.432,0.17,-0.98,-0.64,9.3,-10.98,-0.29,0.14,-0.23,-1.27,949.97
17.448,0.17,-0.98,-0.64,9.3,-10.98,-0.29,0.14,-0.23,-1.27,949.97
17.491,0.17,-0.98,-0.64,9.08,-9.24,0.11,0.14,-0.23,-1.27,949.97
17.493,0.17,-0.98,-0.64,9.08,-9.24,0.11,-1.19,0.92,-1.98,949.97
17.494,-1.34,-0.55,-0.48,9.08,-9.24,0.11,-1.19,0.92,-1.98,949.97
17.555,-3.53,-0.02,0.92,9.08,-9.24,0.11,-1.19,0.92,-1.98,949.97
17.556,-3.53,-0.02,0.92,-27.78,0.55,15.97,-1.19,0.92,-1.98,949.97
17.558,-3.53,-0.02,0.92,-27.78,0.55,15.97,-4.52,2.91,-4.52,949.97
17.559,-3.53,-0.02,0.92,-27.78,0.55,15.97,-4.52,2.91,-4.52,949.93
17.617,-3.53,-0.02,0.92,-29.04,0.69,17.0,-4.52,2.91,-4.52,949.93
17.619,-3.53,-0.02,0.92,-29.04,0.69,17.0,-3.01,0.74,-3.28,949.93
17.62,-2.01,1.4,0.27,-29.04,0.69,17.0,-3.01,0.74,-3.28,949.93
17.657,-2.01,1.4,0.27,-29.04,0.69,17.0,-3.01,0.74,-3.28,949.93
17.68,-2.01,1.4,0.27,-14.61,14.0,11.05,-3.01,0.74,-3.28,949.93
17.682,-2.01,1.4,0.27,-14.61,14.0,11.05,-2.35,0.92,-2.5,949.93
17.683,-1.19,1.43,0.74,-14.61,14.0,11.05,-2.35,0.92,-2.5,949.93
17.744,-0.26,1.34,0.55,-14.61,14.0,11.05,-2.35,0.92,-2.5,949.93
17.746,-0.26,1.34,0.55,-14.61,14.0,11.05,-0.78,0.54,-0.69,949.93
17.747,-0.26,1.34,0.55,2.23,12.98,13.96,-0.78,0.54,-0.69,949.93
17.764,-0.26,1.34,0.55,2.23,12.98,13.96,-0.78,0.54,-0.69,949.93
17.807,0.12,1.33,0.25,2.23,12.98,13.96,-0.78,0.54,-0.69,949.93
17.808,0.12,1.33,0.25,2.23,12.98,13.96,0.19,0.23,1.34,949.93
17.81,0.12,1.33,0.25,5.71,12.82,11.13,0.19,0.23,1.34,949.93
17.872,-1.2,1.14,0.67,5.71,12.82,11.13,0.19,0.23,1.34,949.93
17.873,-1.2,1.14,0.67,-7.05,10.34,15.11,0.19,0.23,1.34,949.93
17.875,-1.2,1.14,0.67,-7.05,10.34,15.11,0.25,-1.44,3.66,949.93
17.875,-1.2,1.14,0.67,-7.05,10.34,15.11,0.25,-1.44,3.66,949.96
17.933,-1.2,1.14,0.67,-6.34,9.48,14.55,0.25,-1.44,3.66,949.96
17.935,-1.2,1.14,0.67,-6.34,9.48,14.55,1.29,-1.92,2.78,949.96
17.937,-2.7,1.53,1.83,-6.34,9.48,14.55,1.29,-1.92,2.78,949.96
17.974,-2.7,1.53,1.83,-6.34,9.48,14.55,1.29,-1.92,2.78,949.94
17.997,-2.95,0.3,0.07,-6.34,9.48,14.55,1.29,-1.92,2.78,949.94
17.998,-2.95,0.3,0.07,-23.06,1.95,8.45,1.29,-1.92,2.78,949.94
17.999,-2.95,0.3,0.07,-23.06,1.95,8.45,4.65,-2.12,3.62,949.94
18.059,-0.94,-0.53,-0.23,-23.06,1.95,8.45,4.65,-2.12,3.62,949.94
18.061,-0.94,-0.53,-0.23,-2.59,-5.73,4.92,4.65,-2.12,3.62,949.94
18.062,-0.94,-0.53,-0.23,-2.59,-5.73,4.92,1.75,-1.95,1.81,949.94
18.079,-0.94,-0.53,-0.23,-2.59,-5.73,4.92,1.75,-1.95,1.81,949.93
18.122,-0.94,-0.53,-0.23,-1.82,-5.59,4.13,1.75,-1.95,1.81,949.93
18.127,-0.04,-0.63,-0.1,-1.82,-5.59,4.13,1.75,-1.95,1.81,949.93
18.128,-0.04,-0.63,-0.1,-1.82,-5.59,4.13,1.26,-1.21,0.46,949.93
18.186,0.03,-0.88,-0.43,-1.82,-5.59,4.13,1.26,-1.21,0.46,949.93
18.188,0.03,-0.88,-0.43,7.42,-6.23,4.88,1.26,-1.21,0.46,949.93
18.189,0.03,-0.88,-0.43,7.42,-6.23,4.88,0.83,-0.96,0.37,949.93
18.19,0.03,-0.88,-0.43,7.42,-6.23,4.88,0.83,-0.96,0.37,949.95
18.248,-0.53,-0.87,-0.43,7.42,-6.23,4.88,0.83,-0.96,0.37,949.95
18.249,-0.53,-0.87,-0.43,7.42,-6.23,4.88,-1.09,0.8,-1.27,949.95
18.25,-0.53,-0.87,-0.43,2.66,-7.88,1.69,-1.09,0.8,-1.27,949.95
18.288,-0.53,-0.87,-0.43,2.66,-7.88,1.69,-1.09,0.8,-1.27,949.94
18.31,-1.51,-0.24,-0.73,2.66,-7.88,1.69,-1.09,0.8,-1.27,949.94
18.312,-1.51,-0.24,-0.73,-7.6,-0.8,-0.7,-1.09,0.8,-1.27,949.94
18.313,-1.51,-0.24,-0.73,-7.6,-0.8,-0.7,-3.38,1.37,-2.58,949.94
18.375,-1.51,-0.24,-0.73,-8.62,-1.34,0.37,-3.38,1.37,-2.58,949.94
18.377,-1.51,-0.24,-0.73,-8.62,-1.34,0.37,-2.52,2.4,-3.37,949.94
18.378,-3.27,1.21,1.44,-8.62,-1.34,0.37,-2.52,2.4,-3.37,949.94
18.398,-3.27,1.21,1.44,-8.62,-1.34,0.37,-2.52,2.4,-3.37,949.92
18.449,-1.12,1.36,0.23,-8.62,-1.34,0.37,-2.52,2.4,-3.37,949.92
18.451,-1.12,1.36,0.23,-6.08,14.43,10.64,-2.52,2.4,-3.37,949.92
18.453,-1.12,1.36,0.23,-6.08,14.43,10.64,-2.66,1.71,-3.0,949.92
18.503,-0.54,1.17,0.54,-6.08,14.43,10.64,-2.66,1.71,-3.0,949.92
18.504,-0.54,1.17,0.54,-1.27,11.92,14.26,-2.66,1.71,-3.0,949.92
18.504,-0.54,1.17,0.54,-1.27,11.92,14.26,-1.74,1.3,-1.56,949.92
18.505,-0.54,1.17,0.54,-1.27,11.92,14.26,-1.74,1.3,-1.56,949.94
18.565,0.07,1.35,0.27,-1.27,11.92,14.26,-1.74,1.3,-1.56,949.94
18.567,0.07,1.35,0.27,-1.27,11.92,14.26,-0.63,0.63,-0.04,949.94
18.568,0.07,1.35,0.27,4.03,13.36,11.87,-0.63,0.63,-0.04,949.94
18.611,0.07,1.35,0.27,4.03,13.36,11.87,-0.63,0.63,-0.04,949.97
18.64,-0.18,1.26,0.6,4.03,13.36,11.87,-0.63,0.63,-0.04,949.97
18.642,-0.18,1.26,0.6,1.49,11.92,15.14,-0.63,0.63,-0.04,949.97
18.644,-0.18,1.26,0.6,1.49,11.92,15.14,-0.89,-0.69,1.96,949.97
18.691,-1.27,1.23,0.64,1.49,11.92,15.14,-0.89,-0.69,1.96,949.97
18.692,-1.27,1.23,0.64,1.49,11.92,15.14,0.79,-2.35,4.12,949.97
18.694,-1.27,1.23,0.64,-8.65,10.91,15.22,0.79,-2.35,4.12,949.97
18.718,-1.27,1.23,0.64,-8.65,10.91,15.22,0.79,-2.35,4.12,949.95
18.754,-3.99,1.73,1.93,-8.65,10.91,15.22,0.79,-2.35,4.12,949.95
18.757,-3.99,1.73,1.93,-34.45,15.44,27.46,0.79,-2.35,4.12,949.95
18.758,-3.99,1.73,1.93,-34.45,15.44,27.46,3.81,-0.61,2.85,949.95
18.818,-1.9,-0.3,0.06,-34.45,15.44,27.46,3.81,-0.61,2.85,949.95
18.82,-1.9,-0.3,0.06,-13.28,-3.41,8.81,3.81,-0.61,2.85,949.95
18.822,-1.9,-0.3,0.06,-13.28,-3.41,8.81,3.68,-2.38,3.39,949.95
18.823,-1.9,-0.3,0.06,-13.28,-3.41,8.81,3.68,-2.38,3.39,949.93
18.881,-0.46,-0.56,-0.53,-13.28,-3.41,8.81,3.68,-2.38,3.39,949.93
18.883,-0.46,-0.56,-0.53,1.67,-5.01,2.39,3.68,-2.38,3.39,949.93
18.884,-0.46,-0.56,-0.53,1.67,-5.01,2.39,2.52,-1.27,0.72,949.93
18.921,-0.46,-0.56,-0.53,1.67,-5.01,2.39,2.52,-1.27,0.72,949.94
18.949,-0.46,-0.56,-0.53,2.54,-4.43,1.51,2.52,-1.27,0.72,949.94
18.951,-0.46,-0.56,-0.53,2.54,-4.43,1.51,0.46,-1.17,-0.15,949.94
18.951,-0.03,-0.87,-0.07,2.54,-4.43,1.51,0.46,-1.17,-0.15,949.94
19.008,0.17,-0.89,-0.71,2.54,-4.43,1.51,0.46,-1.17,-0.15,949.94
19.009,0.17,-0.89,-0.71,9.02,-7.25,-0.66,0.46,-1.17,-0.15,949.94
19.01,0.17,-0.89,-0.71,9.02,-7.25,-0.66,-0.03,-0.35,-0.86,949.94
19.027,0.17,-0.89,-0.71,9.02,-7.25,-0.66,-0.03,-0.35,-0.86,949.95
19.07,-1.47,-0.47,-0.3,9.02,-7.25,-0.66,-0.03,-0.35,-0.86,949.95
19.071,-1.47,-0.47,-0.3,8.38,-6.15,-0.32,-0.03,-0.35,-0.86,949.95
19.072,-1.47,-0.47,-0.3,8.38,-6.15,-0.32,-2.03,1.08,-2.15,949.95
19.134,-2.86,0.31,0.51,8.38,-6.15,-0.32,-2.03,1.08,-2.15,949.95
19.136,-2.86,0.31,0.51,-22.17,5.36,12.58,-2.03,1.08,-2.15,949.95
19.137,-2.86,0.31,0.51,-22.17,5.36,12.58,-6.18,1.85,-3.88,949.95
19.138,-2.86,0.31,0.51,-22.17,5.36,12.58,-6.18,1.85,-3.88,949.92
19.199,-1.98,1.43,0.7,-22.17,5.36,12.58,-6.18,1.85,-3.88,949.92
19.202,-1.98,1.43,0.7,-14.99,15.13,15.55,-6.18,1.85,-3.88,949.92
19.205,-1.98,1.43,0.7,-14.99,15.13,15.55,-2.53,2.11,-2.43,949.92
19.239,-1.98,1.43,0.7,-14.99,15.13,15.55,-2.53,2.11,-2.43,949.92
19.26,-0.94,1.27,0.79,-14.99,15.13,15.55,-2.53,2.11,-2.43,949.92
19.261,-0.94,1.27,0.79,-5.77,12.68,16.94,-2.53,2.11,-2.43,949.92
19.265,-0.94,1.27,0.79,-5.77,12.68,16.94,-2.31,1.52,-2.33,949.92
19.323,-0.23,1.3,0.46,-5.77,12.68,16.94,-2.31,1.52,-2.33,949.92
19.326,-0.23,1.3,0.46,-6.47,12.24,17.17,-2.31,1.52,-2.33,949.92
19.329,-0.23,1.3,0.46,-6.47,12.24,17.17,-0.57,0.59,-0.64,949.92
19.358,-0.23,1.3,0.46,-6.47,12.24,17.17,-0.57,0.59,-0.64,949.93
19.384,0.1,1.18,0.39,-6.47,12.24,17.17,-0.57,0.59,-0.64,949.93
19.387,0.1,1.18,0.39,3.64,11.11,13.28,-0.57,0.59,-0.64,949.93
19.388,0.1,1.18,0.39,3.64,11.11,13.28,0.17,-0.41,1.0,949.93
19.448,-0.94,1.05,0.61,3.64,11.11,13.28,0.17,-0.41,1.0,949.93
19.45,-0.94,1.05,0.61,3.64,11.11,13.28,0.76,-2.01,3.15,949.93
19.452,-0.94,1.05,0.61,3.64,11.11,13.28,0.76,-2.01,3.15,949.97
19.452,-0.94,1.05,0.61,-6.1,9.82,15.25,0.76,-2.01,3.15,949.97
19.521,-1.59,1.43,1.5,-6.1,9.82,15.25,0.76,-2.01,3.15,949.97
19.523,-1.59,1.43,1.5,-11.04,13.29,23.4,0.76,-2.01,3.15,949.97
19.525,-1.59,1.43,1.5,-11.04,13.29,23.4,0.86,-3.08,2.16,949.97
19.552,-1.59,1.43,1.5,-11.04,13.29,23.4,0.86,-3.08,2.16,949.96
19.574,-2.92,0.82,0.44,-11.04,13.29,23.4,0.86,-3.08,2.16,949.96
19.576,-2.92,0.82,0.44,-23.19,8.45,12.43,0.86,-3.08,2.16,949.96
19.578,-2.92,0.82,0.44,-23.19,8.45,12.43,4.93,-2.52,2.15,949.96
19.637,-0.78,-0.55,-0.33,-23.19,8.45,12.43,4.93,-2.52,2.15,949.96
19.639,-0.78,-0.55,-0.33,-23.19,8.45,12.43,2.93,-2.64,0.58,949.96
19.64,-0.78,-0.55,-0.33,-0.7,-3.97,3.53,2.93,-2.64,0.58,949.96
19.657,-0.78,-0.55,-0.33,-0.7,-3.97,3.53,2.93,-2.64,0.58,949.94
19.7,-0.3,-0.53,-0.26,-0.7,-3.97,3.53,2.93,-2.64,0.58,949.94
19.701,-0.3,-0.53,-0.26,4.88,-3.06,2.95,2.93,-2.64,0.58,949.94
19.702,-0.3,-0.53,-0.26,4.88,-3.06,2.95,0.57,-2.12,-0.2,949.94
19.763,-0.02,-0.7,-0.6,4.88,-3.06,2.95,0.57,-2.12,-0.2,949.94
19.765,-0.02,-0.7,-0.6,8.18,-4.37,-1.4,0.57,-2.12,-0.2,949.94
19.766,-0.02,-0.7,-0.6,8.18,-4.37,-1.4,0.65,-0.7,-0.34,949.94
19.767,-0.02,-0.7,-0.6,8.18,-4.37,-1.4,0.65,-0.7,-0.34,949.95
19.827,-0.78,-0.72,-0.41,8.18,-4.37,-1.4,0.65,-0.7,-0.34,949.95
19.828,-0.78,-0.72,-0.41,0.64,-4.26,0.52,0.65,-0.7,-0.34,949.95
19.83,-0.78,-0.72,-0.41,0.64,-4.26,0.52,-1.49,1.24,-1.09,949.95
19.868,-0.78,-0.72,-0.41,0.64,-4.26,0.52,-1.49,1.24,-1.09,949.94
19.89,-1.89,-0.23,-0.22,0.64,-4.26,0.52,-1.49,1.24,-1.09,949.94
19.892,-1.89,-0.23,-0.22,-11.24,0.89,3.66,-1.49,1.24,-1.09,949.94
19.894,-1.89,-0.23,-0.22,-11.24,0.89,3.66,-4.34,2.78,-2.42,949.94
19.953,-1.89,-0.23,-0.22,-12.95,-0.06,5.64,-4.34,2.78,-2.42,949.94
19.955,-1.89,-0.23,-0.22,-12.95,-0.06,5.64,-4.08,2.79,-2.32,949.94
19.956,-2.93,1.06,0.93,-12.95,-0.06,5.64,-4.08,2.79,-2.32,949.94
19.974,-2.93,1.06,0.93,-12.95,-0.06,5.64,-4.08,2.79,-2.32,949.9
20.019,-0.91,1.0,0.85,-12.95,-0.06,5.64,-4.08,2.79,-2.32,949.9
20.02,-0.91,1.0,0.85,-4.71,10.51,17.22,-4.08,2.79,-2.32,949.9
20.022,-0.91,1.0,0.85,-4.71,10.51,17.22,-3.98,2.29,-2.2,949.9
20.08,-0.53,1.23,0.87,-4.71,10.51,17.22,-3.98,2.29,-2.2,949.9
20.082,-0.53,1.23,0.87,-2.3,11.55,17.84,-3.98,2.29,-2.2,949.9
20.083,-0.53,1.23,0.87,-2.3,11.55,17.84,-1.79,1.7,-1.45,949.9
20.085,-0.53,1.23,0.87,-2.3,11.55,17.84,-1.79,1.7,-1.45,949.91
20.143,0.1,1.23,0.67,-2.3,11.55,17.84,-1.79,1.7,-1.45,949.91
20.144,0.1,1.23,0.67,3.49,10.77,15.93,-1.79,1.7,-1.45,949.91
20.147,0.1,1.23,0.67,3.49,10.77,15.93,-0.89,-0.23,0.47,949.91
20.184,0.1,1.23,0.67,3.49,10.77,15.93,-0.89,-0.23,0.47,949.96
20.206,-0.43,1.18,0.64,3.49,10.77,15.93,-0.89,-0.23,0.47,949.96
20.207,-0.43,1.18,0.64,-1.42,9.85,15.52,-0.89,-0.23,0.47,949.96
20.209,-0.43,1.18,0.64,-1.42,9.85,15.52,-0.06,-1.55,2.16,949.96
20.272,-0.92,1.26,0.6,-1.42,9.85,15.52,-0.06,-1.55,2.16,949.96
20.273,-0.92,1.26,0.6,-5.45,10.49,14.8,-0.06,-1.55,2.16,949.96
20.275,-0.92,1.26,0.6,-5.45,10.49,14.8,1.5,-2.95,3.29,949.96
20.29,-0.92,1.26,0.6,-5.45,10.49,14.8,1.5,-2.95,3.29,949.94
20.333,-0.92,1.26,0.6,-4.64,11.18,14.55,1.5,-2.95,3.29,949.94
20.336,-0.92,1.26,0.6,-4.64,11.18,14.55,5.62,-1.46,2.5,949.94
20.338,-3.41,1.15,1.33,-4.64,11.18,14.55,5.62,-1.46,2.5,949.94
20.397,-1.53,-0.27,-0.27,-4.64,11.18,14.55,5.62,-1.46,2.5,949.94
20.399,-1.53,-0.27,-0.27,-9.65,-1.99,5.51,5.62,-1.46,2.5,949.94
20.4,-1.53,-0.27,-0.27,-9.65,-1.99,5.51,3.66,-1.59,2.09,949.94
20.401,-1.53,-0.27,-0.27,-9.65,-1.99,5.51,3.66,-1.59,2.09,949.93
20.46,-0.2,-0.63,-0.14,-9.65,-1.99,5.51,3.66,-1.59,2.09,949.93
20.461,-0.2,-0.63,-0.14,4.2,-4.84,6.16,3.66,-1.59,2.09,949.93
20.463,-0.2,-0.63,-0.14,4.2,-4.84,6.16,0.87,-1.35,0.59,949.93
20.501,-0.2,-0.63,-0.14,4.2,-4.84,6.16,0.87,-1.35,0.59,949.94
20.523,-0.2,-0.63,-0.14,4.98,-4.52,5.39,0.87,-1.35,0.59,949.94
20.525,-0.2,-0.63,-0.14,4.98,-4.52,5.39,0.87,-0.83,-0.01,949.94
20.527,-0.01,-0.86,-0.28,4.98,-4.52,5.39,0.87,-0.83,-0.01,949.94
20.587,-0.01,-0.86,-0.28,6.9,-6.4,3.78,0.87,-0.83,-0.01,949.94
20.589,-0.01,-0.86,-0.28,6.9,-6.4,3.78,-0.56,0.31,-1.38,949.94
20.59,-0.18,-0.83,-0.53,6.9,-6.4,3.78,-0.56,0.31,-1.38,949.94
20.607,-0.18,-0.83,-0.53,6.9,-6.4,3.78,-0.56,0.31,-1.38,949.93
20.65,-0.18,-0.83,-0.53,4.6,-5.29,1.7,-0.56,0.31,-1.38,949.93
20.652,-0.18,-0.83,-0.53,4.6,-5.29,1.7,-2.17,0.95,-1.98,949.93
20.653,-1.21,-0.24,-0.75,4.6,-5.29,1.7,-2.17,0.95,-1.98,949.93
20.72,-3.14,0.87,1.23,4.6,-5.29,1.7,-2.17,0.95,-1.98,949.93
20.722,-3.14,0.87,1.23,-25.25,10.57,19.86,-2.17,0.95,-1.98,949.93
20.723,-3.14,0.87,1.23,-25.25,10.57,19.86,-4.48,2.1,-2.46,949.93
20.725,-3.14,0.87,1.23,-25.25,10.57,19.86,-4.48,2.1,-2.46,949.9
20.776,-1.16,1.19,0.49,-25.25,10.57,19.86,-4.48,2.1,-2.46,949.9
20.778,-1.16,1.19,0.49,-7.11,12.63,13.54,-4.48,2.1,-2.46,949.9
20.78,-1.16,1.19,0.49,-7.11,12.63,13.54,-2.84,1.99,-2.0,949.9
20.821,-1.16,1.19,0.49,-7.11,12.63,13.54,-2.84,1.99,-2.0,949.9
20.85,-0.71,1.25,0.89,-7.11,12.63,13.54,-2.84,1.99,-2.0,949.9
20.851,-0.71,1.25,0.89,-3.81,12.02,17.95,-2.84,1.99,-2.0,949.9
20.853,-0.71,1.25,0.89,-3.81,12.02,17.95,-2.24,1.79,-1.68,949.9
20.902,-0.23,1.36,0.64,-3.81,12.02,17.95,-2.24,1.79,-1.68,949.9
20.903,-0.23,1.36,0.64,0.22,12.6,15.77,-2.24,1.79,-1.68,949.9
20.904,-0.23,1.36,0.64,0.22,12.6,15.77,-0.51,0.5,0.0,949.9
20.921,-0.23,1.36,0.64,0.22,12.6,15.77,-0.51,0.5,0.0,949.91
20.964,0.01,1.13,0.47,0.22,12.6,15.77,-0.51,0.5,0.0,949.91
20.965,0.01,1.13,0.47,0.22,12.6,15.77,-0.12,-0.77,1.75,949.91
20.966,0.01,1.13,0.47,2.56,10.01,13.99,-0.12,-0.77,1.75,949.91
21.03,-1.21,1.16,0.78,2.56,10.01,13.99,-0.12,-0.77,1.75,949.91
21.032,-1.21,1.16,0.78,3.1,9.77,13.8,-0.12,-0.77,1.75,949.91
21.034,-1.21,1.16,0.78,3.1,9.77,13.8,1.41,-2.1,3.65,949.91
21.035,-1.21,1.16,0.78,3.1,9.77,13.8,1.41,-2.1,3.65,949.93
21.091,-2.69,1.67,1.98,3.1,9.77,13.8,1.41,-2.1,3.65,949.93
21.094,-2.69,1.67,1.98,-22.37,15.24,28.23,1.41,-2.1,3.65,949.93
21.095,-2.69,1.67,1.98,-22.37,15.24,28.23,2.1,-1.83,2.71,949.93
21.138,-2.69,1.67,1.98,-22.37,15.24,28.23,2.1,-1.83,2.71,949.92
21.166,-2.4,0.5,0.21,-22.37,15.24,28.23,2.1,-1.83,2.71,949.92
21.168,-2.4,0.5,0.21,-22.37,15.24,28.23,4.38,-2.21,2.97,949.92
21.169,-2.4,0.5,0.21,-18.72,5.19,10.59,4.38,-2.21,2.97,949.92
21.222,-0.51,-0.57,-0.29,-18.72,5.19,10.59,4.38,-2.21,2.97,949.92
21.223,-0.51,-0.57,-0.29,0.9,-4.3,4.9,4.38,-2.21,2.97,949.92
21.224,-0.51,-0.57,-0.29,0.9,-4.3,4.9,2.61,-1.66,1.0,949.92
21.251,-0.51,-0.57,-0.29,0.9,-4.3,4.9,2.61,-1.66,1.0,949.91
21.281,-0.12,-0.82,-0.19,0.9,-4.3,4.9,2.61,-1.66,1.0,949.91
21.283,-0.12,-0.82,-0.19,5.73,-6.09,4.77,2.61,-1.66,1.0,949.91
21.284,-0.12,-0.82,-0.19,5.73,-6.09,4.77,1.2,-1.28,0.18,949.91
21.345,0.07,-0.98,-0.67,5.73,-6.09,4.77,1.2,-1.28,0.18,949.91
21.347,0.07,-0.98,-0.67,7.9,-7.16,-0.36,1.2,-1.28,0.18,949.91
21.348,0.07,-0.98,-0.67,7.9,-7.16,-0.36,0.43,-0.25,-0.5,949.91
21.35,0.07,-0.98,-0.67,7.9,-7.16,-0.36,0.43,-0.25,-0.5,949.92
21.407,0.07,-0.98,-0.67,7.26,-6.15,-0.12,0.43,-0.25,-0.5,949.92
21.409,0.07,-0.98,-0.67,7.26,-6.15,-0.12,-1.89,0.87,-2.05,949.92
21.41,-1.01,-0.73,-0.14,7.26,-6.15,-0.12,-1.89,0.87,-2.05,949.92
21.447,-1.01,-0.73,-0.14,7.26,-6.15,-0.12,-1.89,0.87,-2.05,949.88
21.469,-1.01,-0.73,-0.14,-4.35,-3.55,5.9,-1.89,0.87,-2.05,949.88
21.471,-1.01,-0.73,-0.14,-4.35,-3.55,5.9,-5.44,1.48,-4.16,949.88
21.472,-2.47,-0.11,0.04,-4.35,-3.55,5.9,-5.44,1.48,-4.16,949.88
21.534,-2.74,1.45,1.11,-4.35,-3.55,5.9,-5.44,1.48,-4.16,949.88
21.535,-2.74,1.45,1.11,-23.01,16.62,19.55,-5.44,1.48,-4.16,949.88
21.537,-2.74,1.45,1.11,-23.01,16.62,19.55,-2.6,2.54,-3.4,949.88
21.554,-2.74,1.45,1.11,-23.01,16.62,19.55,-2.6,2.54,-3.4,949.88
21.597,-1.31,1.61,0.74,-23.01,16.62,19.55,-2.6,2.54,-3.4,949.88
21.599,-1.31,1.61,0.74,-10.56,17.3,16.67,-2.6,2.54,-3.4,949.88
21.6,-1.31,1.61,0.74,-10.56,17.3,16.67,-2.83,1.71,-2.84,949.88
21.662,-1.31,1.61,0.74,-11.5,16.32,16.96,-2.83,1.71,-2.84,949.88
21.665,-1.31,1.61,0.74,-11.5,16.32,16.96,-2.83,1.71,-2.84,949.91
21.668,-1.31,1.61,0.74,-11.5,16.32,16.96,-1.16,0.76,-1.05,949.91
21.67,-0.36,1.43,0.64,-11.5,16.32,16.96,-1.16,0.76,-1.05,949.91
21.724,0.28,1.22,0.49,-11.5,16.32,16.96,-1.16,0.76,-1.05,949.91
21.727,0.28,1.22,0.49,3.98,12.04,14.51,-1.16,0.76,-1.05,949.91
21.729,0.28,1.22,0.49,3.98,12.04,14.51,0.13,-0.17,0.96,949.91
21.764,0.28,1.22,0.49,3.98,12.04,14.51,0.13,-0.17,0.96,949.93
21.785,-0.72,1.08,0.61,3.98,12.04,14.51,0.13,-0.17,0.96,949.93
21.787,-0.72,1.08,0.61,-5.46,10.78,15.68,0.13,-0.17,0.96,949.93
21.788,-0.72,1.08,0.61,-5.46,10.78,15.68,0.62,-1.47,2.76,949.93
21.85,-1.19,1.65,0.81,-5.46,10.78,15.68,0.62,-1.47,2.76,949.93
21.851,-1.19,1.65,0.81,-8.78,16.49,17.29,0.62,-1.47,2.76,949.93
21.853,-1.19,1.65,0.81,-8.78,16.49,17.29,0.84,-3.02,3.48,949.93
21.869,-1.19,1.65,0.81,-8.78,16.49,17.29,0.84,-3.02,3.48,949.92
21.92,-3.35,1.22,0.5,-8.78,16.49,17.29,0.84,-3.02,3.48,949.92
21.922,-3.35,1.22,0.5,-28.96,13.24,13.84,0.84,-3.02,3.48,949.92
21.924,-3.35,1.22,0.5,-28.96,13.24,13.84,5.65,-1.33,2.84,949.92
21.976,-1.07,-0.59,-0.04,-28.96,13.24,13.84,5.65,-1.33,2.84,949.92
21.978,-1.07,-0.59,-0.04,-5.2,-3.15,7.43,5.65,-1.33,2.84,949.92
21.979,-1.07,-0.59,-0.04,-5.2,-3.15,7.43,2.7,-2.23,1.95,949.92
21.98,-1.07,-0.59,-0.04,-5.2,-3.15,7.43,2.7,-2.23,1.95,949.91
22.04,-0.24,-0.56,-0.26,-5.2,-3.15,7.43,2.7,-2.23,1.95,949.91
22.041,-0.24,-0.56,-0.26,3.79,-2.23,4.34,2.7,-2.23,1.95,949.91
22.043,-0.24,-0.56,-0.26,3.79,-2.23,4.34,1.14,-1.43,0.2,949.91
22.08,-0.24,-0.56,-0.26,3.79,-2.23,4.34,1.14,-1.43,0.2,949.94
22.103,0.05,-0.91,-0.29,3.79,-2.23,4.34,1.14,-1.43,0.2,949.94
22.106,0.05,-0.91,-0.29,3.79,-2.23,4.34,0.61,-0.99,-0.06,949.94
22.108,0.05,-0.91,-0.29,7.47,-5.41,3.1,0.61,-0.99,-0.06,949.94
22.167,-0.46,-0.91,-0.38,7.47,-5.41,3.1,0.61,-0.99,-0.06,949.94
22.168,-0.46,-0.91,-0.38,2.31,-4.83,1.97,0.61,-0.99,-0.06,949.94
22.17,-0.46,-0.91,-0.38,2.31,-4.83,1.97,-1.06,0.66,-1.94,949.94
22.186,-0.46,-0.91,-0.38,2.31,-4.83,1.97,-1.06,0.66,-1.94,949.92
22.23,-1.45,-0.18,-0.75,2.31,-4.83,1.97,-1.06,0.66,-1.94,949.92
22.232,-1.45,-0.18,-0.75,-8.49,3.15,-1.02,-1.06,0.66,-1.94,949.92
22.232,-1.45,-0.18,-0.75,-8.49,3.15,-1.02,-2.55,1.34,-2.85,949.92
22.292,-3.05,0.93,1.07,-8.49,3.15,-1.02,-2.55,1.34,-2.85,949.92
22.295,-3.05,0.93,1.07,-8.49,3.15,-1.02,-3.45,2.39,-3.62,949.92
22.297,-3.05,0.93,1.07,-25.8,13.35,18.31,-3.45,2.39,-3.62,949.92
22.299,-3.05,0.93,1.07,-25.8,13.35,18.31,-3.45,2.39,-3.62,949.89
22.357,-3.05,0.93,1.07,-27.7,12.55,19.38,-3.45,2.39,-3.62,949.89
22.362,-3.05,0.93,1.07,-27.7,12.55,19.38,-3.5,1.25,-3.07,949.89
22.363,-1.37,1.55,0.47,-27.7,12.55,19.38,-3.5,1.25,-3.07,949.89
22.398,-1.37,1.55,0.47,-27.7,12.55,19.38,-3.5,1.25,-3.07,949.88
22.418,-0.64,1.4,0.68,-27.7,12.55,19.38,-3.5,1.25,-3.07,949.88
22.419,-0.64,1.4,0.68,-5.27,15.7,16.2,-3.5,1.25,-3.07,949.88
22.421,-0.64,1.4,0.68,-5.27,15.7,16.2,-1.89,1.06,-1.47,949.88
22.483,-0.02,1.2,0.41,-5.27,15.7,16.2,-1.89,1.06,-1.47,949.88
22.484,-0.02,1.2,0.41,0.41,12.98,13.76,-1.89,1.06,-1.47,949.88
22.485,-0.02,1.2,0.41,0.41,12.98,13.76,-0.73,-0.02,-0.02,949.88
22.5,-0.02,1.2,0.41,0.41,12.98,13.76,-0.73,-0.02,-0.02,949.89
22.544,-0.08,1.12,0.45,0.41,12.98,13.76,-0.73,-0.02,-0.02,949.89
22.546,-0.08,1.12,0.45,0.05,11.9,14.1,-0.73,-0.02,-0.02,949.89
22.547,-0.08,1.12,0.45,0.05,11.9,14.1,0.05,-0.98,1.75,949.89
22.607,-1.22,1.31,0.6,0.05,11.9,14.1,0.05,-0.98,1.75,949.89
22.609,-1.22,1.31,0.6,-10.23,14.0,15.45,0.05,-0.98,1.75,949.89
22.61,-1.22,1.31,0.6,-10.23,14.0,15.45,1.5,-1.86,3.41,949.89
22.612,-1.22,1.31,0.6,-10.23,14.0,15.45,1.5,-1.86,3.41,949.92
22.67,-3.45,1.2,1.56,-10.23,14.0,15.45,1.5,-1.86,3.41,949.92
22.672,-3.45,1.2,1.56,-30.72,13.52,24.4,1.5,-1.86,3.41,949.92
22.673,-3.45,1.2,1.56,-30.72,13.52,24.4,3.93,-1.46,2.64,949.92
22.711,-3.45,1.2,1.56,-30.72,13.52,24.4,3.93,-1.46,2.64,949.92
22.732,-3.45,1.2,1.56,-29.45,15.28,23.32,3.93,-1.46,2.64,949.92
22.735,-3.45,1.2,1.56,-29.45,15.28,23.32,3.79,-1.47,2.36,949.92
22.736,-1.79,-0.02,-0.09,-29.45,15.28,23.32,3.79,-1.47,2.36,949.92
22.795,-0.59,-0.38,-0.18,-29.45,15.28,23.32,3.79,-1.47,2.36,949.92
22.797,-0.59,-0.38,-0.18,-12.3,4.14,6.12,3.79,-1.47,2.36,949.92
22.798,-0.59,-0.38,-0.18,-12.3,4.14,6.12,1.72,-0.86,0.88,949.92
22.815,-0.59,-0.38,-0.18,-12.3,4.14,6.12,1.72,-0.86,0.88,949.92
22.859,-0.13,-0.77,-0.0,-12.3,4.14,6.12,1.72,-0.86,0.88,949.92
22.86,-0.13,-0.77,-0.0,4.86,-3.01,6.18,1.72,-0.86,0.88,949.92
22.861,-0.13,-0.77,-0.0,4.86,-3.01,6.18,0.63,-0.88,0.36,949.92
22.921,-0.13,-0.77,-0.0,5.07,-2.82,5.81,0.63,-0.88,0.36,949.92
22.923,-0.13,-0.77,-0.0,5.07,-2.82,5.81,0.63,-0.88,0.36,949.92
22.924,-0.13,-0.77,-0.0,5.07,-2.82,5.81,0.49,0.12,-0.12,949.92
22.924,0.03,-1.0,-0.6,5.07,-2.82,5.81,0.49,0.12,-0.12,949.92
22.986,-1.16,-0.63,-0.43,5.07,-2.82,5.81,0.49,0.12,-0.12,949.92
22.988,-1.16,-0.63,-0.43,5.07,-2.82,5.81,-1.4,1.24,-1.58,949.92
22.989,-1.16,-0.63,-0.43,-5.68,-0.91,1.85,-1.4,1.24,-1.58,949.92
23.025,-1.16,-0.63,-0.43,-5.68,-0.91,1.85,-1.4,1.24,-1.58,949.91
23.054,-3.05,0.53,0.98,-5.68,-0.91,1.85,-1.4,1.24,-1.58,949.91
23.055,-3.05,0.53,0.98,-25.59,10.19,16.83,-1.4,1.24,-1.58,949.91
23.057,-3.05,0.53,0.98,-25.59,10.19,16.83,-5.19,1.49,-4.12,949.91
23.109,-1.55,1.48,0.46,-25.59,10.19,16.83,-5.19,1.49,-4.12,949.91
23.111,-1.55,1.48,0.46,-27.25,9.29,18.08,-5.19,1.49,-4.12,949.91
23.112,-1.55,1.48,0.46,-27.25,9.29,18.08,-1.49,1.59,-3.08,949.91
23.146,-1.55,1.48,0.46,-27.25,9.29,18.08,-1.49,1.59,-3.08,949.89
23.18,-1.05,1.49,0.41,-27.25,9.29,18.08,-1.49,1.59,-3.08,949.89
23.182,-1.05,1.49,0.41,-9.02,18.1,13.09,-1.49,1.59,-3.08,949.89
23.184,-1.05,1.49,0.41,-9.02,18.1,13.09,-2.1,0.77,-2.2,949.89
23.237,-0.29,1.0,0.36,-9.02,18.1,13.09,-2.1,0.77,-2.2,949.89
23.239,-0.29,1.0,0.36,-2.03,12.32,12.98,-2.1,0.77,-2.2,949.89
23.24,-0.29,1.0,0.36,-2.03,12.32,12.98,-0.96,0.18,-0.59,949.89
23.24,-0.29,1.0,0.36,-2.03,12.32,12.98,-0.96,0.18,-0.59,949.91
23.299,0.19,1.1,0.15,-2.03,12.32,12.98,-0.96,0.18,-0.59,949.91
23.301,0.19,1.1,0.15,2.61,13.1,11.01,-0.96,0.18,-0.59,949.91
23.302,0.19,1.1,0.15,2.61,13.1,11.01,0.12,-0.12,1.03,949.91
23.34,0.19,1.1,0.15,2.61,13.1,11.01,0.12,-0.12,1.03,949.92
23.369,-0.89,1.18,0.57,2.61,13.1,11.01,0.12,-0.12,1.03,949.92
23.37,-0.89,1.18,0.57,-7.17,13.1,15.19,0.12,-0.12,1.03,949.92
23.371,-0.89,1.18,0.57,-7.17,13.1,15.19,0.26,-1.33,2.82,949.92
23.425,-1.24,1.66,0.81,-7.17,13.1,15.19,0.26,-1.33,2.82,949.92
23.426,-1.24,1.66,0.81,-5.83,13.14,14.87,0.26,-1.33,2.82,949.92
23.428,-1.24,1.66,0.81,-5.83,13.14,14.87,1.15,-2.32,3.69,949.92
23.445,-1.24,1.66,0.81,-5.83,13.14,14.87,1.15,-2.32,3.69,949.9
23.488,-1.24,1.66,0.81,-8.28,18.79,16.63,1.15,-2.32,3.69,949.9
23.491,-1.24,1.66,0.81,-8.28,18.79,16.63,4.99,-1.27,3.77,949.9
23.491,-3.15,1.05,0.27,-8.28,18.79,16.63,4.99,-1.27,3.77,949.9
23.55,-0.92,-0.42,-0.35,-8.28,18.79,16.63,4.99,-1.27,3.77,949.9
23.552,-0.92,-0.42,-0.35,-3.8,-0.85,4.23,4.99,-1.27,3.77,949.9
23.553,-0.92,-0.42,-0.35,-3.8,-0.85,4.23,2.0,-1.55,2.26,949.9
23.554,-0.92,-0.42,-0.35,-3.8,-0.85,4.23,2.0,-1.55,2.26,949.9
23.614,-0.92,-0.42,-0.35,-2.85,-0.83,3.48,2.0,-1.55,2.26,949.9
23.615,-0.92,-0.42,-0.35,-2.85,-0.83,3.48,-0.08,-1.22,0.3,949.9
23.616,-0.18,-0.41,-0.11,-2.85,-0.83,3.48,-0.08,-1.22,0.3,949.9
23.656,-0.18,-0.41,-0.11,-2.85,-0.83,3.48,-0.08,-1.22,0.3,949.93
23.685,-0.12,-0.75,-0.03,-2.85,-0.83,3.48,-0.08,-1.22,0.3,949.93
23.686,-0.12,-0.75,-0.03,5.63,-4.15,6.03,-0.08,-1.22,0.3,949.93
23.688,-0.12,-0.75,-0.03,5.63,-4.15,6.03,0.5,-0.77,0.04,949.93
23.741,-0.12,-0.75,-0.03,5.69,-3.79,5.77,0.5,-0.77,0.04,949.93
23.744,-0.12,-0.75,-0.03,5.69,-3.79,5.77,-0.18,0.55,-1.47,949.93
23.745,-0.22,-0.74,-0.61,5.69,-3.79,5.77,-0.18,0.55,-1.47,949.93
23.768,-0.22,-0.74,-0.61,5.69,-3.79,5.77,-0.18,0.55,-1.47,949.91
23.804,-0.22,-0.74,-0.61,4.04,-3.25,0.53,-0.18,0.55,-1.47,949.91
23.805,-0.22,-0.74,-0.61,4.04,-3.25,0.53,-1.72,1.01,-2.08,949.91
23.807,-1.2,-0.19,-0.76,4.04,-3.25,0.53,-1.72,1.01,-2.08,949.91
23.868,-1.2,-0.19,-0.76,-6.87,1.77,0.25,-1.72,1.01,-2.08,949.91
23.869,-1.2,-0.19,-0.76,-6.87,1.77,0.25,-1.72,1.01,-2.08,949.88
23.87,-1.2,-0.19,-0.76,-6.87,1.77,0.25,-3.79,2.18,-3.29,949.88
23.871,-3.03,1.11,0.89,-6.87,1.77,0.25,-3.79,2.18,-3.29,949.88
23.939,-3.03,1.11,0.89,-26.57,13.87,17.52,-3.79,2.18,-3.29,949.88
23.941,-3.03,1.11,0.89,-26.57,13.87,17.52,-2.77,1.82,-2.82,949.88
23.942,-1.29,1.47,0.24,-26.57,13.87,17.52,-2.77,1.82,-2.82,949.88
23.972,-1.29,1.47,0.24,-26.57,13.87,17.52,-2.77,1.82,-2.82,949.88
23.995,-0.7,1.2,0.58,-26.57,13.87,17.52,-2.77,1.82,-2.82,949.88
23.996,-0.7,1.2,0.58,-5.15,13.8,15.09,-2.77,1.82,-2.82,949.88
23.997,-0.7,1.2,0.58,-5.15,13.8,15.09,-1.67,1.57,-1.96,949.88
24.057,0.18,1.04,0.43,-5.15,13.8,15.09,-1.67,1.57,-1.96,949.88
24.059,0.18,1.04,0.43,2.83,11.46,13.83,-1.67,1.57,-1.96,949.88
24.061,0.18,1.04,0.43,2.83,11.46,13.83,-0.69,0.26,-0.42,949.88
24.076,0.18,1.04,0.43,2.83,11.46,13.83,-0.69,0.26,-0.42,949.89
24.12,-0.18,1.45,0.33,2.83,11.46,13.83,-0.69,0.26,-0.42,949.89
24.121,-0.18,1.45,0.33,-0.92,15.44,12.96,-0.69,0.26,-0.42,949.89
24.121,-0.18,1.45,0.33,-0.92,15.44,12.96,-0.18,-0.34,1.24,949.89
24.183,-1.07,1.31,0.45,-0.92,15.44,12.96,-0.18,-0.34,1.24,949.89
24.184,-1.07,1.31,0.45,-8.77,13.84,13.98,-0.18,-0.34,1.24,949.89
24.185,-1.07,1.31,0.45,-8.77,13.84,13.98,-0.07,-2.45,3.49,949.89
24.186,-1.07,1.31,0.45,-8.77,13.84,13.98,-0.07,-2.45,3.49,949.93
24.246,-2.91,1.31,2.14,-8.77,13.84,13.98,-0.07,-2.45,3.49,949.93
24.249,-2.91,1.31,2.14,-24.96,13.13,30.1,-0.07,-2.45,3.49,949.93
24.25,-2.91,1.31,2.14,-24.96,13.13,30.1,0.59,-2.27,2.22,949.93
24.287,-2.91,1.31,2.14,-24.96,13.13,30.1,0.59,-2.27,2.22,949.92
24.308,-1.97,0.38,0.12,-24.96,13.13,30.1,0.59,-2.27,2.22,949.92
24.31,-1.97,0.38,0.12,-23.44,13.82,29.3,0.59,-2.27,2.22,949.92
24.311,-1.97,0.38,0.12,-23.44,13.82,29.3,2.52,-3.14,1.92,949.92
24.373,-0.75,-0.23,-0.36,-23.44,13.82,29.3,2.52,-3.14,1.92,949.92
24.374,-0.75,-0.23,-0.36,-0.94,-1.08,3.79,2.52,-3.14,1.92,949.92
24.375,-0.75,-0.23,-0.36,-0.94,-1.08,3.79,-0.48,-2.47,0.57,949.92
24.392,-0.75,-0.23,-0.36,-0.94,-1.08,3.79,-0.48,-2.47,0.57,949.91
24.437,-0.31,-0.45,-0.05,-0.94,-1.08,3.79,-0.48,-2.47,0.57,949.91
24.438,-0.31,-0.45,-0.05,4.54,-3.76,5.75,-0.48,-2.47,0.57,949.91
24.439,-0.31,-0.45,-0.05,4.54,-3.76,5.75,-0.69,-1.46,-0.01,949.91
24.501,-0.2,-0.55,-0.51,4.54,-3.76,5.75,-0.69,-1.46,-0.01,949.91
24.503,-0.2,-0.55,-0.51,5.97,-4.75,0.83,-0.69,-1.46,-0.01,949.91
24.504,-0.2,-0.55,-0.51,5.97,-4.75,0.83,0.26,0.05,-0.4,949.91
24.505,-0.2,-0.55,-0.51,5.97,-4.75,0.83,0.26,0.05,-0.4,949.92
24.565,-1.15,-0.5,0.18,5.97,-4.75,0.83,0.26,0.05,-0.4,949.92
24.568,-1.15,-0.5,0.18,-3.71,-3.99,7.89,0.26,0.05,-0.4,949.92
24.57,-1.15,-0.5,0.18,-3.71,-3.99,7.89,-0.71,1.61,-0.83,949.92
24.604,-1.15,-0.5,0.18,-3.71,-3.99,7.89,-0.71,1.61,-0.83,949.9
24.626,-1.65,0.04,-0.11,-3.71,-3.99,7.89,-0.71,1.61,-0.83,949.9
24.627,-1.65,0.04,-0.11,-3.71,-3.99,7.89,-3.0,2.76,-2.17,949.9
24.628,-1.65,0.04,-0.11,-9.25,1.82,5.75,-3.0,2.76,-2.17,949.9
24.689,-2.19,0.91,1.66,-9.25,1.82,5.75,-3.0,2.76,-2.17,949.9
24.691,-2.19,0.91,1.66,-10.56,0.99,6.97,-3.0,2.76,-2.17,949.9
24.691,-2.19,0.91,1.66,-10.56,0.99,6.97,-2.88,2.1,-2.05,949.9
24.708,-2.19,0.91,1.66,-10.56,0.99,6.97,-2.88,2.1,-2.05,949.89
24.752,-0.97,1.16,0.8,-10.56,0.99,6.97,-2.88,2.1,-2.05,949.89
24.754,-0.97,1.16,0.8,-5.07,11.55,16.56,-2.88,2.1,-2.05,949.89
24.755,-0.97,1.16,0.8,-5.07,11.55,16.56,-1.74,2.82,-2.11,949.89
24.817,-0.34,1.27,0.71,-5.07,11.55,16.56,-1.74,2.82,-2.11,949.89
24.818,-0.34,1.27,0.71,-6.18,11.01,17.03,-1.74,2.82,-2.11,949.89
24.819,-0.34,1.27,0.71,-6.18,11.01,17.03,-1.45,1.3,-1.26,949.89
24.819,-0.34,1.27,0.71,-6.18,11.01,17.03,-1.45,1.3,-1.26,949.92
24.88,0.05,1.5,0.57,-6.18,11.01,17.03,-1.45,1.3,-1.26,949.92
24.882,0.05,1.5,0.57,3.2,14.11,14.98,-1.45,1.3,-1.26,949.92
24.883,0.05,1.5,0.57,3.2,14.11,14.98,0.81,0.42,0.53,949.92
24.92,0.05,1.5,0.57,3.2,14.11,14.98,0.81,0.42,0.53,949.98
24.943,-1.11,1.17,1.13,3.2,14.11,14.98,0.81,0.42,0.53,949.98
24.945,-1.11,1.17,1.13,-7.91,10.93,20.44,0.81,0.42,0.53,949.98
24.947,-1.11,1.17,1.13,-7.91,10.93,20.44,1.01,-1.4,2.57,949.98
25.006,-1.32,1.05,0.7,-7.91,10.93,20.44,1.01,-1.4,2.57,949.98
25.007,-1.32,1.05,0.7,-9.02,10.26,15.87,1.01,-1.4,2.57,949.98
25.009,-1.32,1.05,0.7,-9.02,10.26,15.87,2.61,-1.9,3.45,949.98
25.027,-1.32,1.05,0.7,-9.02,10.26,15.87,2.61,-1.9,3.45,949.95
25.069,-3.01,0.72,0.88,-9.02,10.26,15.87,2.61,-1.9,3.45,949.95
25.07,-3.01,0.72,0.88,-24.93,7.98,17.27,2.61,-1.9,3.45,949.95
25.072,-3.01,0.72,0.88,-24.93,7.98,17.27,4.65,-0.55,2.15,949.95
25.14,-1.08,-0.51,-0.19,-24.93,7.98,17.27,4.65,-0.55,2.15,949.95
25.141,-1.08,-0.51,-0.19,-5.4,-2.78,6.13,4.65,-0.55,2.15,949.95
25.143,-1.08,-0.51,-0.19,-5.4,-2.78,6.13,1.67,-1.24,1.72,949.95
25.143,-1.08,-0.51,-0.19,-5.4,-2.78,6.13,1.67,-1.24,1.72,949.93
25.197,-0.02,-0.62,-0.2,-5.4,-2.78,6.13,1.67,-1.24,1.72,949.93
25.199,-0.02,-0.62,-0.2,5.54,-3.32,5.47,1.67,-1.24,1.72,949.93
25.2,-0.02,-0.62,-0.2,5.54,-3.32,5.47,1.79,-0.13,-0.13,949.93
25.24,-0.02,-0.62,-0.2,5.54,-3.32,5.47,1.79,-0.13,-0.13,949.94
25.268,0.07,-0.86,-0.22,5.54,-3.32,5.47,1.79,-0.13,-0.13,949.94
25.27,0.07,-0.86,-0.22,5.54,-3.32,5.47,0.65,-0.59,-0.51,949.94
25.271,0.07,-0.86,-0.22,6.68,-5.03,4.8,0.65,-0.59,-0.51,949.94
25.323,-0.67,-0.62,-0.4,6.68,-5.03,4.8,0.65,-0.59,-0.51,949.94
25.325,-0.67,-0.62,-0.4,-0.71,-2.16,2.95,0.65,-0.59,-0.51,949.94
25.326,-0.67,-0.62,-0.4,-0.71,-2.16,2.95,-0.54,0.59,-1.82,949.94
25.345,-0.67,-0.62,-0.4,-0.71,-2.16,2.95,-0.54,0.59,-1.82,949.95
25.386,-1.7,-0.02,-0.71,-0.71,-2.16,2.95,-0.54,0.59,-1.82,949.95
25.387,-1.7,-0.02,-0.71,-11.43,4.06,0.21,-0.54,0.59,-1.82,949.95
25.389,-1.7,-0.02,-0.71,-11.43,4.06,0.21,-2.9,1.01,-2.63,949.95
25.449,-1.7,-0.02,-0.71,-12.81,3.08,1.49,-2.9,1.01,-2.63,949.95
25.453,-1.7,-0.02,-0.71,-12.81,3.08,1.49,-2.9,1.01,-2.63,949.94
25.454,-1.7,-0.02,-0.71,-12.81,3.08,1.49,-3.12,1.77,-2.97,949.94
25.455,-2.97,1.07,0.8,-12.81,3.08,1.49,-3.12,1.77,-2.97,949.94
25.512,-2.97,1.07,0.8,-26.37,12.71,16.97,-3.12,1.77,-2.97,949.94
25.516,-2.97,1.07,0.8,-26.37,12.71,16.97,-3.11,0.86,-2.51,949.94
25.517,-1.05,1.33,0.51,-26.37,12.71,16.97,-3.11,0.86,-2.51,949.94
25.561,-1.05,1.33,0.51,-26.37,12.71,16.97,-3.11,0.86,-2.51,949.91
25.596,-0.74,1.51,0.68,-26.37,12.71,16.97,-3.11,0.86,-2.51,949.91
25.599,-0.74,1.51,0.68,-5.29,15.99,16.21,-3.11,0.86,-2.51,949.91
25.6,-0.74,1.51,0.68,-5.29,15.99,16.21,-1.31,0.64,-1.3,949.91
25.64,0.05,1.32,0.36,-5.29,15.99,16.21,-1.31,0.64,-1.3,949.91
25.642,0.05,1.32,0.36,2.44,13.59,13.1,-1.31,0.64,-1.3,949.91
25.643,0.05,1.32,0.36,2.44,13.59,13.1,-0.38,-0.6,0.97,949.91
25.67,0.05,1.32,0.36,2.44,13.59,13.1,-0.38,-0.6,0.97,949.93
25.699,-0.73,1.28,0.45,2.44,13.59,13.1,-0.38,-0.6,0.97,949.93
25.701,-0.73,1.28,0.45,-4.71,13.14,13.85,-0.38,-0.6,0.97,949.93
25.702,-0.73,1.28,0.45,-4.71,13.14,13.85,0.56,-1.46,2.44,949.93
25.763,-0.73,1.28,0.45,-3.51,13.02,13.47,0.56,-1.46,2.44,949.93
25.765,-0.73,1.28,0.45,-3.51,13.02,13.47,1.34,-2.97,4.12,949.93
25.766,-0.73,1.28,0.45,-3.51,13.02,13.47,1.34,-2.97,4.12,949.94
25.767,-1.46,0.98,0.55,-3.51,13.02,13.47,1.34,-2.97,4.12,949.94
25.825,-2.64,0.8,2.0,-3.51,13.02,13.47,1.34,-2.97,4.12,949.94
25.826,-2.64,0.8,2.0,-20.53,7.87,27.76,1.34,-2.97,4.12,949.94
25.827,-2.64,0.8,2.0,-20.53,7.87,27.76,1.9,-2.01,2.06,949.94
25.865,-2.64,0.8,2.0,-20.53,7.87,27.76,1.9,-2.01,2.06,949.92
25.889,-2.64,0.8,2.0,-19.51,8.47,26.96,1.9,-2.01,2.06,949.92
25.892,-2.64,0.8,2.0,-19.51,8.47,26.96,0.82,-2.84,1.78,949.92
25.893,-1.67,0.14,-0.02,-19.51,8.47,26.96,0.82,-2.84,1.78,949.92
25.952,-1.67,0.14,-0.02,-8.67,1.34,5.94,0.82,-2.84,1.78,949.92
25.955,-1.67,0.14,-0.02,-8.67,1.34,5.94,-0.91,-2.15,0.43,949.92
25.956,-0.26,-0.3,-0.35,-8.67,1.34,5.94,-0.91,-2.15,0.43,949.92
25.971,-0.26,-0.3,-0.35,-8.67,1.34,5.94,-0.91,-2.15,0.43,949.93
26.014,-0.21,-0.3,-0.13,-8.67,1.34,5.94,-0.91,-2.15,0.43,949.93
26.016,-0.21,-0.3,-0.13,6.28,-3.37,3.78,-0.91,-2.15,0.43,949.93
26.016,-0.21,-0.3,-0.13,6.28,-3.37,3.78,-1.11,-1.15,-0.04,949.93
26.08,-0.21,-0.3,-0.13,6.48,-3.54,3.42,-1.11,-1.15,-0.04,949.93
26.083,-0.21,-0.3,-0.13,6.48,-3.54,3.42,-1.11,-1.15,-0.04,949.93
26.084,-0.21,-0.3,-0.13,6.48,-3.54,3.42,-0.03,0.54,-0.31,949.93
26.085,-0.33,-0.43,-0.36,6.48,-3.54,3.42,-0.03,0.54,-0.31,949.93
26.143,-0.33,-0.43,-0.36,4.97,-4.68,1.91,-0.03,0.54,-0.31,949.93
26.146,-0.33,-0.43,-0.36,4.97,-4.68,1.91,-0.06,2.02,-0.61,949.93
26.147,-0.85,-0.44,-0.07,4.97,-4.68,1.91,-0.06,2.02,-0.61,949.93
26.183,-0.85,-0.44,-0.07,4.97,-4.68,1.91,-0.06,2.02,-0.61,949.91
26.205,-2.07,0.17,1.09,4.97,-4.68,1.91,-0.06,2.02,-0.61,949.91
26.207,-2.07,0.17,1.09,-12.97,1.59,17.15,-0.06,2.02,-0.61,949.91
26.208,-2.07,0.17,1.09,-12.97,1.59,17.15,-3.34,3.12,-2.15,949.91
26.271,-1.67,0.85,1.46,-12.97,1.59,17.15,-3.34,3.12,-2.15,949.91
26.272,-1.67,0.85,1.46,-10.08,7.76,21.78,-3.34,3.12,-2.15,949.91
26.274,-1.67,0.85,1.46,-10.08,7.76,21.78,-2.0,2.68,-1.82,949.91
26.29,-1.67,0.85,1.46,-10.08,7.76,21.78,-2.0,2.68,-1.82,949.9
26.341,-0.99,1.18,1.02,-10.08,7.76,21.78,-2.0,2.68,-1.82,949.9
26.343,-0.99,1.18,1.02,-4.64,10.64,18.37,-2.0,2.68,-1.82,949.9
26.346,-0.99,1.18,1.02,-4.64,10.64,18.37,-2.53,2.59,-1.76,949.9
26.397,-0.12,1.17,1.18,-4.64,10.64,18.37,-2.53,2.59,-1.76,949.9
26.399,-0.12,1.17,1.18,2.97,9.63,20.24,-2.53,2.59,-1.76,949.9
26.4,-0.12,1.17,1.18,2.97,9.63,20.24,-1.52,0.99,-0.59,949.9
26.4,-0.12,1.17,1.18,2.97,9.63,20.24,-1.52,0.99,-0.59,949.91
26.461,0.21,1.28,0.8,2.97,9.63,20.24,-1.52,0.99,-0.59,949.91
26.463,0.21,1.28,0.8,5.79,10.67,16.73,-1.52,0.99,-0.59,949.91
26.465,0.21,1.28,0.8,5.79,10.67,16.73,1.57,0.55,0.54,949.91
26.5,0.21,1.28,0.8,5.79,10.67,16.73,1.57,0.55,0.54,949.95
26.522,0.21,1.28,0.8,5.89,11.36,16.81,1.57,0.55,0.54,949.95
26.525,0.21,1.28,0.8,5.89,11.36,16.81,1.84,-1.63,2.07,949.95
26.527,-0.94,1.16,1.05,5.89,11.36,16.81,1.84,-1.63,2.07,949.95
26.587,-1.32,1.2,1.16,5.89,11.36,16.81,1.84,-1.63,2.07,949.95
26.588,-1.32,1.2,1.16,-4.44,10.84,18.81,1.84,-1.63,2.07,949.95
26.59,-1.32,1.2,1.16,-4.44,10.84,18.81,2.81,-2.0,2.32,949.95
26.606,-1.32,1.2,1.16,-4.44,10.84,18.81,2.81,-2.0,2.32,949.95
26.649,-2.76,0.91,0.85,-4.44,10.84,18.81,2.81,-2.0,2.32,949.95
26.651,-2.76,0.91,0.85,-21.54,9.66,16.4,2.81,-2.0,2.32,949.95
26.653,-2.76,0.91,0.85,-21.54,9.66,16.4,5.08,-2.03,2.55,949.95
26.714,-1.15,-0.05,-0.27,-21.54,9.66,16.4,5.08,-2.03,2.55,949.95
26.715,-1.15,-0.05,-0.27,-4.7,1.45,4.42,5.08,-2.03,2.55,949.95
26.716,-1.15,-0.05,-0.27,-4.7,1.45,4.42,2.44,-1.52,1.81,949.95
26.717,-1.15,-0.05,-0.27,-4.7,1.45,4.42,2.44,-1.52,1.81,949.94
26.776,-1.15,-0.05,-0.27,-3.87,1.48,3.54,2.44,-1.52,1.81,949.94
26.782,-1.15,-0.05,-0.27,-3.87,1.48,3.54,1.01,-0.93,0.55,949.94
26.784,-0.12,-0.58,-0.02,-3.87,1.48,3.54,1.01,-0.93,0.55,949.94
26.816,-0.12,-0.58,-0.02,-3.87,1.48,3.54,1.01,-0.93,0.55,949.95
26.838,-0.06,-0.87,-0.36,-3.87,1.48,3.54,1.01,-0.93,0.55,949.95
26.839,-0.06,-0.87,-0.36,7.1,-6.33,2.05,1.01,-0.93,0.55,949.95
26.84,-0.06,-0.87,-0.36,7.1,-6.33,2.05,1.31,-0.3,0.17,949.95
26.901,-0.44,-0.86,-0.41,7.1,-6.33,2.05,1.31,-0.3,0.17,949.95
26.902,-0.44,-0.86,-0.41,3.34,-5.79,1.5,1.31,-0.3,0.17,949.95
26.903,-0.44,-0.86,-0.41,3.34,-5.79,1.5,-0.45,0.7,-1.34,949.95
26.921,-0.44,-0.86,-0.41,3.34,-5.79,1.5,-0.45,0.7,-1.34,949.94
26.964,-0.44,-0.86,-0.41,2.42,-4.67,2.03,-0.45,0.7,-1.34,949.94
26.966,-0.44,-0.86,-0.41,2.42,-4.67,2.03,-1.91,1.57,-2.89,949.94
26.967,-1.09,-0.32,-0.84,2.42,-4.67,2.03,-1.91,1.57,-2.89,949.94
27.031,-3.21,1.17,1.0,2.42,-4.67,2.03,-1.91,1.57,-2.89,949.94
27.032,-3.21,1.17,1.0,2.42,-4.67,2.03,-3.27,2.05,-4.12,949.94
27.033,-3.21,1.17,1.0,2.42,-4.67,2.03,-3.27,2.05,-4.12,949.92
27.034,-3.21,1.17,1.0,-26.4,15.38,17.19,-3.27,2.05,-4.12,949.92
27.091,-1.28,1.46,0.44,-26.4,15.38,17.19,-3.27,2.05,-4.12,949.92
27.092,-1.28,1.46,0.44,-26.4,15.38,17.19,-3.03,0.96,-3.17,949.92
27.093,-1.28,1.46,0.44,-9.11,17.83,12.84,-3.03,0.96,-3.17,949.92
27.142,-1.28,1.46,0.44,-9.11,17.83,12.84,-3.03,0.96,-3.17,949.9
27.175,-0.74,1.62,0.96,-9.11,17.83,12.84,-3.03,0.96,-3.17,949.9
27.176,-0.74,1.62,0.96,-4.75,18.21,18.57,-3.03,0.96,-3.17,949.9
27.178,-0.74,1.62,0.96,-4.75,18.21,18.57,-2.16,0.76,-1.86,949.9
27.218,-0.18,1.68,0.37,-4.75,18.21,18.57,-2.16,0.76,-1.86,949.9
27.22,-0.18,1.68,0.37,0.27,18.44,13.04,-2.16,0.76,-1.86,949.9
27.221,-0.18,1.68,0.37,0.27,18.44,13.04,-0.07,-0.26,0.4,949.9
27.239,-0.18,1.68,0.37,0.27,18.44,13.04,-0.07,-0.26,0.4,949.92
27.281,-0.41,1.14,0.48,0.27,18.44,13.04,-0.07,-0.26,0.4,949.92
27.283,-0.41,1.14,0.48,-1.5,13.03,13.95,-0.07,-0.26,0.4,949.92
27.285,-0.41,1.14,0.48,-1.5,13.03,13.95,0.68,-1.12,2.56,949.92
27.346,-0.41,1.14,0.48,-0.42,13.14,13.56,0.68,-1.12,2.56,949.92
27.35,-0.41,1.14,0.48,-0.42,13.14,13.56,0.68,-1.12,2.56,949.97
27.351,-0.41,1.14,0.48,-0.42,13.14,13.56,2.13,-1.7,4.29,949.97
27.352,-1.13,0.97,0.48,-0.42,13.14,13.56,2.13,-1.7,4.29,949.97
27.408,-1.13,0.97,0.48,-6.13,11.58,12.94,2.13,-1.7,4.29,949.97
27.41,-1.13,0.97,0.48,-6.13,11.58,12.94,3.04,-0.78,2.62,949.97
27.411,-3.09,1.42,1.8,-6.13,11.58,12.94,3.04,-0.78,2.62,949.97
27.448,-3.09,1.42,1.8,-6.13,11.58,12.94,3.04,-0.78,2.62,949.92
27.47,-2.0,0.35,-0.29,-6.13,11.58,12.94,3.04,-0.78,2.62,949.92
27.471,-2.0,0.35,-0.29,-13.69,6.44,4.4,3.04,-0.78,2.62,949.92
27.473,-2.0,0.35,-0.29,-13.69,6.44,4.4,2.74,-1.59,2.7,949.92
27.541,-0.26,-0.51,-0.2,-13.69,6.44,4.4,2.74,-1.59,2.7,949.92
27.543,-0.26,-0.51,-0.2,-13.69,6.44,4.4,-0.26,-1.75,0.98,949.92
27.544,-0.26,-0.51,-0.2,4.44,-2.41,4.37,-0.26,-1.75,0.98,949.92
27.572,-0.26,-0.51,-0.2,4.44,-2.41,4.37,-0.26,-1.75,0.98,949.93
27.597,-0.1,-0.58,-0.1,4.44,-2.41,4.37,-0.26,-1.75,0.98,949.93
27.599,-0.1,-0.58,-0.1,6.69,-3.31,4.69,-0.26,-1.75,0.98,949.93
27.6,-0.1,-0.58,-0.1,6.69,-3.31,4.69,-0.06,-0.92,-0.46,949.93
27.662,-0.1,-0.58,-0.1,6.81,-2.98,4.37,-0.06,-0.92,-0.46,949.93
27.665,-0.1,-0.58,-0.1,6.81,-2.98,4.37,-0.06,-0.92,-0.46,949.94
27.666,-0.1,-0.58,-0.1,6.81,-2.98,4.37,0.39,-0.01,-0.68,949.94
27.667,-0.18,-0.67,-0.5,6.81,-2.98,4.37,0.39,-0.01,-0.68,949.94
27.725,-0.9,-0.47,-0.28,6.81,-2.98,4.37,0.39,-0.01,-0.68,949.94
27.727,-0.9,-0.47,-0.28,-1.39,-1.48,2.83,0.39,-0.01,-0.68,949.94
27.728,-0.9,-0.47,-0.28,-1.39,-1.48,2.83,-0.96,1.15,-1.69,949.94
27.771,-0.9,-0.47,-0.28,-1.39,-1.48,2.83,-0.96,1.15,-1.69,949.91
27.808,-0.9,-0.47,-0.28,-2.34,-1.09,3.71,-0.96,1.15,-1.69,949.91
27.811,-0.9,-0.47,-0.28,-2.34,-1.09,3.71,-3.87,2.21,-3.64,949.91
27.812,-2.79,0.57,0.51,-2.34,-1.09,3.71,-3.87,2.21,-3.64,949.91
27.85,-2.79,0.57,0.51,-22.38,8.61,12.9,-3.87,2.21,-3.64,949.91
27.853,-2.79,0.57,0.51,-22.38,8.61,12.9,-2.57,1.61,-2.62,949.91
27.855,-1.7,1.22,0.75,-22.38,8.61,12.9,-2.57,1.61,-2.62,949.91
27.873,-1.7,1.22,0.75,-22.38,8.61,12.9,-2.57,1.61,-2.62,949.9
27.913,-1.04,1.41,0.77,-22.38,8.61,12.9,-2.57,1.61,-2.62,949.9
27.915,-1.04,1.41,0.77,-6.58,16.31,16.31,-2.57,1.61,-2.62,949.9
27.915,-1.04,1.41,0.77,-6.58,16.31,16.31,-2.18,2.07,-2.6,949.9
27.977,-0.46,1.28,0.71,-6.58,16.31,16.31,-2.18,2.07,-2.6,949.9
27.979,-0.46,1.28,0.71,-2.0,14.41,16.27,-2.18,2.07,-2.6,949.9
27.98,-0.46,1.28,0.71,-2.0,14.41,16.27,-1.22,0.87,-1.01,949.9
27.981,-0.46,1.28,0.71,-2.0,14.41,16.27,-1.22,0.87,-1.01,949.92
28.043,-0.46,1.28,0.71,-2.31,14.09,16.4,-1.22,0.87,-1.01,949.92
28.045,-0.46,1.28,0.71,-2.31,14.09,16.4,-0.09,-0.02,0.58,949.92
28.046,0.21,1.19,0.31,-2.31,14.09,16.4,-0.09,-0.02,0.58,949.92
28.08,0.21,1.19,0.31,-2.31,14.09,16.4,-0.09,-0.02,0.58,949.96
28.102,-0.55,1.11,0.62,-2.31,14.09,16.4,-0.09,-0.02,0.58,949.96
28.105,-0.55,1.11,0.62,-3.01,12.48,15.49,-0.09,-0.02,0.58,949.96
28.106,-0.55,1.11,0.62,-3.01,12.48,15.49,0.59,-0.91,2.17,949.96
28.165,-1.17,1.64,0.84,-3.01,12.48,15.49,0.59,-0.91,2.17,949.96
28.167,-1.17,1.64,0.84,-7.84,17.61,17.19,0.59,-0.91,2.17,949.96
28.169,-1.17,1.64,0.84,-7.84,17.61,17.19,0.56,-2.66,3.2,949.96
28.185,-1.17,1.64,0.84,-7.84,17.61,17.19,0.56,-2.66,3.2,949.96
28.228,-3.16,1.04,1.09,-7.84,17.61,17.19,0.56,-2.66,3.2,949.96
28.229,-3.16,1.04,1.09,-25.97,11.86,18.92,0.56,-2.66,3.2,949.96
28.231,-3.16,1.04,1.09,-25.97,11.86,18.92,4.42,-2.71,3.07,949.96
28.292,-3.16,1.04,1.09,-24.3,12.66,17.4,4.42,-2.71,3.07,949.96
28.294,-3.16,1.04,1.09,-24.3,12.66,17.4,4.42,-2.71,3.07,949.93
28.295,-3.16,1.04,1.09,-24.3,12.66,17.4,2.22,-2.82,1.98,949.93
28.296,-1.16,0.07,-0.46,-24.3,12.66,17.4,2.22,-2.82,1.98,949.93
28.354,-0.42,-0.38,-0.08,-24.3,12.66,17.4,2.22,-2.82,1.98,949.93
28.356,-0.42,-0.38,-0.08,3.65,-1.53,4.72,2.22,-2.82,1.98,949.93
28.358,-0.42,-0.38,-0.08,3.65,-1.53,4.72,-0.32,-2.03,0.61,949.93
28.395,-0.42,-0.38,-0.08,3.65,-1.53,4.72,-0.32,-2.03,0.61,949.94
28.417,-0.15,-0.72,-0.3,3.65,-1.53,4.72,-0.32,-2.03,0.61,949.94
28.419,-0.15,-0.72,-0.3,6.98,-5.14,1.57,-0.32,-2.03,0.61,949.94
28.42,-0.15,-0.72,-0.3,6.98,-5.14,1.57,0.09,-1.48,0.13,949.94
28.481,-0.37,-0.72,-0.65,6.98,-5.14,1.57,0.09,-1.48,0.13,949.94
28.483,-0.37,-0.72,-0.65,5.1,-5.08,-2.3,0.09,-1.48,0.13,949.94
28.484,-0.37,-0.72,-0.65,5.1,-5.08,-2.3,-0.61,0.82,-0.67,949.94
28.502,-0.37,-0.72,-0.65,5.1,-5.08,-2.3,-0.61,0.82,-0.67,949.98
28.543,-1.14,-0.27,-0.33,5.1,-5.08,-2.3,-0.61,0.82,-0.67,949.98
28.545,-1.14,-0.27,-0.33,-3.13,-0.01,1.74,-0.61,0.82,-0.67,949.98
28.546,-1.14,-0.27,-0.33,-3.13,-0.01,1.74,-0.36,2.64,-1.16,949.98
28.609,-2.79,0.65,1.41,-3.13,-0.01,1.74,-0.36,2.64,-1.16,949.98
28.61,-2.79,0.65,1.41,-20.64,9.31,20.35,-0.36,2.64,-1.16,949.98
28.612,-2.79,0.65,1.41,-20.64,9.31,20.35,-4.0,3.18,-2.96,949.98
28.613,-2.79,0.65,1.41,-20.64,9.31,20.35,-4.0,3.18,-2.96,949.93
28.672,-1.49,1.26,0.84,-20.64,9.31,20.35,-4.0,3.18,-2.96,949.93
28.674,-1.49,1.26,0.84,-9.38,14.85,16.15,-4.0,3.18,-2.96,949.93
28.675,-1.49,1.26,0.84,-9.38,14.85,16.15,-2.63,2.1,-2.33,949.93
28.713,-1.49,1.26,0.84,-9.38,14.85,16.15,-2.63,2.1,-2.33,949.92
28.737,-1.02,1.67,1.47,-9.38,14.85,16.15,-2.63,2.1,-2.33,949.92
28.739,-1.02,1.67,1.47,-5.95,17.75,23.25,-2.63,2.1,-2.33,949.92
28.741,-1.02,1.67,1.47,-5.95,17.75,23.25,-3.94,1.39,-1.6,949.92
28.798,0.02,1.38,0.94,-5.95,17.75,23.25,-3.94,1.39,-1.6,949.92
28.8,0.02,1.38,0.94,3.95,13.44,18.31,-3.94,1.39,-1.6,949.92
28.801,0.02,1.38,0.94,3.95,13.44,18.31,-1.36,-0.87,0.89,949.92
28.819,0.02,1.38,0.94,3.95,13.44,18.31,-1.36,-0.87,0.89,949.93
28.861,0.1,0.86,0.6,3.95,13.44,18.31,-1.36,-0.87,0.89,949.93
28.863,0.1,0.86,0.6,5.29,7.58,14.61,-1.36,-0.87,0.89,949.93
28.864,0.1,0.86,0.6,5.29,7.58,14.61,0.13,-1.48,2.23,949.93
28.925,0.1,0.86,0.6,6.27,7.13,13.99,0.13,-1.48,2.23,949.93
28.927,0.1,0.86,0.6,6.27,7.13,13.99,0.13,-1.48,2.23,949.97
28.928,0.1,0.86,0.6,6.27,7.13,13.99,1.8,-2.96,2.64,949.97
28.928,-0.74,0.66,1.18,6.27,7.13,13.99,1.8,-2.96,2.64,949.97
28.987,-1.27,1.17,1.72,6.27,7.13,13.99,1.8,-2.96,2.64,949.97
28.989,-1.27,1.17,1.72,-5.95,10.29,24.09,1.8,-2.96,2.64,949.97
28.99,-1.27,1.17,1.72,-5.95,10.29,24.09,2.18,-2.37,1.39,949.97
29.025,-1.27,1.17,1.72,-5.95,10.29,24.09,2.18,-2.37,1.39,949.93
29.047,-1.52,0.72,1.07,-5.95,10.29,24.09,2.18,-2.37,1.39,949.93
29.048,-1.52,0.72,1.07,-7.38,6.45,16.74,2.18,-2.37,1.39,949.93
29.05,-1.52,0.72,1.07,-7.38,6.45,16.74,2.71,-3.18,0.88,949.93
29.112,-0.78,0.28,-0.17,-7.38,6.45,16.74,2.71,-3.18,0.88,949.93
29.114,-0.78,0.28,-0.17,0.77,2.72,3.35,2.71,-3.18,0.88,949.93
29.114,-0.78,0.28,-0.17,0.77,2.72,3.35,0.69,-2.32,-0.1,949.93
29.131,-0.78,0.28,-0.17,0.77,2.72,3.35,0.69,-2.32,-0.1,949.94
29.175,-0.44,0.05,-0.17,0.77,2.72,3.35,0.69,-2.32,-0.1,949.94
29.177,-0.44,0.05,-0.17,0.77,2.72,3.35,-0.38,-1.4,-0.54,949.94
29.178,-0.44,0.05,-0.17,4.75,0.45,2.04,-0.38,-1.4,-0.54,949.94
29.24,-0.39,-0.26,-0.17,4.75,0.45,2.04,-0.38,-1.4,-0.54,949.94
29.241,-0.39,-0.26,-0.17,5.52,-2.51,1.27,-0.38,-1.4,-0.54,949.94
29.242,-0.39,-0.26,-0.17,5.52,-2.51,1.27,0.34,-0.64,-0.28,949.94
29.243,-0.39,-0.26,-0.17,5.52,-2.51,1.27,0.34,-0.64,-0.28,949.96
29.303,-0.92,-0.22,0.01,5.52,-2.51,1.27,0.34,-0.64,-0.28,949.96
29.304,-0.92,-0.22,0.01,0.27,-1.88,3.19,0.34,-0.64,-0.28,949.96
29.305,-0.92,-0.22,0.01,0.27,-1.88,3.19,-0.51,1.13,-0.2,949.96
29.343,-0.92,-0.22,0.01,0.27,-1.88,3.19,-0.51,1.13,-0.2,949.92
29.371,-0.92,-0.22,0.01,-0.12,-1.78,4.19,-0.51,1.13,-0.2,949.92
29.373,-0.92,-0.22,0.01,-0.12,-1.78,4.19,-1.63,2.77,-0.97,949.92
29.374,-1.18,0.21,0.16,-0.12,-1.78,4.19,-1.63,2.77,-0.97,949.92
29.429,-1.79,0.81,1.08,-0.12,-1.78,4.19,-1.63,2.77,-0.97,949.92
29.43,-1.79,0.81,1.08,-9.45,8.39,16.06,-1.63,2.77,-0.97,949.92
29.432,-1.79,0.81,1.08,-9.45,8.39,16.06,-2.72,3.2,-1.71,949.92
29.449,-1.79,0.81,1.08,-9.45,8.39,16.06,-2.72,3.2,-1.71,949.91
29.492,-0.87,0.85,1.07,-9.45,8.39,16.06,-2.72,3.2,-1.71,949.91
29.495,-0.87,0.85,1.07,-1.51,8.27,17.4,-2.72,3.2,-1.71,949.91
29.497,-0.87,0.85,1.07,-1.51,8.27,17.4,-3.79,2.95,-1.25,949.91
29.559,-0.37,1.13,1.72,-1.51,8.27,17.4,-3.79,2.95,-1.25,949.91
29.56,-0.37,1.13,1.72,2.26,9.59,24.54,-3.79,2.95,-1.25,949.91
29.561,-0.37,1.13,1.72,2.26,9.59,24.54,-4.12,1.6,-0.27,949.91
29.562,-0.37,1.13,1.72,2.26,9.59,24.54,-4.12,1.6,-0.27,949.91
29.617,0.48,1.17,1.18,2.26,9.59,24.54,-4.12,1.6,-0.27,949.91
29.619,0.48,1.17,1.18,10.12,8.57,19.22,-4.12,1.6,-0.27,949.91
29.62,0.48,1.17,1.18,10.12,8.57,19.22,-0.89,-0.11,1.16,949.91
29.66,0.48,1.17,1.18,10.12,8.57,19.22,-0.89,-0.11,1.16,949.95
29.692,0.48,1.17,1.18,10.36,7.82,18.71,-0.89,-0.11,1.16,949.95
29.695,0.48,1.17,1.18,10.36,7.82,18.71,0.54,-2.42,1.51,949.95
29.696,0.24,0.54,1.41,10.36,7.82,18.71,0.54,-2.42,1.51,949.95
29.743,0.24,0.54,1.41,8.83,1.94,20.39,0.54,-2.42,1.51,949.95
29.745,0.24,0.54,1.41,8.83,1.94,20.39,3.02,-3.24,1.18,949.95
29.746,-0.62,0.76,1.29,8.83,1.94,20.39,3.02,-3.24,1.18,949.95
29.763,-0.62,0.76,1.29,8.83,1.94,20.39,3.02,-3.24,1.18,949.95
29.806,-1.76,0.7,1.85,8.83,1.94,20.39,3.02,-3.24,1.18,949.95
29.808,-1.76,0.7,1.85,-9.87,4.28,24.03,3.02,-3.24,1.18,949.95
29.81,-1.76,0.7,1.85,-9.87,4.28,24.03,2.5,-2.91,-0.13,949.95
29.869,-1.76,0.7,1.85,-8.87,5.33,22.94,2.5,-2.91,-0.13,949.95
29.874,-1.76,0.7,1.85,-8.87,5.33,22.94,2.5,-2.91,-0.13,949.94
29.875,-1.76,0.7,1.85,-8.87,5.33,22.94,2.69,-2.25,-0.93,949.94
29.876,-1.0,0.52,0.35,-8.87,5.33,22.94,2.69,-2.25,-0.93,949.94
29.933,-0.69,0.19,-0.14,-8.87,5.33,22.94,2.69,-2.25,-0.93,949.94
29.935,-0.69,0.19,-0.14,2.18,1.3,2.69,2.69,-2.25,-0.93,949.94
29.935,-0.69,0.19,-0.14,2.18,1.3,2.69,-0.03,-1.59,-0.51,949.94
29.979,-0.69,0.19,-0.14,2.18,1.3,2.69,-0.03,-1.59,-0.51,949.94
30.012,-0.32,-0.36,0.08,2.18,1.3,2.69,-0.03,-1.59,-0.51,949.94
30.014,-0.32,-0.36,0.08,6.24,-4.18,3.52,-0.03,-1.59,-0.51,949.94
30.016,-0.32,-0.36,0.08,6.24,-4.18,3.52,-0.03,-1.35,-0.21,949.94
30.06,-0.62,-0.19,-0.54,6.24,-4.18,3.52,-0.03,-1.35,-0.21,949.94
30.061,-0.62,-0.19,-0.54,3.42,-2.35,-2.78,-0.03,-1.35,-0.21,949.94
30.062,-0.62,-0.19,-0.54,3.42,-2.35,-2.78,0.2,0.75,-0.27,949.94
30.087,-0.62,-0.19,-0.54,3.42,-2.35,-2.78,0.2,0.75,-0.27,949.97
30.122,-0.72,-0.04,0.08,3.42,-2.35,-2.78,0.2,0.75,-0.27,949.97
30.124,-0.72,-0.04,0.08,2.23,-0.97,3.73,0.2,0.75,-0.27,949.97
30.124,-0.72,-0.04,0.08,2.23,-0.97,3.73,-0.56,1.21,-0.03,949.97
30.187,-1.9,0.67,1.0,2.23,-0.97,3.73,-0.56,1.21,-0.03,949.97
30.188,-1.9,0.67,1.0,-9.75,5.83,14.01,-0.56,1.21,-0.03,949.97
30.19,-1.9,0.67,1.0,-9.75,5.83,14.01,-2.94,2.56,-0.25,949.97
30.19,-1.9,0.67,1.0,-9.75,5.83,14.01,-2.94,2.56,-0.25,949.93
30.259,-0.92,0.42,1.25,-9.75,5.83,14.01,-2.94,2.56,-0.25,949.93
30.26,-0.92,0.42,1.25,-0.94,2.48,17.54,-2.94,2.56,-0.25,949.93
30.262,-0.92,0.42,1.25,-0.94,2.48,17.54,-3.13,3.27,0.07,949.93
30.287,-0.55,0.41,1.23,-0.94,2.48,17.54,-3.13,3.27,0.07,949.93
30.289,-0.44,0.54,1.16,-0.94,2.48,17.54,-3.13,3.27,0.07,949.93
30.29,-0.44,0.54,1.16,-0.94,2.48,17.54,-3.13,3.27,0.07,949.92
30.312,-0.44,0.54,1.16,2.17,4.51,18.85,-3.13,3.27,0.07,949.92
30.314,-0.44,0.54,1.16,2.17,4.51,18.85,-1.3,4.69,-1.06,949.92
30.314,-0.45,0.69,1.22,2.17,4.51,18.85,-1.3,4.69,-1.06,949.92
30.333,-0.3,0.8,1.09,2.17,4.51,18.85,-1.3,4.69,-1.06,949.92
30.359,-0.28,0.92,1.28,2.17,4.51,18.85,-1.3,4.69,-1.06,949.92
30.385,-0.28,0.92,1.28,2.32,6.82,20.68,-1.3,4.69,-1.06,949.92
30.387,-0.28,0.92,1.28,2.32,6.82,20.68,-0.35,2.62,-1.2,949.92
30.388,-0.17,1.07,1.41,2.32,6.82,20.68,-0.35,2.62,-1.2,949.92
30.395,0.05,1.17,1.37,2.32,6.82,20.68,-0.35,2.62,-1.2,949.92
30.395,0.05,1.17,1.37,2.32,6.82,20.68,-0.35,2.62,-1.2,949.92
30.416,0.26,1.28,1.07,2.32,6.82,20.68,-0.35,2.62,-1.2,949.92
30.438,0.26,1.28,1.07,6.93,11.99,15.13,-0.35,2.62,-1.2,949.92
30.439,0.26,1.28,1.07,6.93,11.99,15.13,2.03,0.74,0.26,949.92
30.44,0.28,1.39,0.65,6.93,11.99,15.13,2.03,0.74,0.26,949.92
30.46,-0.03,1.44,0.63,6.93,11.99,15.13,2.03,0.74,0.26,949.92
30.482,-0.45,1.38,0.85,6.93,11.99,15.13,2.03,0.74,0.26,949.92
30.501,-0.45,1.38,0.85,-3.24,10.54,20.83,2.03,0.74,0.26,949.92
30.503,-0.45,1.38,0.85,-3.24,10.54,20.83,0.59,-2.29,1.99,949.92
30.504,-0.78,1.2,1.24,-3.24,10.54,20.83,0.59,-2.29,1.99,949.92
30.504,-0.78,1.2,1.24,-3.24,10.54,20.83,0.59,-2.29,1.99,949.96
30.52,-0.84,1.21,1.22,-3.24,10.54,20.83,0.59,-2.29,1.99,949.96
30.541,-0.85,1.43,1.26,-3.24,10.54,20.83,0.59,-2.29,1.99,949.96
30.564,-0.85,1.43,1.26,-17.03,14.14,29.57,0.59,-2.29,1.99,949.96
30.567,-0.85,1.43,1.26,-17.03,14.14,29.57,2.15,-2.1,1.52,949.96
30.568,-2.31,1.56,2.2,-17.03,14.14,29.57,2.15,-2.1,1.52,949.96
30.584,-3.06,1.42,2.25,-17.03,14.14,29.57,2.15,-2.1,1.52,949.96
30.605,-2.67,0.87,1.72,-17.03,14.14,29.57,2.15,-2.1,1.52,949.96
30.606,-2.67,0.87,1.72,-17.03,14.14,29.57,2.15,-2.1,1.52,949.96
30.626,-2.67,0.87,1.72,-14.36,2.36,17.51,2.15,-2.1,1.52,949.96
30.628,-2.67,0.87,1.72,-14.36,2.36,17.51,4.89,-2.98,1.77,949.96
30.629,-2.16,0.26,1.06,-14.36,2.36,17.51,4.89,-2.98,1.77,949.96
30.645,-1.73,-0.02,0.29,-14.36,2.36,17.51,4.89,-2.98,1.77,949.96
30.671,-1.38,-0.15,-0.28,-14.36,2.36,17.51,4.89,-2.98,1.77,949.96
30.689,-1.38,-0.15,-0.28,-3.8,-1.04,1.81,4.89,-2.98,1.77,949.96
30.69,-1.38,-0.15,-0.28,-3.8,-1.04,1.81,3.96,-0.78,0.38,949.96
30.691,-1.16,-0.24,-0.44,-3.8,-1.04,1.81,3.96,-0.78,0.38,949.96
30.709,-0.85,-0.34,-0.41,-3.8,-1.04,1.81,3.96,-0.78,0.38,949.96
30.71,-0.85,-0.34,-0.41,-3.8,-1.04,1.81,3.96,-0.78,0.38,949.95
30.729,-0.49,-0.42,-0.35,-3.8,-1.04,1.81,3.96,-0.78,0.38,949.95
30.759,-0.49,-0.42,-0.35,5.57,-3.54,3.67,3.96,-0.78,0.38,949.95
30.76,-0.49,-0.42,-0.35,5.57,-3.54,3.67,0.82,-1.48,-0.12,949.95
30.761,-0.25,-0.58,-0.16,5.57,-3.54,3.67,0.82,-1.48,-0.12,949.95
30.78,-0.14,-0.7,-0.06,5.57,-3.54,3.67,0.82,-1.48,-0.12,949.95
30.792,-0.1,-0.8,-0.16,5.57,-3.54,3.67,0.82,-1.48,-0.12,949.95
30.816,-0.1,-0.8,-0.16,7.9,-5.87,0.0,0.82,-1.48,-0.12,949.95
30.817,-0.1,-0.8,-0.16,7.9,-5.87,0.0,1.32,-0.55,-0.39,949.95
30.818,-0.05,-0.85,-0.45,7.9,-5.87,0.0,1.32,-0.55,-0.39,949.95
30.819,-0.05,-0.85,-0.45,7.9,-5.87,0.0,1.32,-0.55,-0.39,950.0
30.834,-0.07,-0.86,-0.6,7.9,-5.87,0.0,1.32,-0.55,-0.39,950.0
30.855,-0.24,-0.85,-0.67,7.9,-5.87,0.0,1.32,-0.55,-0.39,950.0
30.878,-0.24,-0.85,-0.67,1.44,-4.44,0.38,1.32,-0.55,-0.39,950.0
30.88,-0.24,-0.85,-0.67,1.44,-4.44,0.38,-0.94,0.53,-1.78,950.0
30.881,-0.69,-0.79,-0.4,1.44,-4.44,0.38,-0.94,0.53,-1.78,950.0
30.898,-1.16,-0.64,-0.19,1.44,-4.44,0.38,-0.94,0.53,-1.78,950.0
30.916,-1.16,-0.64,-0.19,1.44,-4.44,0.38,-0.94,0.53,-1.78,949.94
30.92,-1.15,-0.51,-0.55,1.44,-4.44,0.38,-0.94,0.53,-1.78,949.94
30.939,-1.15,-0.51,-0.55,-5.78,3.04,-4.01,-0.94,0.53,-1.78,949.94
30.941,-1.15,-0.51,-0.55,-5.78,3.04,-4.01,-1.93,1.6,-2.93,949.94
30.941,-1.34,-0.13,-0.91,-5.78,3.04,-4.01,-1.93,1.6,-2.93,949.94
30.958,-2.51,0.2,-0.12,-5.78,3.04,-4.01,-1.93,1.6,-2.93,949.94
30.979,-3.18,0.67,0.75,-5.78,3.04,-4.01,-1.93,1.6,-2.93,949.94
31.013,-3.18,0.67,0.75,-21.65,13.75,16.57,-1.93,1.6,-2.93,949.94
31.015,-3.18,0.67,0.75,-21.65,13.75,16.57,-4.14,1.81,-3.18,949.94
31.016,-2.8,0.96,1.01,-21.65,13.75,16.57,-4.14,1.81,-3.18,949.94
31.025,-2.43,1.15,1.07,-21.65,13.75,16.57,-4.14,1.81,-3.18,949.94
31.026,-2.43,1.15,1.07,-21.65,13.75,16.57,-4.14,1.81,-3.18,949.92
31.041,-1.81,1.33,0.76,-21.65,13.75,16.57,-4.14,1.81,-3.18,949.92
31.064,-1.81,1.33,0.76,-9.82,17.65,13.48,-4.14,1.81,-3.18,949.92
31.067,-1.81,1.33,0.76,-9.82,17.65,13.48,-2.33,1.79,-2.82,949.92
31.068,-1.42,1.4,0.56,-9.82,17.65,13.48,-2.33,1.79,-2.82,949.92
31.084,-1.35,1.45,0.66,-9.82,17.65,13.48,-2.33,1.79,-2.82,949.92
31.105,-1.07,1.41,0.73,-9.82,17.65,13.48,-2.33,1.79,-2.82,949.92
31.128,-1.07,1.41,0.73,-5.11,16.15,16.83,-2.33,1.79,-2.82,949.92
31.131,-1.07,1.41,0.73,-5.11,16.15,16.83,-1.66,1.2,-1.44,949.92
31.131,-0.81,1.32,0.82,-5.11,16.15,16.83,-1.66,1.2,-1.44,949.92
31.132,-0.81,1.32,0.82,-5.11,16.15,16.83,-1.66,1.2,-1.44,949.93
31.146,-0.61,1.28,0.68,-5.11,16.15,16.83,-1.66,1.2,-1.44,949.93
31.17,-0.3,1.24,0.43,-5.11,16.15,16.83,-1.66,1.2,-1.44,949.93
31.19,-0.3,1.24,0.43,2.63,14.63,13.09,-1.66,1.2,-1.44,949.93
31.191,0.03,1.2,0.41,2.63,14.63,13.09,-1.66,1.2,-1.44,949.93
31.192,0.03,1.2,0.41,2.63,14.63,13.09,-0.54,-0.01,0.14,949.93
31.209,0.1,1.24,0.43,2.63,14.63,13.09,-0.54,-0.01,0.14,949.93
31.232,0.03,1.21,0.44,2.63,14.63,13.09,-0.54,-0.01,0.14,949.93
31.233,0.03,1.21,0.44,2.63,14.63,13.09,-0.54,-0.01,0.14,949.96
31.263,0.03,1.21,0.44,1.53,13.56,13.61,-0.54,-0.01,0.14,949.96
31.264,-0.1,1.1,0.46,1.53,13.56,13.61,-0.54,-0.01,0.14,949.96
31.265,-0.1,1.1,0.46,1.53,13.56,13.61,0.61,-0.44,2.12,949.96
31.295,-0.37,1.04,0.51,1.53,13.56,13.61,0.61,-0.44,2.12,949.96
31.297,-0.88,1.01,0.73,1.53,13.56,13.61,0.61,-0.44,2.12,949.96
31.316,-0.88,1.01,0.73,-5.05,12.45,15.91,0.61,-0.44,2.12,949.96
31.321,-0.88,1.01,0.73,-5.05,12.45,15.91,1.34,-1.83,3.64,949.96
31.322,-1.08,1.02,0.8,-5.05,12.45,15.91,1.34,-1.83,3.64,949.96
31.337,-1.13,1.14,0.94,-5.05,12.45,15.91,1.34,-1.83,3.64,949.96
31.339,-1.13,1.14,0.94,-5.05,12.45,15.91,1.34,-1.83,3.64,949.95
31.356,-1.81,1.45,1.22,-5.05,12.45,15.91,1.34,-1.83,3.64,949.95
31.38,-1.81,1.45,1.22,-12.75,16.83,19.96,1.34,-1.83,3.64,949.95
31.382,-2.93,1.48,1.58,-12.75,16.83,19.96,1.34,-1.83,3.64,949.95
31.383,-2.93,1.48,1.58,-12.75,16.83,19.96,2.64,-1.6,2.49,949.95
31.409,-3.13,1.19,1.31,-12.75,16.83,19.96,2.64,-1.6,2.49,949.95
31.422,-2.74,0.69,0.62,-12.75,16.83,19.96,2.64,-1.6,2.49,949.95
31.443,-2.74,0.69,0.62,-16.02,5.92,6.79,2.64,-1.6,2.49,949.95
31.446,-2.28,0.27,0.0,-16.02,5.92,6.79,2.64,-1.6,2.49,949.95
31.447,-2.28,0.27,0.0,-16.02,5.92,6.79,3.92,-1.95,2.5,949.95
31.447,-2.28,0.27,0.0,-16.02,5.92,6.79,3.92,-1.95,2.5,949.93
31.462,-1.82,0.06,-0.36,-16.02,5.92,6.79,3.92,-1.95,2.5,949.93
31.491,-1.27,-0.2,-0.37,-16.02,5.92,6.79,3.92,-1.95,2.5,949.93
31.504,-1.27,-0.2,-0.37,-5.05,1.52,1.82,3.92,-1.95,2.5,949.93
31.506,-1.27,-0.2,-0.37,-5.05,1.52,1.82,1.12,-1.96,1.2,949.93
31.507,-0.74,-0.46,-0.18,-5.05,1.52,1.82,1.12,-1.96,1.2,949.93
31.523,-0.39,-0.61,-0.08,-5.05,1.52,1.82,1.12,-1.96,1.2,949.93
31.545,-0.22,-0.64,-0.13,-5.05,1.52,1.82,1.12,-1.96,1.2,949.93
31.546,-0.22,-0.64,-0.13,-5.05,1.52,1.82,1.12,-1.96,1.2,949.94
31.567,-0.22,-0.64,-0.13,5.81,-2.85,2.26,1.12,-1.96,1.2,949.94
31.57,-0.24,-0.64,-0.2,5.81,-2.85,2.26,1.12,-1.96,1.2,949.94
31.571,-0.24,-0.64,-0.2,5.81,-2.85,2.26,1.33,-1.17,0.07,949.94
31.589,-0.25,-0.7,-0.24,5.81,-2.85,2.26,1.33,-1.17,0.07,949.94
31.607,-0.09,-0.83,-0.29,5.81,-2.85,2.26,1.33,-1.17,0.07,949.94
31.63,-0.09,-0.83,-0.29,8.42,-5.15,-1.46,1.33,-1.17,0.07,949.94
31.632,-0.0,-0.9,-0.5,8.42,-5.15,-1.46,1.33,-1.17,0.07,949.94
31.633,-0.0,-0.9,-0.5,8.42,-5.15,-1.46,0.99,-0.64,-0.07,949.94
31.65,0.06,-0.85,-0.68,8.42,-5.15,-1.46,0.99,-0.64,-0.07,949.94
31.651,0.06,-0.85,-0.68,8.42,-5.15,-1.46,0.99,-0.64,-0.07,949.99
31.674,-0.4,-0.7,-0.56,8.42,-5.15,-1.46,0.99,-0.64,-0.07,949.99
31.692,-0.4,-0.7,-0.56,4.12,-2.44,-2.01,0.99,-0.64,-0.07,949.99
31.694,-0.4,-0.7,-0.56,4.12,-2.44,-2.01,-0.76,0.86,-1.84,949.99
31.695,-1.26,-0.43,-0.22,4.12,-2.44,-2.01,-0.76,0.86,-1.84,949.99
31.712,-1.34,-0.25,-0.47,4.12,-2.44,-2.01,-0.76,0.86,-1.84,949.99
31.732,-1.03,0.07,-0.88,4.12,-2.44,-2.01,-0.76,0.86,-1.84,949.99
31.762,-1.03,0.07,-0.88,-11.73,9.12,4.28,-0.76,0.86,-1.84,949.99
31.764,-1.93,0.42,-0.01,-11.73,9.12,4.28,-0.76,0.86,-1.84,949.99
31.765,-1.93,0.42,-0.01,-11.73,9.12,4.28,-4.43,0.96,-3.41,949.99
31.767,-1.93,0.42,-0.01,-11.73,9.12,4.28,-4.43,0.96,-3.41,949.93
31.792,-3.17,1.0,1.09,-11.73,9.12,4.28,-4.43,0.96,-3.41,949.93
31.795,-3.31,1.55,1.1,-11.73,9.12,4.28,-4.43,0.96,-3.41,949.93
31.818,-3.31,1.55,1.1,-16.2,20.72,9.39,-4.43,0.96,-3.41,949.93
31.82,-2.23,1.59,0.34,-16.2,20.72,9.39,-4.43,0.96,-3.41,949.93
31.821,-2.23,1.59,0.34,-16.2,20.72,9.39,-1.78,1.56,-2.06,949.93
31.84,-1.2,1.38,-0.01,-16.2,20.72,9.39,-1.78,1.56,-2.06,949.93
31.858,-1.2,1.38,-0.01,-16.2,20.72,9.39,-1.78,1.56,-2.06,949.93
31.86,-0.63,1.16,0.09,-16.2,20.72,9.39,-1.78,1.56,-2.06,949.93
31.88,-0.63,1.16,0.09,-1.25,14.75,10.11,-1.78,1.56,-2.06,949.93
31.882,-0.6,1.02,0.29,-1.25,14.75,10.11,-1.78,1.56,-2.06,949.93
31.883,-0.6,1.02,0.29,-1.25,14.75,10.11,-3.24,1.39,-2.18,949.93
31.906,-0.58,1.07,0.55,-1.25,14.75,10.11,-3.24,1.39,-2.18,949.93
31.92,-0.67,1.23,0.64,-1.25,14.75,10.11,-3.24,1.39,-2.18,949.93
31.942,-0.67,1.23,0.64,-3.16,16.05,14.58,-3.24,1.39,-2.18,949.93
31.944,-0.67,1.23,0.64,-3.16,16.05,14.58,-1.3,1.15,-1.26,949.93
31.945,-0.56,1.37,0.48,-3.16,16.05,14.58,-1.3,1.15,-1.26,949.93
31.963,-0.37,1.35,0.37,-3.16,16.05,14.58,-1.3,1.15,-1.26,949.93
31.964,-0.37,1.35,0.37,-3.16,16.05,14.58,-1.3,1.15,-1.26,949.94
31.995,-0.04,1.25,0.43,-3.16,16.05,14.58,-1.3,1.15,-1.26,949.94
32.007,-0.04,1.25,0.43,2.58,15.85,12.81,-1.3,1.15,-1.26,949.94
