time;gFx;gFy;gFz;ax;ay;az;wx;wy;wz;P
0.01;-0,44;0,21;0,88;0,30;-0,09;0,28;0,05;-0,12;-0,03;0,00
0.028;-0,44;0,21;0,88;0,20;-0,00;0,15;0,05;-0,12;-0,03;0,00
0.051;-0,44;0,21;0,88;0,20;-0,00;0,15;0,12;-0,04;-0,10;0,00
0.052;-0,44;0,21;0,88;0,06;0,06;0,06;0,12;-0,04;-0,10;0,00
0.053;-0,47;0,25;0,83;0,06;0,06;0,06;0,12;-0,04;-0,10;0,00
0.08;-0,47;0,25;0,83;0,01;0,13;0,01;0,12;-0,04;-0,10;0,00
0.088;-0,47;0,25;0,83;-0,14;0,05;-0,08;0,12;-0,04;-0,10;0,00
0.103;-0,47;0,25;0,83;-0,14;0,05;-0,08;0,06;-0,09;-0,07;0,00
0.108;-0,47;0,25;0,83;-0,19;0,05;-0,10;0,06;-0,09;-0,07;0,00
0.117;-0,48;0,24;0,81;-0,19;0,05;-0,10;0,06;-0,09;-0,07;0,00
0.134;-0,48;0,24;0,81;-0,13;-0,03;-0,21;0,06;-0,09;-0,07;0,00
0.148;-0,48;0,24;0,81;-0,13;-0,09;-0,15;0,06;-0,09;-0,07;0,00
0.169;-0,48;0,24;0,81;-0,07;-0,07;-0,04;0,06;-0,09;-0,07;0,00
0.17;-0,48;0,24;0,81;-0,07;-0,07;-0,04;0,01;0,00;-0,03;0,00
0.182;-0,47;0,23;0,83;-0,07;-0,07;-0,04;0,01;0,00;-0,03;0,00
0.188;-0,47;0,23;0,83;-0,05;-0,15;0,02;0,01;0,00;-0,03;0,00
0.208;-0,47;0,23;0,83;-0,03;-0,16;-0,06;0,01;0,00;-0,03;0,00
0.233;-0,47;0,23;0,83;0,04;-0,12;0,08;0,01;0,00;-0,03;0,00
0.235;-0,47;0,23;0,83;0,04;-0,12;0,08;-0,03;-0,01;-0,01;0,00
0.247;-0,46;0,23;0,85;0,04;-0,12;0,08;-0,03;-0,01;-0,01;0,00
0.249;-0,46;0,23;0,85;0,03;-0,11;0,22;-0,03;-0,01;-0,01;0,00
0.271;-0,46;0,23;0,85;0,09;-0,08;0,23;-0,03;-0,01;-0,01;0,00
0.3;-0,46;0,23;0,85;0,07;-0,07;0,26;-0,03;-0,01;-0,01;0,00
0.301;-0,46;0,23;0,85;0,07;-0,07;0,26;0,00;0,08;-0,01;0,00
0.308;-0,46;0,23;0,85;0,07;-0,12;0,24;0,00;0,08;-0,01;0,00
0.311;-0,46;0,23;0,85;0,07;-0,12;0,24;0,00;0,08;-0,01;0,00
0.333;-0,46;0,23;0,85;0,02;-0,07;0,23;0,00;0,08;-0,01;0,00
0.348;-0,46;0,23;0,85;0,07;-0,05;0,09;0,00;0,08;-0,01;0,00
0.363;-0,46;0,23;0,85;0,07;-0,05;0,09;0,02;0,02;-0,03;0,00
0.37;-0,46;0,23;0,85;-0,02;0,06;-0,04;0,02;0,02;-0,03;0,00
0.377;-0,48;0,24;0,82;-0,02;0,06;-0,04;0,02;0,02;-0,03;0,00
0.388;-0,48;0,24;0,82;-0,05;-0,00;-0,05;0,02;0,02;-0,03;0,00
0.408;-0,48;0,24;0,82;-0,03;0,04;-0,21;0,02;0,02;-0,03;0,00
0.434;-0,48;0,24;0,82;-0,04;0,10;-0,14;0,02;0,02;-0,03;0,00
0.435;-0,48;0,24;0,82;-0,04;0,10;-0,14;-0,04;0,05;0,04;0,00
0.442;-0,47;0,24;0,82;-0,04;0,10;-0,14;-0,04;0,05;0,04;0,00
0.448;-0,47;0,24;0,82;-0,04;-0,04;-0,02;-0,04;0,05;0,04;0,00
0.468;-0,47;0,24;0,82;-0,02;-0,01;-0,24;-0,04;0,05;0,04;0,00
0.488;-0,47;0,24;0,82;-0,14;-0,07;-0,19;-0,04;0,05;0,04;0,00
0.491;-0,47;0,24;0,82;-0,14;-0,07;-0,19;-0,09;0,19;0,06;0,00
0.507;-0,50;0,22;0,84;-0,14;-0,07;-0,19;-0,09;0,19;0,06;0,00
0.509;-0,50;0,22;0,84;-0,20;-0,10;0,20;-0,09;0,19;0,06;0,00
0.528;-0,50;0,22;0,84;-0,30;-0,28;0,36;-0,09;0,19;0,06;0,00
0.548;-0,50;0,22;0,84;-0,11;-0,16;-0,02;-0,09;0,19;0,06;0,00
0.557;-0,50;0,22;0,84;-0,11;-0,16;-0,02;-0,10;0,18;0,04;0,00
0.568;-0,50;0,22;0,84;-0,22;-0,19;-0,12;-0,10;0,18;0,04;0,00
0.571;-0,51;0,21;0,81;-0,22;-0,19;-0,12;-0,10;0,18;0,04;0,00
0.588;-0,51;0,21;0,81;-0,33;-0,26;0,28;-0,10;0,18;0,04;0,00
0.608;-0,51;0,21;0,81;-0,40;-0,35;0,46;-0,10;0,18;0,04;0,00
0.633;-0,51;0,21;0,81;-0,40;-0,35;0,46;-0,06;0,03;0,04;0,00
0.634;-0,51;0,21;0,81;-0,38;-0,24;0,32;-0,06;0,03;0,04;0,00
0.636;-0,52;0,19;0,84;-0,38;-0,24;0,32;-0,06;0,03;0,04;0,00
0.648;-0,52;0,19;0,84;-0,22;-0,18;0,19;-0,06;0,03;0,04;0,00
0.668;-0,52;0,19;0,84;-0,24;-0,10;0,04;-0,06;0,03;0,04;0,00
0.688;-0,52;0,19;0,84;-0,28;-0,07;0,13;-0,06;0,03;0,04;0,00
0.69;-0,52;0,19;0,84;-0,28;-0,07;0,13;-0,03;0,11;0,11;0,00
0.702;-0,52;0,22;0,81;-0,28;-0,07;0,13;-0,03;0,11;0,11;0,00
0.708;-0,52;0,22;0,81;-0,32;0,02;-0,06;-0,03;0,11;0,11;0,00
0.731;-0,52;0,22;0,81;-0,21;0,16;-0,17;-0,03;0,11;0,11;0,00
0.748;-0,52;0,22;0,81;-0,27;0,07;-0,12;-0,03;0,11;0,11;0,00
0.769;-0,52;0,22;0,81;-0,27;0,07;-0,12;-0,06;0,01;0,16;0,00
0.771;-0,53;0,24;0,79;-0,27;0,07;-0,12;-0,06;0,01;0,16;0,00
0.772;-0,53;0,24;0,79;-0,23;0,16;-0,20;-0,06;0,01;0,16;0,00
0.788;-0,53;0,24;0,79;-0,13;0,04;-0,21;-0,06;0,01;0,16;0,00
0.808;-0,53;0,24;0,79;-0,04;-0,01;-0,38;-0,06;0,01;0,16;0,00
0.827;-0,53;0,24;0,79;-0,04;-0,01;-0,38;-0,10;0,18;0,18;0,00
0.83;-0,53;0,24;0,79;-0,19;0,19;-0,16;-0,10;0,18;0,18;0,00
0.832;-0,54;0,24;0,81;-0,19;0,19;-0,16;-0,10;0,18;0,18;0,00
0.849;-0,54;0,24;0,81;-0,03;-0,08;0,08;-0,10;0,18;0,18;0,00
0.868;-0,54;0,24;0,81;-0,01;0,26;0,07;-0,10;0,18;0,18;0,00
0.884;-0,54;0,24;0,81;-0,01;0,26;0,07;-0,13;0,04;0,17;0,00
0.888;-0,54;0,24;0,81;0,20;0,21;-0,05;-0,13;0,04;0,17;0,00
0.896;-0,49;0,24;0,81;0,20;0,21;-0,05;-0,13;0,04;0,17;0,00
0.908;-0,49;0,24;0,81;0,12;0,13;0,12;-0,13;0,04;0,17;0,00
0.929;-0,49;0,24;0,81;0,23;0,02;0,21;-0,13;0,04;0,17;0,00
0.948;-0,49;0,24;0,81;0,19;0,09;0,22;-0,13;0,04;0,17;0,00
0.953;-0,49;0,24;0,81;0,19;0,09;0,22;-0,09;-0,01;0,12;0,00
0.962;-0,48;0,24;0,82;0,19;0,09;0,22;-0,09;-0,01;0,12;0,00
0.968;-0,48;0,24;0,82;0,13;0,10;0,10;-0,09;-0,01;0,12;0,00
0.988;-0,48;0,24;0,82;0,06;0,12;0,19;-0,09;-0,01;0,12;0,00
1.008;-0,48;0,24;0,82;0,07;0,17;0,17;-0,09;-0,01;0,12;0,00
1.011;-0,48;0,24;0,82;0,07;0,17;0,17;-0,07;-0,13;0,08;0,00
1.026;-0,48;0,25;0,82;0,07;0,17;0,17;-0,07;-0,13;0,08;0,00
1.028;-0,48;0,25;0,82;0,05;0,22;0,10;-0,07;-0,13;0,08;0,00
1.048;-0,48;0,25;0,82;0,02;0,22;0,13;-0,07;-0,13;0,08;0,00
1.068;-0,48;0,25;0,82;0,05;0,27;0,18;-0,07;-0,13;0,08;0,00
1.077;-0,48;0,25;0,82;0,05;0,27;0,18;-0,06;-0,10;0,04;0,00
1.088;-0,48;0,25;0,82;0,01;0,12;0,20;-0,06;-0,10;0,04;0,00
1.091;-0,48;0,24;0,84;0,01;0,12;0,20;-0,06;-0,10;0,04;0,00
1.108;-0,48;0,24;0,84;0,03;0,00;0,25;-0,06;-0,10;0,04;0,00
1.128;-0,48;0,24;0,84;0,19;0,03;0,33;-0,06;-0,10;0,04;0,00
1.144;-0,48;0,24;0,84;0,19;0,03;0,33;-0,02;-0,07;0,04;0,00
1.148;-0,48;0,24;0,84;0,33;0,01;0,32;-0,02;-0,07;0,04;0,00
1.157;-0,44;0,23;0,86;0,33;0,01;0,32;-0,02;-0,07;0,04;0,00
1.168;-0,44;0,23;0,86;0,41;-0,07;0,25;-0,02;-0,07;0,04;0,00
1.188;-0,44;0,23;0,86;0,30;-0,02;0,27;-0,02;-0,07;0,04;0,00
1.208;-0,44;0,23;0,86;0,38;0,10;0,19;-0,02;-0,07;0,04;0,00
1.209;-0,44;0,23;0,86;0,38;0,10;0,19;0,06;-0,01;-0,01;0,00
1.224;-0,43;0,23;0,85;0,38;0,10;0,19;0,06;-0,01;-0,01;0,00
1.228;-0,43;0,23;0,85;0,33;0,03;0,24;0,06;-0,01;-0,01;0,00
1.248;-0,43;0,23;0,85;0,31;0,06;0,30;0,06;-0,01;-0,01;0,00
1.268;-0,43;0,23;0,85;0,43;0,03;0,18;0,06;-0,01;-0,01;0,00
1.271;-0,43;0,23;0,85;0,43;0,03;0,18;0,10;0,01;-0,04;0,00
1.287;-0,42;0,23;0,84;0,43;0,03;0,18;0,10;0,01;-0,04;0,00
1.288;-0,42;0,23;0,84;0,44;-0,01;0,10;0,10;0,01;-0,04;0,00
1.308;-0,42;0,23;0,84;0,35;0,00;0,08;0,10;0,01;-0,04;0,00
1.328;-0,42;0,23;0,84;0,22;0,13;-0,11;0,10;0,01;-0,04;0,00
1.344;-0,42;0,23;0,84;0,22;0,13;-0,11;0,11;0,07;-0,13;0,00
1.348;-0,42;0,23;0,84;0,32;0,23;-0,09;0,11;0,07;-0,13;0,00
1.352;-0,43;0,26;0,81;0,32;0,23;-0,09;0,11;0,07;-0,13;0,00
1.368;-0,43;0,26;0,81;0,39;0,44;-0,21;0,11;0,07;-0,13;0,00
1.388;-0,43;0,26;0,81;0,46;0,57;-0,34;0,11;0,07;-0,13;0,00
1.403;-0,43;0,26;0,81;0,46;0,57;-0,34;0,15;0,24;-0,14;0,00
1.408;-0,43;0,26;0,81;0,52;0,71;-0,36;0,15;0,24;-0,14;0,00
1.423;-0,41;0,32;0,77;0,52;0,71;-0,36;0,15;0,24;-0,14;0,00
1.428;-0,41;0,32;0,77;0,66;0,92;-0,46;0,15;0,24;-0,14;0,00
1.448;-0,41;0,32;0,77;0,66;1,01;-0,29;0,15;0,24;-0,14;0,00
1.468;-0,41;0,32;0,77;0,78;1,01;-0,15;0,15;0,24;-0,14;0,00
1.469;-0,41;0,32;0,77;0,78;1,01;-0,15;0,09;0,29;-0,17;0,00
1.482;-0,41;0,36;0,79;0,78;1,01;-0,15;0,09;0,29;-0,17;0,00
1.488;-0,41;0,36;0,79;0,73;0,96;-0,07;0,09;0,29;-0,17;0,00
1.508;-0,41;0,36;0,79;0,60;0,89;-0,07;0,09;0,29;-0,17;0,00
1.528;-0,41;0,36;0,79;0,40;0,80;-0,03;0,09;0,29;-0,17;0,00
1.532;-0,41;0,36;0,79;0,40;0,80;-0,03;0,01;-0,05;-0,37;0,00
1.547;-0,47;0,34;0,79;0,40;0,80;-0,03;0,01;-0,05;-0,37;0,00
1.548;-0,47;0,34;0,79;0,16;0,86;-0,10;0,01;-0,05;-0,37;0,00
1.568;-0,47;0,34;0,79;-0,02;0,92;-0,39;0,01;-0,05;-0,37;0,00
1.588;-0,47;0,34;0,79;-0,09;1,14;-0,59;0,01;-0,05;-0,37;0,00
1.597;-0,47;0,34;0,79;-0,09;1,14;-0,59;0,06;-0,13;-0,48;0,00
1.608;-0,47;0,34;0,79;-0,14;1,14;-0,51;0,06;-0,13;-0,48;0,00
1.611;-0,49;0,38;0,75;-0,14;1,14;-0,51;0,06;-0,13;-0,48;0,00
1.628;-0,49;0,38;0,75;-0,10;1,26;-0,51;0,06;-0,13;-0,48;0,00
1.648;-0,49;0,38;0,75;-0,03;1,12;-0,51;0,06;-0,13;-0,48;0,00
1.663;-0,49;0,38;0,75;-0,03;1,12;-0,51;0,09;0,08;-0,36;0,00
1.668;-0,49;0,38;0,75;-0,06;1,00;-0,70;0,09;0,08;-0,36;0,00
1.676;-0,49;0,34;0,73;-0,06;1,00;-0,70;0,09;0,08;-0,36;0,00
1.688;-0,49;0,34;0,73;0,23;0,71;-0,57;0,09;0,08;-0,36;0,00
1.708;-0,49;0,34;0,73;0,09;0,71;-0,37;0,09;0,08;-0,36;0,00
1.728;-0,49;0,34;0,73;-0,16;0,95;-0,55;0,09;0,08;-0,36;0,00
1.729;-0,49;0,34;0,73;-0,16;0,95;-0,55;0,07;0,45;-0,32;0,00
1.744;-0,51;0,32;0,72;-0,16;0,95;-0,55;0,07;0,45;-0,32;0,00
1.748;-0,51;0,32;0,72;-0,11;0,70;-0,86;0,07;0,45;-0,32;0,00
1.768;-0,51;0,32;0,72;0,27;0,57;-1,29;0,07;0,45;-0,32;0,00
1.788;-0,51;0,32;0,72;0,47;0,41;-1,55;0,07;0,45;-0,32;0,00
1.792;-0,51;0,32;0,72;0,47;0,41;-1,55;-0,13;0,46;-0,40;0,00
1.807;-0,56;0,30;0,62;0,47;0,41;-1,55;-0,13;0,46;-0,40;0,00
1.808;-0,56;0,30;0,62;0,01;0,40;-1,34;-0,13;0,46;-0,40;0,00
1.828;-0,56;0,30;0,62;-0,27;0,48;-1,00;-0,13;0,46;-0,40;0,00
1.848;-0,56;0,30;0,62;0,08;0,32;-0,81;-0,13;0,46;-0,40;0,00
1.857;-0,56;0,30;0,62;0,08;0,32;-0,81;-0,34;1,04;-0,28;0,00
1.868;-0,56;0,30;0,62;-0,80;0,87;-0,80;-0,34;1,04;-0,28;0,00
1.872;-0,71;0,36;0,63;-0,80;0,87;-0,80;-0,34;1,04;-0,28;0,00
1.888;-0,71;0,36;0,63;-0,95;0,26;-0,54;-0,34;1,04;-0,28;0,00
1.908;-0,71;0,36;0,63;-0,81;0,62;0,14;-0,34;1,04;-0,28;0,00
1.925;-0,71;0,36;0,63;-0,81;0,62;0,14;-0,36;1,24;-0,38;0,00
1.928;-0,71;0,36;0,63;-0,04;0,73;0,06;-0,36;1,24;-0,38;0,00
1.947;-0,66;0,28;0,67;-0,04;0,73;0,06;-0,36;1,24;-0,38;0,00
1.949;-0,66;0,28;0,67;-0,15;0,68;-0,14;-0,36;1,24;-0,38;0,00
1.968;-0,66;0,28;0,67;-0,58;0,44;0,15;-0,36;1,24;-0,38;0,00
1.988;-0,66;0,28;0,67;-1,09;0,21;0,62;-0,36;1,24;-0,38;0,00
1.99;-0,66;0,28;0,67;-1,09;0,21;0,62;-0,44;1,24;-0,34;0,00
2.002;-0,82;0,19;0,69;-1,09;0,21;0,62;-0,44;1,24;-0,34;0,00
2.008;-0,82;0,19;0,69;-0,82;0,08;0,68;-0,44;1,24;-0,34;0,00
2.028;-0,82;0,19;0,69;-0,29;-0,36;0,51;-0,44;1,24;-0,34;0,00
2.048;-0,82;0,19;0,69;0,15;-0,66;0,15;-0,44;1,24;-0,34;0,00
2.052;-0,82;0,19;0,69;0,15;-0,66;0,15;-0,46;1,34;-0,65;0,00
2.067;-0,81;0,01;0,59;0,15;-0,66;0,15;-0,46;1,34;-0,65;0,00
2.069;-0,81;0,01;0,59;-0,32;-1,10;0,20;-0,46;1,34;-0,65;0,00
2.088;-0,81;0,01;0,59;-0,64;-1,42;0,36;-0,46;1,34;-0,65;0,00
2.108;-0,81;0,01;0,59;-0,40;-1,62;0,19;-0,46;1,34;-0,65;0,00
2.123;-0,81;0,01;0,59;-0,40;-1,62;0,19;-0,27;0,93;-0,72;0,00
2.128;-0,81;0,01;0,59;-0,06;-1,61;-0,14;-0,27;0,93;-0,72;0,00
2.147;-0,84;-0,12;0,50;-0,06;-1,61;-0,14;-0,27;0,93;-0,72;0,00
2.149;-0,84;-0,12;0,50;0,13;-1,91;-0,37;-0,27;0,93;-0,72;0,00
2.174;-0,84;-0,12;0,50;0,77;-1,88;-0,56;-0,27;0,93;-0,72;0,00
2.189;-0,84;-0,12;0,50;0,77;-1,88;-0,56;-0,20;1,01;-0,59;0,00
2.191;-0,84;-0,12;0,50;0,78;-1,92;-0,50;-0,20;1,01;-0,59;0,00
2.196;-0,78;-0,22;0,43;0,78;-1,92;-0,50;-0,20;1,01;-0,59;0,00
2.208;-0,78;-0,22;0,43;0,82;-2,02;-0,28;-0,20;1,01;-0,59;0,00
2.228;-0,78;-0,22;0,43;0,59;-1,97;0,10;-0,20;1,01;-0,59;0,00
2.255;-0,78;-0,22;0,43;0,59;-1,77;0,25;-0,20;1,01;-0,59;0,00
2.257;-0,78;-0,22;0,43;0,59;-1,77;0,25;-0,26;-0,37;-0,86;0,00
2.262;-0,78;-0,25;0,46;0,59;-1,77;0,25;-0,26;-0,37;-0,86;0,00
2.268;-0,78;-0,25;0,46;0,73;-1,52;-0,26;-0,26;-0,37;-0,86;0,00
2.288;-0,78;-0,25;0,46;1,13;-1,05;-1,00;-0,26;-0,37;-0,86;0,00
2.308;-0,78;-0,25;0,46;0,76;-0,69;-1,01;-0,26;-0,37;-0,86;0,00
2.311;-0,78;-0,25;0,46;0,76;-0,69;-1,01;-0,62;-0,07;-0,92;0,00
2.327;-0,76;-0,22;0,40;0,76;-0,69;-1,01;-0,62;-0,07;-0,92;0,00
2.328;-0,76;-0,22;0,40;0,75;-0,52;-0,71;-0,62;-0,07;-0,92;0,00
2.351;-0,76;-0,22;0,40;0,33;-0,35;-0,04;-0,62;-0,07;-0,92;0,00
2.368;-0,76;-0,22;0,40;0,06;-0,03;-0,10;-0,62;-0,07;-0,92;0,00
2.377;-0,76;-0,22;0,40;0,06;-0,03;-0,10;-0,80;-0,97;-0,92;0,00
2.388;-0,76;-0,22;0,40;-0,07;0,28;0,14;-0,80;-0,97;-0,92;0,00
2.392;-0,82;-0,19;0,51;-0,07;0,28;0,14;-0,80;-0,97;-0,92;0,00
2.408;-0,82;-0,19;0,51;0,20;0,77;0,11;-0,80;-0,97;-0,92;0,00
2.428;-0,82;-0,19;0,51;0,34;1,33;0,00;-0,80;-0,97;-0,92;0,00
2.446;-0,82;-0,19;0,51;0,34;1,33;0,00;-0,83;-1,19;-0,77;0,00
2.453;-0,82;-0,19;0,51;0,24;1,73;0,45;-0,83;-1,19;-0,77;0,00
2.457;-0,76;-0,09;0,63;0,24;1,73;0,45;-0,83;-1,19;-0,77;0,00
2.468;-0,76;-0,09;0,63;-0,39;1,99;0,86;-0,83;-1,19;-0,77;0,00
2.488;-0,76;-0,09;0,63;-0,84;1,86;0,80;-0,83;-1,19;-0,77;0,00
2.508;-0,76;-0,09;0,63;-0,79;2,01;0,99;-0,83;-1,19;-0,77;0,00
2.509;-0,76;-0,09;0,63;-0,79;2,01;0,99;-0,68;-1,36;-0,60;0,00
2.522;-0,76;-0,10;0,70;-0,79;2,01;0,99;-0,68;-1,36;-0,60;0,00
2.528;-0,76;-0,10;0,70;-0,49;2,04;0,84;-0,68;-1,36;-0,60;0,00
2.548;-0,76;-0,10;0,70;-0,55;2,23;0,77;-0,68;-1,36;-0,60;0,00
2.568;-0,76;-0,10;0,70;-0,80;1,98;0,88;-0,68;-1,36;-0,60;0,00
2.572;-0,76;-0,10;0,70;-0,80;1,98;0,88;-0,25;-0,55;-0,31;0,00
2.586;-0,76;-0,12;0,72;-0,80;1,98;0,88;-0,25;-0,55;-0,31;0,00
2.589;-0,76;-0,12;0,72;-0,93;1,94;0,84;-0,25;-0,55;-0,31;0,00
2.608;-0,76;-0,12;0,72;-1,21;1,80;1,12;-0,25;-0,55;-0,31;0,00
2.628;-0,76;-0,12;0,72;-1,45;2,04;0,68;-0,25;-0,55;-0,31;0,00
2.641;-0,76;-0,12;0,72;-1,45;2,04;0,68;0,04;-0,48;-0,21;0,00
2.649;-0,76;-0,12;0,72;-0,88;1,23;0,33;0,04;-0,48;-0,21;0,00
2.651;-0,73;-0,20;0,73;-0,88;1,23;0,33;0,04;-0,48;-0,21;0,00
2.668;-0,73;-0,20;0,73;-1,04;1,09;1,03;0,04;-0,48;-0,21;0,00
2.688;-0,73;-0,20;0,73;-1,06;0,90;1,33;0,04;-0,48;-0,21;0,00
2.703;-0,73;-0,20;0,73;-1,06;0,90;1,33;0,30;-0,50;-0,32;0,00
2.708;-0,73;-0,20;0,73;-1,19;0,01;1,64;0,30;-0,50;-0,32;0,00
2.721;-0,78;-0,34;0,91;-1,19;0,01;1,64;0,30;-0,50;-0,32;0,00
2.728;-0,78;-0,34;0,91;-1,28;-0,77;2,73;0,30;-0,50;-0,32;0,00
2.748;-0,78;-0,34;0,91;-1,17;-1,05;3,44;0,30;-0,50;-0,32;0,00
2.768;-0,78;-0,34;0,91;-1,43;-1,51;3,44;0,30;-0,50;-0,32;0,00
2.769;-0,78;-0,34;0,91;-1,43;-1,51;3,44;0,31;-0,27;-0,60;0,00
2.782;-0,67;-0,48;0,99;-1,43;-1,51;3,44;0,31;-0,27;-0,60;0,00
2.788;-0,67;-0,48;0,99;-0,95;-1,67;2,49;0,31;-0,27;-0,60;0,00
2.808;-0,67;-0,48;0,99;-0,57;-1,54;1,63;0,31;-0,27;-0,60;0,00
2.828;-0,67;-0,48;0,99;-0,11;-1,04;1,44;0,31;-0,27;-0,60;0,00
2.838;-0,67;-0,48;0,99;-0,11;-1,04;1,44;0,51;0,76;-0,62;0,00
2.847;-0,52;-0,39;0,87;-0,11;-1,04;1,44;0,51;0,76;-0,62;0,00
2.849;-0,52;-0,39;0,87;0,50;-0,58;1,49;0,51;0,76;-0,62;0,00
2.868;-0,52;-0,39;0,87;1,46;-0,40;0,97;0,51;0,76;-0,62;0,00
2.888;-0,52;-0,39;0,87;2,03;-0,58;0,35;0,51;0,76;-0,62;0,00
2.897;-0,52;-0,39;0,87;2,03;-0,58;0,35;0,59;1,67;-0,72;0,00
2.908;-0,52;-0,39;0,87;0,97;-0,68;0,51;0,59;1,67;-0,72;0,00
2.911;-0,52;-0,43;0,75;0,97;-0,68;0,51;0,59;1,67;-0,72;0,00
2.928;-0,52;-0,43;0,75;0,86;-0,80;0,87;0,59;1,67;-0,72;0,00
2.948;-0,52;-0,43;0,75;1,02;-0,96;0,95;0,59;1,67;-0,72;0,00
2.963;-0,52;-0,43;0,75;1,02;-0,96;0,95;0,52;1,38;-0,75;0,00
2.968;-0,52;-0,43;0,75;0,98;-1,12;0,77;0,52;1,38;-0,75;0,00
2.977;-0,52;-0,47;0,71;0,98;-1,12;0,77;0,52;1,38;-0,75;0,00
2.988;-0,52;-0,47;0,71;1,39;-0,84;0,56;0,52;1,38;-0,75;0,00
3.008;-0,52;-0,47;0,71;3,12;-0,34;0,13;0,52;1,38;-0,75;0,00
3.028;-0,52;-0,47;0,71;3,29;0,00;0,10;0,52;1,38;-0,75;0,00
3.03;-0,52;-0,47;0,71;3,29;0,00;0,10;0,71;1,64;-0,57;0,00
3.042;-0,32;-0,37;0,64;3,29;0,00;0,10;0,71;1,64;-0,57;0,00
3.049;-0,32;-0,37;0,64;3,12;0,28;0,37;0,71;1,64;-0,57;0,00
3.068;-0,32;-0,37;0,64;2,84;0,33;0,67;0,71;1,64;-0,57;0,00
3.088;-0,32;-0,37;0,64;2,67;0,50;0,34;0,71;1,64;-0,57;0,00
3.092;-0,32;-0,37;0,64;2,67;0,50;0,34;0,87;0,71;-0,68;0,00
3.107;-0,37;-0,34;0,62;2,67;0,50;0,34;0,87;0,71;-0,68;0,00
3.108;-0,37;-0,34;0,62;2,68;0,52;0,07;0,87;0,71;-0,68;0,00
3.128;-0,37;-0,34;0,62;2,29;0,33;-0,18;0,87;0,71;-0,68;0,00
3.148;-0,37;-0,34;0,62;1,84;0,17;-0,21;0,87;0,71;-0,68;0,00
3.157;-0,37;-0,34;0,62;1,84;0,17;-0,21;0,81;0,78;-0,59;0,00
3.168;-0,37;-0,34;0,62;1,26;0,08;-0,08;0,81;0,78;-0,59;0,00
3.172;-0,54;-0,39;0,61;1,26;0,08;-0,08;0,81;0,78;-0,59;0,00
3.188;-0,54;-0,39;0,61;0,44;0,06;0,16;0,81;0,78;-0,59;0,00
3.208;-0,54;-0,39;0,61;-0,23;-0,12;0,09;0,81;0,78;-0,59;0,00
3.223;-0,54;-0,39;0,61;-0,23;-0,12;0,09;0,54;-0,21;-0,49;0,00
3.228;-0,54;-0,39;0,61;-0,94;-0,41;0,19;0,54;-0,21;-0,49;0,00
3.251;-0,77;-0,46;0,66;-0,94;-0,41;0,19;0,54;-0,21;-0,49;0,00
3.252;-0,77;-0,46;0,66;-1,63;-1,01;0,44;0,54;-0,21;-0,49;0,00
3.268;-0,77;-0,46;0,66;-1,93;-1,43;0,33;0,54;-0,21;-0,49;0,00
3.288;-0,77;-0,46;0,66;-2,17;-1,43;0,39;0,54;-0,21;-0,49;0,00
3.289;-0,77;-0,46;0,66;-2,17;-1,43;0,39;0,36;-0,08;-0,01;0,00
3.302;-0,88;-0,54;0,67;-2,17;-1,43;0,39;0,36;-0,08;-0,01;0,00
3.308;-0,88;-0,54;0,67;-2,37;-1,59;0,31;0,36;-0,08;-0,01;0,00
3.328;-0,88;-0,54;0,67;-2,28;-1,72;0,04;0,36;-0,08;-0,01;0,00
3.348;-0,88;-0,54;0,67;-2,17;-1,94;-0,07;0,36;-0,08;-0,01;0,00
3.352;-0,88;-0,54;0,67;-2,17;-1,94;-0,07;0,17;0,25;0,22;0,00
3.367;-0,87;-0,58;0,65;-2,17;-1,94;-0,07;0,17;0,25;0,22;0,00
3.369;-0,87;-0,58;0,65;-2,14;-2,00;0,26;0,17;0,25;0,22;0,00
3.388;-0,87;-0,58;0,65;-2,05;-2,00;0,41;0,17;0,25;0,22;0,00
3.408;-0,87;-0,58;0,65;-1,73;-1,75;0,25;0,17;0,25;0,22;0,00
3.421;-0,87;-0,58;0,65;-1,73;-1,75;0,25;-0,01;-0,07;0,23;0,00
3.428;-0,87;-0,58;0,65;-1,34;-1,63;-0,18;-0,01;-0,07;0,23;0,00
3.443;-0,79;-0,54;0,60;-1,34;-1,63;-0,18;-0,01;-0,07;0,23;0,00
3.45;-0,79;-0,54;0,60;-1,06;-1,32;-0,34;-0,01;-0,07;0,23;0,00
3.468;-0,79;-0,54;0,60;-0,33;-1,05;-0,74;-0,01;-0,07;0,23;0,00
3.483;-0,79;-0,54;0,60;-0,33;-1,05;-0,74;0,20;-0,55;0,23;0,00
3.488;-0,79;-0,54;0,60;0,22;-0,56;-1,74;0,20;-0,55;0,23;0,00
3.498;-0,59;-0,42;0,44;0,22;-0,56;-1,74;0,20;-0,55;0,23;0,00
3.508;-0,59;-0,42;0,44;0,71;-0,57;-1,70;0,20;-0,55;0,23;0,00
3.528;-0,59;-0,42;0,44;0,46;-0,50;-1,23;0,20;-0,55;0,23;0,00
3.548;-0,59;-0,42;0,44;0,52;-0,73;-1,16;0,20;-0,55;0,23;0,00
3.55;-0,59;-0,42;0,44;0,52;-0,73;-1,16;0,23;-0,01;0,05;0,00
3.562;-0,59;-0,43;0,51;0,52;-0,73;-1,16;0,23;-0,01;0,05;0,00
3.568;-0,59;-0,43;0,51;0,65;-0,52;-1,12;0,23;-0,01;0,05;0,00
3.588;-0,59;-0,43;0,51;0,98;-0,02;-1,23;0,23;-0,01;0,05;0,00
3.608;-0,59;-0,43;0,51;1,40;0,57;-1,88;0,23;-0,01;0,05;0,00
3.621;-0,59;-0,43;0,51;1,40;0,57;-1,88;0,21;-0,32;-0,11;0,00
3.627;-0,49;-0,26;0,40;1,40;0,57;-1,88;0,21;-0,32;-0,11;0,00
3.629;-0,49;-0,26;0,40;1,58;1,04;-2,27;0,21;-0,32;-0,11;0,00
3.648;-0,49;-0,26;0,40;1,26;1,53;-1,69;0,21;-0,32;-0,11;0,00
3.668;-0,49;-0,26;0,40;0,47;1,44;-1,46;0,21;-0,32;-0,11;0,00
3.677;-0,49;-0,26;0,40;0,47;1,44;-1,46;0,13;-0,47;-0,04;0,00
3.688;-0,49;-0,26;0,40;0,87;1,26;-1,90;0,13;-0,47;-0,04;0,00
3.691;-0,54;-0,22;0,44;0,87;1,26;-1,90;0,13;-0,47;-0,04;0,00
3.708;-0,54;-0,22;0,44;1,00;1,23;-1,88;0,13;-0,47;-0,04;0,00
3.728;-0,54;-0,22;0,44;0,85;0,90;-2,19;0,13;-0,47;-0,04;0,00
3.743;-0,54;-0,22;0,44;0,85;0,90;-2,19;0,02;0,20;-0,15;0,00
3.748;-0,54;-0,22;0,44;0,22;-0,00;-1,80;0,02;0,20;-0,15;0,00
3.757;-0,62;-0,28;0,51;0,22;-0,00;-1,80;0,02;0,20;-0,15;0,00
3.768;-0,62;-0,28;0,51;0,37;0,85;-1,10;0,02;0,20;-0,15;0,00
3.788;-0,62;-0,28;0,51;-0,00;0,92;-0,67;0,02;0,20;-0,15;0,00
3.808;-0,62;-0,28;0,51;0,33;1,15;-0,51;0,02;0,20;-0,15;0,00
3.809;-0,62;-0,28;0,51;0,33;1,15;-0,51;0,04;0,10;-0,29;0,00
3.822;-0,61;-0,23;0,62;0,33;1,15;-0,51;0,04;0,10;-0,29;0,00
3.828;-0,61;-0,23;0,62;0,35;1,20;-0,07;0,04;0,10;-0,29;0,00
3.848;-0,61;-0,23;0,62;-0,20;0,89;0,04;0,04;0,10;-0,29;0,00
3.868;-0,61;-0,23;0,62;-0,92;0,54;0,24;0,04;0,10;-0,29;0,00
3.872;-0,61;-0,23;0,62;-0,92;0,54;0,24;0,30;0,13;-0,32;0,00
3.887;-0,80;-0,31;0,67;-0,92;0,54;0,24;0,30;0,13;-0,32;0,00
3.888;-0,80;-0,31;0,67;-1,42;0,28;0,37;0,30;0,13;-0,32;0,00
3.908;-0,80;-0,31;0,67;-1,38;0,21;0,47;0,30;0,13;-0,32;0,00
3.928;-0,80;-0,31;0,67;-1,87;-0,13;0,82;0,30;0,13;-0,32;0,00
3.937;-0,80;-0,31;0,67;-1,87;-0,13;0,82;0,37;0,17;-0,26;0,00
3.948;-0,80;-0,31;0,67;-1,56;-0,42;0,97;0,37;0,17;-0,26;0,00
3.953;-0,82;-0,39;0,75;-1,56;-0,42;0,97;0,37;0,17;-0,26;0,00
3.968;-0,82;-0,39;0,75;-1,45;-0,68;1,87;0,37;0,17;-0,26;0,00
3.988;-0,82;-0,39;0,75;-0,96;-1,39;2,22;0,37;0,17;-0,26;0,00
4.003;-0,82;-0,39;0,75;-0,96;-1,39;2,22;0,30;0,34;-0,55;0,00
4.008;-0,82;-0,39;0,75;-0,90;-1,91;2,25;0,30;0,34;-0,55;0,00
4.019;-0,75;-0,56;0,88;-0,90;-1,91;2,25;0,30;0,34;-0,55;0,00
4.028;-0,75;-0,56;0,88;-1,15;-2,26;2,18;0,30;0,34;-0,55;0,00
4.048;-0,75;-0,56;0,88;-1,45;-2,46;1,21;0,30;0,34;-0,55;0,00
4.068;-0,75;-0,56;0,88;-1,22;-2,20;0,12;0,30;0,34;-0,55;0,00
4.07;-0,75;-0,56;0,88;-1,22;-2,20;0,12;0,39;1,95;-0,27;0,00
4.082;-0,77;-0,54;0,50;-1,22;-2,20;0,12;0,39;1,95;-0,27;0,00
4.088;-0,77;-0,54;0,50;-0,62;-1,52;-0,97;0,39;1,95;-0,27;0,00
4.108;-0,77;-0,54;0,50;-0,01;-0,68;-1,43;0,39;1,95;-0,27;0,00
4.128;-0,77;-0,54;0,50;0,44;-0,23;-1,49;0,39;1,95;-0,27;0,00
4.132;-0,77;-0,54;0,50;0,44;-0,23;-1,49;-0,12;2,05;-0,05;0,00
4.147;-0,64;-0,40;0,28;0,44;-0,23;-1,49;-0,12;2,05;-0,05;0,00
4.149;-0,64;-0,40;0,28;1,22;-0,24;-1,88;-0,12;2,05;-0,05;0,00
4.168;-0,64;-0,40;0,28;2,19;0,03;-1,94;-0,12;2,05;-0,05;0,00
4.188;-0,64;-0,40;0,28;2,80;0,29;-2,05;-0,12;2,05;-0,05;0,00
4.197;-0,64;-0,40;0,28;2,80;0,29;-2,05;-0,64;1,70;-0,48;0,00
4.208;-0,64;-0,40;0,28;2,71;0,29;-1,61;-0,64;1,70;-0,48;0,00
4.211;-0,51;-0,39;0,20;2,71;0,29;-1,61;-0,64;1,70;-0,48;0,00
4.228;-0,51;-0,39;0,20;3,33;0,72;-1,62;-0,64;1,70;-0,48;0,00
4.248;-0,51;-0,39;0,20;4,11;1,35;-1,76;-0,64;1,70;-0,48;0,00
4.263;-0,51;-0,39;0,20;4,11;1,35;-1,76;-0,87;1,07;-1,08;0,00
4.268;-0,51;-0,39;0,20;4,71;1,35;-2,15;-0,87;1,07;-1,08;0,00
4.277;-0,28;-0,37;0,03;4,71;1,35;-2,15;-0,87;1,07;-1,08;0,00
4.288;-0,28;-0,37;0,03;4,98;1,52;-2,26;-0,87;1,07;-1,08;0,00
4.308;-0,28;-0,37;0,03;4,81;1,36;-2,03;-0,87;1,07;-1,08;0,00
4.328;-0,28;-0,37;0,03;3,97;1,04;-1,50;-0,87;1,07;-1,08;0,00
4.33;-0,28;-0,37;0,03;3,97;1,04;-1,50;-1,22;0,90;-1,75;0,00
4.342;-0,40;-0,57;0,06;3,97;1,04;-1,50;-1,22;0,90;-1,75;0,00
4.348;-0,40;-0,57;0,06;3,01;0,47;-0,85;-1,22;0,90;-1,75;0,00
4.368;-0,40;-0,57;0,06;2,39;0,07;-0,59;-1,22;0,90;-1,75;0,00
4.388;-0,40;-0,57;0,06;0,33;-0,69;0,40;-1,22;0,90;-1,75;0,00
4.391;-0,40;-0,57;0,06;0,33;-0,69;0,40;-1,64;-0,87;-2,35;0,00
4.406;-0,66;-0,96;0,21;0,33;-0,69;0,40;-1,64;-0,87;-2,35;0,00
4.408;-0,66;-0,96;0,21;-0,48;-1,99;0,99;-1,64;-0,87;-2,35;0,00
4.428;-0,66;-0,96;0,21;-1,07;-2,25;1,28;-1,64;-0,87;-2,35;0,00
4.448;-0,66;-0,96;0,21;-0,87;-2,29;1,20;-1,64;-0,87;-2,35;0,00
4.457;-0,66;-0,96;0,21;-0,87;-2,29;1,20;-1,65;-0,89;-2,08;0,00
4.468;-0,66;-0,96;0,21;-0,29;-2,31;1,42;-1,65;-0,89;-2,08;0,00
4.471;-0,52;-1,08;0,21;-0,29;-2,31;1,42;-1,65;-0,89;-2,08;0,00
4.488;-0,52;-1,08;0,21;-0,76;-2,49;1,64;-1,65;-0,89;-2,08;0,00
4.508;-0,52;-1,08;0,21;-0,92;-2,95;1,74;-1,65;-0,89;-2,08;0,00
4.523;-0,52;-1,08;0,21;-0,92;-2,95;1,74;-1,61;0,01;-1,81;0,00
4.528;-0,52;-1,08;0,21;-0,96;-3,60;1,30;-1,61;0,01;-1,81;0,00
4.54;-0,50;-1,32;0,10;-0,96;-3,60;1,30;-1,61;0,01;-1,81;0,00
4.548;-0,50;-1,32;0,10;-1,13;-4,91;1,15;-1,61;0,01;-1,81;0,00
4.568;-0,50;-1,32;0,10;-1,54;-5,80;1,24;-1,61;0,01;-1,81;0,00
4.588;-0,50;-1,32;0,10;-1,48;-5,95;1,47;-1,61;0,01;-1,81;0,00
4.59;-0,50;-1,32;0,10;-1,48;-5,95;1,47;-1,75;-1,18;-2,13;0,00
4.602;-0,40;-1,50;0,07;-1,48;-5,95;1,47;-1,75;-1,18;-2,13;0,00
4.608;-0,40;-1,50;0,07;-1,30;-5,20;1,80;-1,75;-1,18;-2,13;0,00
4.628;-0,40;-1,50;0,07;-1,97;-4,08;1,72;-1,75;-1,18;-2,13;0,00
4.648;-0,40;-1,50;0,07;-2,53;-2,62;1,97;-1,75;-1,18;-2,13;0,00
4.652;-0,40;-1,50;0,07;-2,53;-2,62;1,97;-1,36;-1,24;-1,97;0,00
4.667;-0,46;-1,13;0,06;-2,53;-2,62;1,97;-1,36;-1,24;-1,97;0,00
4.669;-0,46;-1,13;0,06;-2,82;-1,76;2,16;-1,36;-1,24;-1,97;0,00
4.688;-0,46;-1,13;0,06;-2,60;-0,64;1,73;-1,36;-1,24;-1,97;0,00
4.708;-0,46;-1,13;0,06;-2,63;-0,23;2,02;-1,36;-1,24;-1,97;0,00
4.718;-0,46;-1,13;0,06;-2,63;-0,23;2,02;-0,64;-1,00;-1,08;0,00
4.738;-0,46;-1,13;0,06;-2,48;0,34;2,34;-0,64;-1,00;-1,08;0,00
4.739;-0,38;-0,91;0,06;-2,48;0,34;2,34;-0,64;-1,00;-1,08;0,00
4.748;-0,38;-0,91;0,06;-2,35;0,56;2,28;-0,64;-1,00;-1,08;0,00
4.768;-0,38;-0,91;0,06;-2,75;0,46;2,22;-0,64;-1,00;-1,08;0,00
4.783;-0,38;-0,91;0,06;-2,75;0,46;2,22;-0,04;-0,99;-0,34;0,00
4.788;-0,38;-0,91;0,06;-2,66;0,53;1,76;-0,04;-0,99;-0,34;0,00
4.796;-0,38;-0,90;-0,00;-2,66;0,53;1,76;-0,04;-0,99;-0,34;0,00
4.808;-0,38;-0,90;-0,00;-2,20;0,80;1,40;-0,04;-0,99;-0,34;0,00
4.834;-0,38;-0,90;-0,00;-1,89;1,42;1,33;-0,04;-0,99;-0,34;0,00
4.858;-0,38;-0,90;-0,00;-1,54;1,90;1,31;-0,04;-0,99;-0,34;0,00
4.86;-0,38;-0,90;-0,00;-1,54;1,90;1,31;0,29;-0,80;0,14;0,00
4.867;-0,32;-0,73;0,01;-1,54;1,90;1,31;0,29;-0,80;0,14;0,00
4.869;-0,32;-0,73;0,01;-1,44;2,28;1,32;0,29;-0,80;0,14;0,00
4.888;-0,32;-0,73;0,01;-1,21;2,27;1,06;0,29;-0,80;0,14;0,00
4.908;-0,32;-0,73;0,01;-1,29;2,26;0,81;0,29;-0,80;0,14;0,00
4.918;-0,32;-0,73;0,01;-1,29;2,26;0,81;0,48;-0,30;0,32;0,00
4.926;-0,33;-0,72;-0,04;-1,29;2,26;0,81;0,48;-0,30;0,32;0,00
4.937;-0,33;-0,72;-0,04;-1,18;2,24;0,48;0,48;-0,30;0,32;0,00
4.948;-0,33;-0,72;-0,04;-1,29;2,16;0,46;0,48;-0,30;0,32;0,00
4.968;-0,33;-0,72;-0,04;-1,42;2,02;0,49;0,48;-0,30;0,32;0,00
4.977;-0,33;-0,72;-0,04;-1,42;2,02;0,49;0,54;-0,11;0,37;0,00
4.988;-0,33;-0,72;-0,04;-1,30;1,87;0,18;0,54;-0,11;0,37;0,00
4.991;-0,36;-0,76;-0,04;-1,30;1,87;0,18;0,54;-0,11;0,37;0,00
5.008;-0,36;-0,76;-0,04;-1,09;1,66;-0,02;0,54;-0,11;0,37;0,00
5.028;-0,36;-0,76;-0,04;-0,99;1,55;-0,03;0,54;-0,11;0,37;0,00
5.043;-0,36;-0,76;-0,04;-0,99;1,55;-0,03;0,37;0,63;0,33;0,00
5.048;-0,36;-0,76;-0,04;-1,03;1,16;0,11;0,37;0,63;0,33;0,00
5.056;-0,41;-0,85;-0,01;-1,03;1,16;0,11;0,37;0,63;0,33;0,00
5.068;-0,41;-0,85;-0,01;-1,52;0,67;0,26;0,37;0,63;0,33;0,00
5.088;-0,41;-0,85;-0,01;-1,54;0,07;0,11;0,37;0,63;0,33;0,00
5.108;-0,41;-0,85;-0,01;-1,59;-0,24;-0,15;0,37;0,63;0,33;0,00
5.109;-0,41;-0,85;-0,01;-1,59;-0,24;-0,15;0,33;0,34;0,23;0,00
5.122;-0,44;-1,01;-0,02;-1,59;-0,24;-0,15;0,33;0,34;0,23;0,00
5.137;-0,44;-1,01;-0,02;-1,47;-1,03;0,01;0,33;0,34;0,23;0,00
5.148;-0,44;-1,01;-0,02;-1,52;-1,91;0,14;0,33;0,34;0,23;0,00
5.168;-0,44;-1,01;-0,02;-1,55;-2,87;0,18;0,33;0,34;0,23;0,00
5.172;-0,44;-1,01;-0,02;-1,55;-2,87;0,18;0,39;0,50;0,38;0,00
5.186;-0,43;-1,37;-0,04;-1,55;-2,87;0,18;0,39;0,50;0,38;0,00
5.188;-0,43;-1,37;-0,04;-1,34;-4,34;-0,27;0,39;0,50;0,38;0,00
5.208;-0,43;-1,37;-0,04;-1,06;-4,71;-0,06;0,39;0,50;0,38;0,00
5.228;-0,43;-1,37;-0,04;-0,93;-4,74;-0,05;0,39;0,50;0,38;0,00
5.237;-0,43;-1,37;-0,04;-0,93;-4,74;-0,05;0,42;0,29;0,41;0,00
5.248;-0,43;-1,37;-0,04;-0,92;-3,62;-0,07;0,42;0,29;0,41;0,00
5.252;-0,41;-1,27;0,01;-0,92;-3,62;-0,07;0,42;0,29;0,41;0,00
5.268;-0,41;-1,27;0,01;-0,67;-2,72;0,24;0,42;0,29;0,41;0,00
5.288;-0,41;-1,27;0,01;-0,22;-1,97;0,26;0,42;0,29;0,41;0,00
5.303;-0,41;-1,27;0,01;-0,22;-1,97;0,26;0,66;0,62;0,88;0,00
5.308;-0,41;-1,27;0,01;0,01;-2,01;0,01;0,66;0,62;0,88;0,00
5.316;-0,33;-1,12;0,03;0,01;-2,01;0,01;0,66;0,62;0,88;0,00
5.335;-0,33;-1,12;0,03;0,17;-2,15;-0,11;0,66;0,62;0,88;0,00
5.353;-0,33;-1,12;0,03;0,36;-2,25;-0,14;0,66;0,62;0,88;0,00
5.368;-0,33;-1,12;0,03;0,80;-2,15;-0,27;0,66;0,62;0,88;0,00
5.37;-0,33;-1,12;0,03;0,80;-2,15;-0,27;0,63;0,46;1,15;0,00
5.382;-0,27;-1,08;0,02;0,80;-2,15;-0,27;0,63;0,46;1,15;0,00
5.388;-0,27;-1,08;0,02;1,17;-1,62;-0,35;0,63;0,46;1,15;0,00
5.408;-0,27;-1,08;0,02;1,36;-0,94;-0,31;0,63;0,46;1,15;0,00
5.429;-0,27;-1,08;0,02;1,78;-0,27;-0,18;0,63;0,46;1,15;0,00
5.432;-0,27;-1,08;0,02;1,78;-0,27;-0,18;0,65;0,13;1,26;0,00
5.447;-0,22;-0,84;0,04;1,78;-0,27;-0,18;0,65;0,13;1,26;0,00
5.448;-0,22;-0,84;0,04;2,09;0,27;-0,38;0,65;0,13;1,26;0,00
5.468;-0,22;-0,84;0,04;2,51;0,48;-0,72;0,65;0,13;1,26;0,00
5.488;-0,22;-0,84;0,04;2,64;0,74;-0,85;0,65;0,13;1,26;0,00
5.497;-0,22;-0,84;0,04;2,64;0,74;-0,85;0,60;0,31;1,18;0,00
5.508;-0,22;-0,84;0,04;2,75;0,83;-0,85;0,60;0,31;1,18;0,00
5.512;-0,20;-0,76;0,02;2,75;0,83;-0,85;0,60;0,31;1,18;0,00
5.529;-0,20;-0,76;0,02;2,78;0,91;-0,79;0,60;0,31;1,18;0,00
5.551;-0,20;-0,76;0,02;3,06;0,88;-0,96;0,60;0,31;1,18;0,00
5.57;-0,20;-0,76;0,02;3,06;0,88;-0,96;0,38;0,35;0,80;0,00
5.571;-0,20;-0,76;0,02;2,98;0,91;-1,06;0,38;0,35;0,80;0,00
5.576;-0,20;-0,74;0,00;2,98;0,91;-1,06;0,38;0,35;0,80;0,00
5.588;-0,20;-0,74;0,00;2,90;0,90;-1,13;0,38;0,35;0,80;0,00
5.608;-0,20;-0,74;0,00;2,73;1,06;-1,06;0,38;0,35;0,80;0,00
5.628;-0,20;-0,74;0,00;2,86;0,98;-1,01;0,38;0,35;0,80;0,00
5.63;-0,20;-0,74;0,00;2,86;0,98;-1,01;0,07;0,41;0,34;0,00
5.642;-0,24;-0,75;-0,00;2,86;0,98;-1,01;0,07;0,41;0,34;0,00
5.648;-0,24;-0,75;-0,00;2,50;0,74;-0,99;0,07;0,41;0,34;0,00
5.668;-0,24;-0,75;-0,00;2,22;0,19;-1,02;0,07;0,41;0,34;0,00
5.688;-0,24;-0,75;-0,00;1,81;-0,24;-0,79;0,07;0,41;0,34;0,00
5.692;-0,24;-0,75;-0,00;1,81;-0,24;-0,79;-0,28;0,32;-0,20;0,00
5.706;-0,33;-0,90;0,00;1,81;-0,24;-0,79;-0,28;0,32;-0,20;0,00
5.708;-0,33;-0,90;0,00;1,58;-0,65;-0,68;-0,28;0,32;-0,20;0,00
5.728;-0,33;-0,90;0,00;1,17;-1,26;-0,59;-0,28;0,32;-0,20;0,00
5.758;-0,33;-0,90;0,00;0,78;-1,82;-0,64;-0,28;0,32;-0,20;0,00
5.76;-0,33;-0,90;0,00;0,78;-1,82;-0,64;-0,48;0,33;-0,62;0,00
5.768;-0,33;-0,90;0,00;0,36;-2,30;-0,73;-0,48;0,33;-0,62;0,00
5.772;-0,42;-1,11;-0,04;0,36;-2,30;-0,73;-0,48;0,33;-0,62;0,00
5.788;-0,42;-1,11;-0,04;0,07;-2,87;-0,61;-0,48;0,33;-0,62;0,00
5.808;-0,42;-1,11;-0,04;-0,16;-3,00;-0,46;-0,48;0,33;-0,62;0,00
5.823;-0,42;-1,11;-0,04;-0,16;-3,00;-0,46;-0,73;-0,07;-1,11;0,00
5.835;-0,42;-1,11;-0,04;-0,09;-3,07;-0,19;-0,73;-0,07;-1,11;0,00
5.837;-0,41;-1,17;-0,03;-0,09;-3,07;-0,19;-0,73;-0,07;-1,11;0,00
5.848;-0,41;-1,17;-0,03;-0,21;-2,26;0,04;-0,73;-0,07;-1,11;0,00
5.868;-0,41;-1,17;-0,03;-0,25;-1,03;0,43;-0,73;-0,07;-1,11;0,00
5.888;-0,41;-1,17;-0,03;-0,65;0,36;0,34;-0,73;-0,07;-1,11;0,00
5.889;-0,41;-1,17;-0,03;-0,65;0,36;0,34;-0,49;-0,29;-1,25;0,00
5.902;-0,42;-0,87;-0,05;-0,65;0,36;0,34;-0,49;-0,29;-1,25;0,00
5.908;-0,42;-0,87;-0,05;-0,91;0,42;0,15;-0,49;-0,29;-1,25;0,00
5.933;-0,42;-0,87;-0,05;-0,89;-0,05;0,33;-0,49;-0,29;-1,25;0,00
5.953;-0,42;-0,87;-0,05;-1,11;-0,39;0,23;-0,49;-0,29;-1,25;0,00
5.954;-0,42;-0,87;-0,05;-1,11;-0,39;0,23;-0,41;-0,82;-1,00;0,00
5.967;-0,40;-1,01;-0,07;-1,11;-0,39;0,23;-0,41;-0,82;-1,00;0,00
5.968;-0,40;-1,01;-0,07;-1,06;-0,78;-0,05;-0,41;-0,82;-1,00;0,00
5.988;-0,40;-1,01;-0,07;-0,98;-0,84;0,07;-0,41;-0,82;-1,00;0,00
6.008;-0,40;-1,01;-0,07;-1,05;-0,53;0,30;-0,41;-0,82;-1,00;0,00
6.017;-0,40;-1,01;-0,07;-1,05;-0,53;0,30;-0,57;-0,84;-1,03;0,00
6.036;-0,40;-1,01;-0,07;-1,28;0,37;0,79;-0,57;-0,84;-1,03;0,00
6.037;-0,38;-0,88;-0,00;-1,28;0,37;0,79;-0,57;-0,84;-1,03;0,00
6.048;-0,38;-0,88;-0,00;-1,35;1,07;0,67;-0,57;-0,84;-1,03;0,00
6.068;-0,38;-0,88;-0,00;-1,54;1,69;0,52;-0,57;-0,84;-1,03;0,00
6.083;-0,38;-0,88;-0,00;-1,54;1,69;0,52;-0,41;-0,72;-0,86;0,00
6.088;-0,38;-0,88;-0,00;-1,46;2,10;0,62;-0,41;-0,72;-0,86;0,00
6.096;-0,38;-0,72;-0,02;-1,46;2,10;0,62;-0,41;-0,72;-0,86;0,00
6.108;-0,38;-0,72;-0,02;-1,57;2,32;0,85;-0,41;-0,72;-0,86;0,00
6.135;-0,38;-0,72;-0,02;-1,52;2,30;0,92;-0,41;-0,72;-0,86;0,00
6.155;-0,38;-0,72;-0,02;-1,70;2,20;0,94;-0,41;-0,72;-0,86;0,00
6.156;-0,38;-0,72;-0,02;-1,70;2,20;0,94;-0,32;-0,32;-0,64;0,00
6.163;-0,39;-0,75;-0,01;-1,70;2,20;0,94;-0,32;-0,32;-0,64;0,00
6.168;-0,39;-0,75;-0,01;-1,67;1,87;0,95;-0,32;-0,32;-0,64;0,00
6.188;-0,39;-0,75;-0,01;-1,80;1,53;0,98;-0,32;-0,32;-0,64;0,00
6.208;-0,39;-0,75;-0,01;-1,79;1,19;0,92;-0,32;-0,32;-0,64;0,00
6.216;-0,39;-0,75;-0,01;-1,79;1,19;0,92;-0,28;-0,09;-0,57;0,00
6.235;-0,42;-0,85;-0,02;-1,79;1,19;0,92;-0,28;-0,09;-0,57;0,00
6.237;-0,42;-0,85;-0,02;-2,09;0,96;0,88;-0,28;-0,09;-0,57;0,00
6.248;-0,42;-0,85;-0,02;-2,24;0,82;0,83;-0,28;-0,09;-0,57;0,00
6.268;-0,42;-0,85;-0,02;-2,37;0,69;0,85;-0,28;-0,09;-0,57;0,00
6.277;-0,42;-0,85;-0,02;-2,37;0,69;0,85;-0,23;-0,10;-0,44;0,00
6.288;-0,42;-0,85;-0,02;-2,24;0,57;0,66;-0,23;-0,10;-0,44;0,00
6.291;-0,44;-0,90;-0,05;-2,24;0,57;0,66;-0,23;-0,10;-0,44;0,00
6.308;-0,44;-0,90;-0,05;-2,54;0,29;0,70;-0,23;-0,10;-0,44;0,00
6.328;-0,44;-0,90;-0,05;-2,73;0,17;0,87;-0,23;-0,10;-0,44;0,00
6.344;-0,44;-0,90;-0,05;-2,73;0,17;0,87;-0,08;0,01;-0,18;0,00
6.348;-0,44;-0,90;-0,05;-2,77;-0,75;0,92;-0,08;0,01;-0,18;0,00
6.356;-0,49;-1,09;-0,04;-2,77;-0,75;0,92;-0,08;0,01;-0,18;0,00
6.368;-0,49;-1,09;-0,04;-2,61;-1,75;0,65;-0,08;0,01;-0,18;0,00
6.388;-0,49;-1,09;-0,04;-2,30;-1,78;0,99;-0,08;0,01;-0,18;0,00
6.408;-0,49;-1,09;-0,04;-1,73;-2,73;0,98;-0,08;0,01;-0,18;0,00
6.409;-0,49;-1,09;-0,04;-1,73;-2,73;0,98;0,23;-0,29;0,16;0,00
6.422;-0,39;-1,29;-0,04;-1,73;-2,73;0,98;0,23;-0,29;0,16;0,00
6.436;-0,39;-1,29;-0,04;-1,65;-3,53;0,56;0,23;-0,29;0,16;0,00
6.448;-0,39;-1,29;-0,04;-1,67;-4,15;0,36;0,23;-0,29;0,16;0,00
6.468;-0,39;-1,29;-0,04;-1,97;-3,48;0,33;0,23;-0,29;0,16;0,00
6.471;-0,39;-1,29;-0,04;-1,97;-3,48;0,33;0,23;0,05;0,25;0,00
6.487;-0,39;-1,18;0,00;-1,97;-3,48;0,33;0,23;0,05;0,25;0,00
6.488;-0,39;-1,18;0,00;-1,51;-2,30;0,73;0,23;0,05;0,25;0,00
6.508;-0,39;-1,18;0,00;-1,00;-1,50;0,72;0,23;0,05;0,25;0,00
6.528;-0,39;-1,18;0,00;-0,72;-1,43;0,54;0,23;0,05;0,25;0,00
6.537;-0,39;-1,18;0,00;-0,72;-1,43;0,54;0,46;0,26;0,72;0,00
6.548;-0,39;-1,18;0,00;-0,64;-1,53;0,43;0,46;0,26;0,72;0,00
6.551;-0,33;-1,09;-0,00;-0,64;-1,53;0,43;0,46;0,26;0,72;0,00
6.568;-0,33;-1,09;-0,00;-0,44;-1,55;0,40;0,46;0,26;0,72;0,00
6.588;-0,33;-1,09;-0,00;-0,28;-1,50;0,35;0,46;0,26;0,72;0,00
6.603;-0,33;-1,09;-0,00;-0,28;-1,50;0,35;0,45;0,63;0,91;0,00
6.608;-0,33;-1,09;-0,00;-0,31;-1,20;0,23;0,45;0,63;0,91;0,00
6.617;-0,34;-1,01;0,00;-0,31;-1,20;0,23;0,45;0,63;0,91;0,00
6.635;-0,34;-1,01;0,00;-0,18;-0,47;0,33;0,45;0,63;0,91;0,00
6.655;-0,34;-1,01;0,00;0,09;0,26;0,36;0,45;0,63;0,91;0,00
6.668;-0,34;-1,01;0,00;0,40;0,80;0,32;0,45;0,63;0,91;0,00
6.67;-0,34;-1,01;0,00;0,40;0,80;0,32;0,49;0,24;1,16;0,00
6.682;-0,30;-0,81;0,02;0,40;0,80;0,32;0,49;0,24;1,16;0,00
6.688;-0,30;-0,81;0,02;0,67;0,97;0,16;0,49;0,24;1,16;0,00
6.708;-0,30;-0,81;0,02;1,05;0,85;0,13;0,49;0,24;1,16;0,00
6.728;-0,30;-0,81;0,02;1,50;0,52;0,08;0,49;0,24;1,16;0,00
6.732;-0,30;-0,81;0,02;1,50;0,52;0,08;0,60;0,35;1,31;0,00
6.747;-0,25;-0,82;-0,01;1,50;0,52;0,08;0,60;0,35;1,31;0,00
6.748;-0,25;-0,82;-0,01;1,68;0,53;-0,34;0,60;0,35;1,31;0,00
6.768;-0,25;-0,82;-0,01;1,58;0,43;-0,61;0,60;0,35;1,31;0,00
6.788;-0,25;-0,82;-0,01;1,87;0,42;-0,62;0,60;0,35;1,31;0,00
6.797;-0,25;-0,82;-0,01;1,87;0,42;-0,62;0,52;0,68;1,24;0,00
6.808;-0,25;-0,82;-0,01;1,99;0,34;-0,51;0,52;0,68;1,24;0,00
6.811;-0,26;-0,82;-0,02;1,99;0,34;-0,51;0,52;0,68;1,24;0,00
6.834;-0,26;-0,82;-0,02;2,20;0,10;-0,53;0,52;0,68;1,24;0,00
6.854;-0,26;-0,82;-0,02;2,23;0,10;-0,50;0,52;0,68;1,24;0,00
6.863;-0,26;-0,82;-0,02;2,23;0,10;-0,50;0,22;0,27;0,90;0,00
6.868;-0,26;-0,82;-0,02;2,57;0,00;-0,47;0,22;0,27;0,90;0,00
6.877;-0,24;-0,85;-0,02;2,57;0,00;-0,47;0,22;0,27;0,90;0,00
6.888;-0,24;-0,85;-0,02;2,62;-0,40;-0,49;0,22;0,27;0,90;0,00
6.908;-0,24;-0,85;-0,02;2,70;-1,06;-0,59;0,22;0,27;0,90;0,00
6.928;-0,24;-0,85;-0,02;2,42;-1,24;-0,52;0,22;0,27;0,90;0,00
6.93;-0,24;-0,85;-0,02;2,42;-1,24;-0,52;-0,09;0,13;0,41;0,00
6.942;-0,26;-0,99;-0,03;2,42;-1,24;-0,52;-0,09;0,13;0,41;0,00
6.948;-0,26;-0,99;-0,03;2,52;-1,79;-0,50;-0,09;0,13;0,41;0,00
6.968;-0,26;-0,99;-0,03;2,36;-1,99;-0,67;-0,09;0,13;0,41;0,00
6.988;-0,26;-0,99;-0,03;2,24;-2,11;-0,83;-0,09;0,13;0,41;0,00
6.991;-0,26;-0,99;-0,03;2,24;-2,11;-0,83;-0,29;-0,11;-0,06;0,00
7.007;-0,26;-1,10;-0,11;2,24;-2,11;-0,83;-0,29;-0,11;-0,06;0,00
7.008;-0,26;-1,10;-0,11;2,15;-2,52;-1,07;-0,29;-0,11;-0,06;0,00
7.033;-0,26;-1,10;-0,11;1,97;-2,79;-1,12;-0,29;-0,11;-0,06;0,00
7.056;-0,26;-1,10;-0,11;1,49;-2,74;-0,61;-0,29;-0,11;-0,06;0,00
7.057;-0,26;-1,10;-0,11;1,49;-2,74;-0,61;-0,63;-0,44;-0,57;0,00
7.068;-0,26;-1,10;-0,11;1,03;-2,34;-0,47;-0,63;-0,44;-0,57;0,00
7.072;-0,36;-1,07;-0,07;1,03;-2,34;-0,47;-0,63;-0,44;-0,57;0,00
7.088;-0,36;-1,07;-0,07;0,84;-1,31;-0,47;-0,63;-0,44;-0,57;0,00
7.108;-0,36;-1,07;-0,07;0,98;-0,93;-0,24;-0,63;-0,44;-0,57;0,00
7.123;-0,36;-1,07;-0,07;0,98;-0,93;-0,24;-0,69;-0,59;-0,94;0,00
7.134;-0,36;-1,07;-0,07;0,62;-0,53;-0,13;-0,69;-0,59;-0,94;0,00
7.137;-0,37;-0,93;-0,06;0,62;-0,53;-0,13;-0,69;-0,59;-0,94;0,00
7.148;-0,37;-0,93;-0,06;0,12;-0,40;-0,02;-0,69;-0,59;-0,94;0,00
7.168;-0,37;-0,93;-0,06;-0,27;-0,25;-0,17;-0,69;-0,59;-0,94;0,00
7.188;-0,37;-0,93;-0,06;-0,37;-0,22;-0,38;-0,69;-0,59;-0,94;0,00
7.19;-0,37;-0,93;-0,06;-0,37;-0,22;-0,38;-0,49;-0,56;-1,01;0,00
7.202;-0,39;-0,94;-0,11;-0,37;-0,22;-0,38;-0,49;-0,56;-1,01;0,00
7.208;-0,39;-0,94;-0,11;-0,40;-0,33;-0,33;-0,49;-0,56;-1,01;0,00
7.232;-0,39;-0,94;-0,11;-0,53;-0,19;-0,09;-0,49;-0,56;-1,01;0,00
7.251;-0,39;-0,94;-0,11;-0,70;0,45;0,22;-0,49;-0,56;-1,01;0,00
7.252;-0,39;-0,94;-0,11;-0,70;0,45;0,22;-0,33;-0,33;-0,78;0,00
7.266;-0,38;-0,79;-0,04;-0,70;0,45;0,22;-0,33;-0,33;-0,78;0,00
7.268;-0,38;-0,79;-0,04;-0,57;1,28;0,48;-0,33;-0,33;-0,78;0,00
7.288;-0,38;-0,79;-0,04;-0,49;2,08;0,30;-0,33;-0,33;-0,78;0,00
7.308;-0,38;-0,79;-0,04;-0,44;2,61;0,28;-0,33;-0,33;-0,78;0,00
7.317;-0,38;-0,79;-0,04;-0,44;2,61;0,28;-0,28;-0,28;-0,73;0,00
7.332;-0,38;-0,79;-0,04;-0,45;2,80;0,46;-0,28;-0,28;-0,73;0,00
7.333;-0,36;-0,63;-0,04;-0,45;2,80;0,46;-0,28;-0,28;-0,73;0,00
7.353;-0,36;-0,63;-0,04;-0,64;2,78;0,53;-0,28;-0,28;-0,73;0,00
7.368;-0,36;-0,63;-0,04;-0,71;2,32;0,65;-0,28;-0,28;-0,73;0,00
7.383;-0,36;-0,63;-0,04;-0,71;2,32;0,65;-0,43;0,57;-0,74;0,00
7.388;-0,36;-0,63;-0,04;-1,18;1,90;0,84;-0,43;0,57;-0,74;0,00
7.396;-0,41;-0,76;-0,03;-1,18;1,90;0,84;-0,43;0,57;-0,74;0,00
7.408;-0,41;-0,76;-0,03;-1,62;1,33;1,07;-0,43;0,57;-0,74;0,00
7.431;-0,41;-0,76;-0,03;-2,68;0,92;1,34;-0,43;0,57;-0,74;0,00
7.453;-0,41;-0,76;-0,03;-2,62;0,66;1,16;-0,43;0,57;-0,74;0,00
7.455;-0,41;-0,76;-0,03;-2,62;0,66;1,16;-0,34;-0,12;-0,85;0,00
7.462;-0,52;-0,86;-0,03;-2,62;0,66;1,16;-0,34;-0,12;-0,85;0,00
7.468;-0,52;-0,86;-0,03;-2,56;0,69;1,10;-0,34;-0,12;-0,85;0,00
7.488;-0,52;-0,86;-0,03;-2,32;0,55;1,16;-0,34;-0,12;-0,85;0,00
7.508;-0,52;-0,86;-0,03;-2,38;0,37;1,18;-0,34;-0,12;-0,85;0,00
7.511;-0,52;-0,86;-0,03;-2,38;0,37;1,18;-0,29;0,32;-0,58;0,00
7.527;-0,50;-0,94;-0,03;-2,38;0,37;1,18;-0,29;0,32;-0,58;0,00
7.528;-0,50;-0,94;-0,03;-2,44;-0,06;1,16;-0,29;0,32;-0,58;0,00
7.548;-0,50;-0,94;-0,03;-2,73;-0,70;1,20;-0,29;0,32;-0,58;0,00
7.568;-0,50;-0,94;-0,03;-2,41;-1,40;1,19;-0,29;0,32;-0,58;0,00
7.577;-0,50;-0,94;-0,03;-2,41;-1,40;1,19;-0,05;-0,01;-0,34;0,00
7.588;-0,50;-0,94;-0,03;-2,10;-1,63;1,26;-0,05;-0,01;-0,34;0,00
7.592;-0,45;-1,10;-0,02;-2,10;-1,63;1,26;-0,05;-0,01;-0,34;0,00
7.609;-0,45;-1,10;-0,02;-1,76;-1,86;1,29;-0,05;-0,01;-0,34;0,00
7.628;-0,45;-1,10;-0,02;-1,51;-3,12;1,07;-0,05;-0,01;-0,34;0,00
7.651;-0,45;-1,10;-0,02;-1,51;-3,12;1,07;0,22;0,09;-0,09;0,00
7.652;-0,45;-1,10;-0,02;-1,44;-4,04;0,81;0,22;0,09;-0,09;0,00
7.657;-0,39;-1,34;-0,03;-1,44;-4,04;0,81;0,22;0,09;-0,09;0,00
7.677;-0,39;-1,34;-0,03;-1,34;-4,01;0,90;0,22;0,09;-0,09;0,00
7.689;-0,39;-1,34;-0,03;-1,10;-3,38;0,87;0,22;0,09;-0,09;0,00
7.708;-0,39;-1,34;-0,03;-1,01;-2,15;0,81;0,22;0,09;-0,09;0,00
7.71;-0,39;-1,34;-0,03;-1,01;-2,15;0,81;0,50;0,48;0,09;0,00
7.722;-0,33;-1,09;-0,04;-1,01;-2,15;0,81;0,50;0,48;0,09;0,00
7.728;-0,33;-1,09;-0,04;-0,80;-1,24;0,51;0,50;0,48;0,09;0,00
7.75;-0,33;-1,09;-0,04;-0,70;-0,89;0,17;0,50;0,48;0,09;0,00
7.776;-0,33;-1,09;-0,04;-0,65;-0,66;-0,04;0,50;0,48;0,09;0,00
7.777;-0,33;-1,09;-0,04;-0,65;-0,66;-0,04;0,55;1,21;0,46;0,00
7.787;-0,35;-1,03;-0,07;-0,65;-0,66;-0,04;0,55;1,21;0,46;0,00
7.789;-0,35;-1,03;-0,07;-0,86;-0,90;0,04;0,55;1,21;0,46;0,00
7.808;-0,35;-1,03;-0,07;-0,73;-0,99;0,12;0,55;1,21;0,46;0,00
7.828;-0,35;-1,03;-0,07;-0,67;-0,88;0,32;0,55;1,21;0,46;0,00
7.837;-0,35;-1,03;-0,07;-0,67;-0,88;0,32;0,32;0,66;0,73;0,00
7.85;-0,35;-1,03;-0,07;-0,47;-0,48;0,49;0,32;0,66;0,73;0,00
7.852;-0,34;-0,95;-0,01;-0,47;-0,48;0,49;0,32;0,66;0,73;0,00
7.87;-0,34;-0,95;-0,01;-0,02;0,33;0,53;0,32;0,66;0,73;0,00
7.888;-0,34;-0,95;-0,01;0,31;0,95;0,46;0,32;0,66;0,73;0,00
7.903;-0,34;-0,95;-0,01;0,31;0,95;0,46;0,46;0,47;1,16;0,00
7.909;-0,34;-0,95;-0,01;0,60;1,05;0,43;0,46;0,47;1,16;0,00
7.917;-0,29;-0,80;-0,01;0,60;1,05;0,43;0,46;0,47;1,16;0,00
7.928;-0,29;-0,80;-0,01;0,80;1,00;0,22;0,46;0,47;1,16;0,00
7.948;-0,29;-0,80;-0,01;1,14;0,94;0,15;0,46;0,47;1,16;0,00
7.968;-0,29;-0,80;-0,01;1,45;0,80;0,06;0,46;0,47;1,16;0,00
7.969;-0,29;-0,80;-0,01;1,45;0,80;0,06;0,47;0,34;1,41;0,00
7.982;-0,25;-0,82;-0,03;1,45;0,80;0,06;0,47;0,34;1,41;0,00
7.988;-0,25;-0,82;-0,03;1,90;0,51;-0,04;0,47;0,34;1,41;0,00
8.008;-0,25;-0,82;-0,03;2,20;0,31;-0,07;0,47;0,34;1,41;0,00
8.028;-0,25;-0,82;-0,03;2,53;-0,04;0,02;0,47;0,34;1,41;0,00
8.031;-0,25;-0,82;-0,03;2,53;-0,04;0,02;0,35;0,37;1,27;0,00
8.048;-0,21;-0,88;-0,02;2,53;-0,04;0,02;0,35;0,37;1,27;0,00
8.05;-0,21;-0,88;-0,02;2,53;-0,21;-0,05;0,35;0,37;1,27;0,00
8.068;-0,21;-0,88;-0,02;2,80;-0,29;-0,14;0,35;0,37;1,27;0,00
8.088;-0,21;-0,88;-0,02;2,86;-0,28;-0,11;0,35;0,37;1,27;0,00
8.097;-0,21;-0,88;-0,02;2,86;-0,28;-0,11;0,09;0,28;0,81;0,00
8.109;-0,21;-0,88;-0,02;3,11;-0,70;-0,13;0,09;0,28;0,81;0,00
8.111;-0,17;-0,93;-0,03;3,11;-0,70;-0,13;0,09;0,28;0,81;0,00
8.128;-0,17;-0,93;-0,03;3,21;-1,26;-0,24;0,09;0,28;0,81;0,00
8.148;-0,17;-0,93;-0,03;3,40;-1,77;-0,43;0,09;0,28;0,81;0,00
8.168;-0,17;-0,93;-0,03;3,40;-1,77;-0,43;-0,18;0,28;0,18;0,00
8.17;-0,17;-0,93;-0,03;3,02;-2,02;-0,13;-0,18;0,28;0,18;0,00
8.176;-0,19;-1,08;-0,06;3,02;-2,02;-0,13;-0,18;0,28;0,18;0,00
8.188;-0,19;-1,08;-0,06;3,13;-2,27;-0,14;-0,18;0,28;0,18;0,00
8.208;-0,19;-1,08;-0,06;2,55;-2,88;-0,59;-0,18;0,28;0,18;0,00
8.228;-0,19;-1,08;-0,06;2,42;-3,69;-0,67;-0,18;0,28;0,18;0,00
8.229;-0,19;-1,08;-0,06;2,42;-3,69;-0,67;-0,26;0,24;-0,54;0,00
8.247;-0,21;-1,28;-0,11;2,42;-3,69;-0,67;-0,26;0,24;-0,54;0,00
8.249;-0,21;-1,28;-0,11;1,92;-3,99;-0,48;-0,26;0,24;-0,54;0,00
8.268;-0,21;-1,28;-0,11;1,39;-3,82;-0,30;-0,26;0,24;-0,54;0,00
8.288;-0,21;-1,28;-0,11;0,86;-2,62;-0,45;-0,26;0,24;-0,54;0,00
8.292;-0,21;-1,28;-0,11;0,86;-2,62;-0,45;-0,36;-0,02;-1,28;0,00
8.306;-0,29;-1,05;-0,13;0,86;-2,62;-0,45;-0,36;-0,02;-1,28;0,00
8.309;-0,29;-1,05;-0,13;0,46;-1,35;-0,40;-0,36;-0,02;-1,28;0,00
8.328;-0,29;-1,05;-0,13;0,07;-0,59;-0,31;-0,36;-0,02;-1,28;0,00
8.348;-0,29;-1,05;-0,13;-0,52;0,05;-0,26;-0,36;-0,02;-1,28;0,00
8.357;-0,29;-1,05;-0,13;-0,52;0,05;-0,26;-0,25;-0,02;-1,30;0,00
8.368;-0,29;-1,05;-0,13;-0,99;0,45;-0,25;-0,25;-0,02;-1,30;0,00
8.372;-0,38;-0,88;-0,13;-0,99;0,45;-0,25;-0,25;-0,02;-1,30;0,00
8.388;-0,38;-0,88;-0,13;-1,05;0,72;-0,27;-0,25;-0,02;-1,30;0,00
8.408;-0,38;-0,88;-0,13;-1,02;0,55;-0,20;-0,25;-0,02;-1,30;0,00
8.423;-0,38;-0,88;-0,13;-1,02;0,55;-0,20;-0,01;-0,09;-0,75;0,00
8.428;-0,38;-0,88;-0,13;-1,24;0,30;-0,32;-0,01;-0,09;-0,75;0,00
8.436;-0,36;-0,90;-0,15;-1,24;0,30;-0,32;-0,01;-0,09;-0,75;0,00
8.448;-0,36;-0,90;-0,15;-1,36;0,43;-0,20;-0,01;-0,09;-0,75;0,00
8.468;-0,36;-0,90;-0,15;-1,46;0,89;0,14;-0,01;-0,09;-0,75;0,00
8.488;-0,36;-0,90;-0,15;-1,30;1,43;0,11;-0,01;-0,09;-0,75;0,00
8.489;-0,36;-0,90;-0,15;-1,30;1,43;0,11;0,09;-0,68;-0,54;0,00
8.502;-0,35;-0,77;-0,11;-1,30;1,43;0,11;0,09;-0,68;-0,54;0,00
8.508;-0,35;-0,77;-0,11;-1,19;1,76;-0,06;0,09;-0,68;-0,54;0,00
8.528;-0,35;-0,77;-0,11;-1,02;1,98;-0,06;0,09;-0,68;-0,54;0,00
8.559;-0,35;-0,77;-0,11;-0,96;2,15;0,02;0,09;-0,68;-0,54;0,00
8.561;-0,35;-0,77;-0,11;-0,96;2,15;0,02;0,09;-0,55;-0,40;0,00
8.567;-0,32;-0,73;-0,08;-0,96;2,15;0,02;0,09;-0,55;-0,40;0,00
8.568;-0,32;-0,73;-0,08;-0,98;2,10;0,14;0,09;-0,55;-0,40;0,00
8.588;-0,32;-0,73;-0,08;-1,64;1,87;0,25;0,09;-0,55;-0,40;0,00
8.608;-0,32;-0,73;-0,08;-2,63;1,35;0,43;0,09;-0,55;-0,40;0,00
8.617;-0,32;-0,73;-0,08;-2,63;1,35;0,43;-0,05;-0,89;-0,25;0,00
8.628;-0,32;-0,73;-0,08;-3,41;1,09;1,05;-0,05;-0,89;-0,25;0,00
8.631;-0,58;-0,84;0,04;-3,41;1,09;1,05;-0,05;-0,89;-0,25;0,00
8.648;-0,58;-0,84;0,04;-3,04;0,92;1,47;-0,05;-0,89;-0,25;0,00
8.673;-0,58;-0,84;0,04;-2,69;0,98;1,25;-0,05;-0,89;-0,25;0,00
8.683;-0,58;-0,84;0,04;-2,69;0,98;1,25;0,11;-1,42;0,13;0,00
8.688;-0,58;-0,84;0,04;-2,35;1,00;0,95;0,11;-1,42;0,13;0,00
8.697;-0,50;-0,83;0,06;-2,35;1,00;0,95;0,11;-1,42;0,13;0,00
8.708;-0,50;-0,83;0,06;-2,32;1,20;0,85;0,11;-1,42;0,13;0,00
8.728;-0,50;-0,83;0,06;-2,25;0,95;0,63;0,11;-1,42;0,13;0,00
8.748;-0,50;-0,83;0,06;-2,22;0,71;0,22;0,11;-1,42;0,13;0,00
8.75;-0,50;-0,83;0,06;-2,22;0,71;0,22;0,32;-0,14;0,24;0,00
8.773;-0,49;-0,89;-0,01;-2,22;0,71;0,22;0,32;-0,14;0,24;0,00
8.775;-0,49;-0,89;-0,01;-1,83;0,25;-0,02;0,32;-0,14;0,24;0,00
8.788;-0,49;-0,89;-0,01;-1,64;-0,59;-0,31;0,32;-0,14;0,24;0,00
8.808;-0,49;-0,89;-0,01;-1,39;-1,39;-0,59;0,32;-0,14;0,24;0,00
8.811;-0,49;-0,89;-0,01;-1,39;-1,39;-0,59;0,31;0,06;0,19;0,00
8.826;-0,42;-1,17;-0,05;-1,39;-1,39;-0,59;0,31;0,06;0,19;0,00
8.828;-0,42;-1,17;-0,05;-1,09;-2,43;-0,55;0,31;0,06;0,19;0,00
8.848;-0,42;-1,17;-0,05;-0,85;-3,45;-0,57;0,31;0,06;0,19;0,00
8.868;-0,42;-1,17;-0,05;-1,22;-3,72;-0,74;0,31;0,06;0,19;0,00
8.877;-0,42;-1,17;-0,05;-1,22;-3,72;-0,74;0,02;0,23;-0,21;0,00
8.888;-0,42;-1,17;-0,05;-1,29;-3,33;-0,89;0,02;0,23;-0,21;0,00
8.891;-0,43;-1,24;-0,09;-1,29;-3,33;-0,89;0,02;0,23;-0,21;0,00
8.908;-0,43;-1,24;-0,09;-1,14;-2,26;-0,54;0,02;0,23;-0,21;0,00
8.928;-0,43;-1,24;-0,09;-1,10;-1,45;0,04;0,02;0,23;-0,21;0,00
8.947;-0,43;-1,24;-0,09;-1,10;-1,45;0,04;0,01;0,61;0,08;0,00
8.949;-0,43;-1,24;-0,09;-1,15;-1,20;0,10;0,01;0,61;0,08;0,00
8.966;-0,40;-1,06;-0,00;-1,15;-1,20;0,10;0,01;0,61;0,08;0,00
8.968;-0,40;-1,06;-0,00;-1,07;-1,29;0,10;0,01;0,61;0,08;0,00
8.988;-0,40;-1,06;-0,00;-1,11;-1,17;0,08;0,01;0,61;0,08;0,00
9.008;-0,40;-1,06;-0,00;-1,02;-0,91;0,13;0,01;0,61;0,08;0,00
9.009;-0,40;-1,06;-0,00;-1,02;-0,91;0,13;0,07;1,01;0,46;0,00
9.022;-0,40;-1,00;-0,01;-1,02;-0,91;0,13;0,07;1,01;0,46;0,00
9.028;-0,40;-1,00;-0,01;-0,88;-0,69;0,27;0,07;1,01;0,46;0,00
9.048;-0,40;-1,00;-0,01;-0,81;-0,29;0,46;0,07;1,01;0,46;0,00
9.068;-0,40;-1,00;-0,01;-0,55;0,21;0,46;0,07;1,01;0,46;0,00
9.071;-0,40;-1,00;-0,01;-0,55;0,21;0,46;0,11;0,48;0,87;0,00
9.086;-0,36;-0,84;0,01;-0,55;0,21;0,46;0,11;0,48;0,87;0,00
9.088;-0,36;-0,84;0,01;-0,11;0,67;0,41;0,11;0,48;0,87;0,00
9.108;-0,36;-0,84;0,01;0,37;0,98;0,32;0,11;0,48;0,87;0,00
9.128;-0,36;-0,84;0,01;0,76;1,01;0,34;0,11;0,48;0,87;0,00
9.137;-0,36;-0,84;0,01;0,76;1,01;0,34;0,23;0,30;1,20;0,00
9.148;-0,36;-0,84;0,01;0,98;0,93;0,27;0,23;0,30;1,20;0,00
9.152;-0,29;-0,80;-0,00;0,98;0,93;0,27;0,23;0,30;1,20;0,00
9.168;-0,29;-0,80;-0,00;1,26;0,84;0,23;0,23;0,30;1,20;0,00
9.188;-0,29;-0,80;-0,00;1,61;0,69;0,11;0,23;0,30;1,20;0,00
9.203;-0,29;-0,80;-0,00;1,61;0,69;0,11;0,21;0,06;1,18;0,00
9.208;-0,29;-0,80;-0,00;1,86;0,55;0,03;0,21;0,06;1,18;0,00
9.216;-0,25;-0,81;-0,02;1,86;0,55;0,03;0,21;0,06;1,18;0,00
9.228;-0,25;-0,81;-0,02;2,08;0,51;-0,11;0,21;0,06;1,18;0,00
9.251;-0,25;-0,81;-0,02;2,20;0,56;-0,08;0,21;0,06;1,18;0,00
9.272;-0,25;-0,81;-0,02;2,38;0,54;-0,06;0,21;0,06;1,18;0,00
9.274;-0,25;-0,81;-0,02;2,38;0,54;-0,06;0,09;-0,02;0,92;0,00
9.282;-0,22;-0,80;-0,03;2,38;0,54;-0,06;0,09;-0,02;0,92;0,00
9.288;-0,22;-0,80;-0,03;2,50;0,44;-0,27;0,09;-0,02;0,92;0,00
9.308;-0,22;-0,80;-0,03;2,47;0,32;-0,28;0,09;-0,02;0,92;0,00
9.328;-0,22;-0,80;-0,03;2,30;0,03;-0,39;0,09;-0,02;0,92;0,00
9.331;-0,22;-0,80;-0,03;2,30;0,03;-0,39;-0,09;-0,05;0,43;0,00
9.346;-0,26;-0,88;-0,05;2,30;0,03;-0,39;-0,09;-0,05;0,43;0,00
9.349;-0,26;-0,88;-0,05;2,27;-0,30;-0,42;-0,09;-0,05;0,43;0,00
9.368;-0,26;-0,88;-0,05;2,19;-0,82;-0,43;-0,09;-0,05;0,43;0,00
9.388;-0,26;-0,88;-0,05;2,18;-1,57;-0,57;-0,09;-0,05;0,43;0,00
9.397;-0,26;-0,88;-0,05;2,18;-1,57;-0,57;-0,36;0,15;-0,14;0,00
9.408;-0,26;-0,88;-0,05;1,83;-1,88;-0,78;-0,36;0,15;-0,14;0,00
9.412;-0,28;-1,06;-0,12;1,83;-1,88;-0,78;-0,36;0,15;-0,14;0,00
9.428;-0,28;-1,06;-0,12;1,58;-2,18;-0,84;-0,36;0,15;-0,14;0,00
9.448;-0,28;-1,06;-0,12;1,30;-2,93;-0,75;-0,36;0,15;-0,14;0,00
9.473;-0,28;-1,06;-0,12;1,30;-2,93;-0,75;-0,68;-0,28;-0,83;0,00
9.475;-0,28;-1,06;-0,12;0,93;-2,98;-0,64;-0,68;-0,28;-0,83;0,00
9.477;-0,33;-1,18;-0,13;0,93;-2,98;-0,64;-0,68;-0,28;-0,83;0,00
9.489;-0,33;-1,18;-0,13;0,65;-2,82;-0,43;-0,68;-0,28;-0,83;0,00
9.508;-0,33;-1,18;-0,13;0,53;-2,16;-0,21;-0,68;-0,28;-0,83;0,00
9.528;-0,33;-1,18;-0,13;0,30;-1,46;0,01;-0,68;-0,28;-0,83;0,00
9.529;-0,33;-1,18;-0,13;0,30;-1,46;0,01;-0,84;-0,69;-1,41;0,00
9.55;-0,33;-1,03;-0,08;0,30;-1,46;0,01;-0,84;-0,69;-1,41;0,00
9.552;-0,33;-1,03;-0,08;-0,11;-1,00;0,20;-0,84;-0,69;-1,41;0,00
9.576;-0,33;-1,03;-0,08;-0,58;-0,33;0,16;-0,84;-0,69;-1,41;0,00
9.591;-0,33;-1,03;-0,08;-0,95;0,02;0,10;-0,84;-0,69;-1,41;0,00
9.592;-0,33;-1,03;-0,08;-0,95;0,02;0,10;-0,54;-0,26;-1,40;0,00
9.607;-0,40;-0,93;-0,13;-0,95;0,02;0,10;-0,54;-0,26;-1,40;0,00
9.609;-0,40;-0,93;-0,13;-1,31;-0,02;-0,02;-0,54;-0,26;-1,40;0,00
9.628;-0,40;-0,93;-0,13;-1,66;-0,26;0,03;-0,54;-0,26;-1,40;0,00
9.648;-0,40;-0,93;-0,13;-1,81;-0,35;0,23;-0,54;-0,26;-1,40;0,00
9.666;-0,40;-0,93;-0,13;-1,81;-0,35;0,23;-0,33;-0,00;-1,00;0,00
9.67;-0,40;-0,93;-0,13;-1,95;0,11;0,68;-0,33;-0,00;-1,00;0,00
9.672;-0,42;-0,91;-0,08;-1,95;0,11;0,68;-0,33;-0,00;-1,00;0,00
9.688;-0,42;-0,91;-0,08;-1,79;0,73;0,69;-0,33;-0,00;-1,00;0,00
9.708;-0,42;-0,91;-0,08;-1,73;1,38;0,48;-0,33;-0,00;-1,00;0,00
9.723;-0,42;-0,91;-0,08;-1,73;1,38;0,48;-0,09;-0,42;-0,58;0,00
9.728;-0,42;-0,91;-0,08;-1,49;1,90;0,77;-0,09;-0,42;-0,58;0,00
9.736;-0,37;-0,73;-0,06;-1,49;1,90;0,77;-0,09;-0,42;-0,58;0,00
9.748;-0,37;-0,73;-0,06;-1,46;2,14;0,88;-0,09;-0,42;-0,58;0,00
9.768;-0,37;-0,73;-0,06;-1,24;2,24;0,68;-0,09;-0,42;-0,58;0,00
9.788;-0,37;-0,73;-0,06;-1,28;2,27;0,68;-0,09;-0,42;-0,58;0,00
9.79;-0,37;-0,73;-0,06;-1,28;2,27;0,68;-0,10;-0,34;-0,48;0,00
9.802;-0,35;-0,72;-0,08;-1,28;2,27;0,68;-0,10;-0,34;-0,48;0,00
9.808;-0,35;-0,72;-0,08;-1,23;2,03;0,67;-0,10;-0,34;-0,48;0,00
9.828;-0,35;-0,72;-0,08;-1,31;1,85;0,66;-0,10;-0,34;-0,48;0,00
9.849;-0,35;-0,72;-0,08;-1,30;1,52;0,69;-0,10;-0,34;-0,48;0,00
9.852;-0,35;-0,72;-0,08;-1,30;1,52;0,69;-0,19;-0,34;-0,57;0,00
9.874;-0,37;-0,82;-0,07;-1,30;1,52;0,69;-0,19;-0,34;-0,57;0,00
9.876;-0,37;-0,82;-0,07;-1,52;1,18;0,73;-0,19;-0,34;-0,57;0,00
9.888;-0,37;-0,82;-0,07;-1,55;0,88;0,67;-0,19;-0,34;-0,57;0,00
9.908;-0,37;-0,82;-0,07;-1,68;0,64;0,65;-0,19;-0,34;-0,57;0,00
9.917;-0,37;-0,82;-0,07;-1,68;0,64;0,65;-0,17;-0,18;-0,57;0,00
9.928;-0,37;-0,82;-0,07;-1,73;0,36;0,65;-0,17;-0,18;-0,57;0,00
9.932;-0,39;-0,91;-0,08;-1,73;0,36;0,65;-0,17;-0,18;-0,57;0,00
9.948;-0,39;-0,91;-0,08;-1,97;-0,13;0,53;-0,17;-0,18;-0,57;0,00
9.968;-0,39;-0,91;-0,08;-2,18;-0,68;0,39;-0,17;-0,18;-0,57;0,00
9.983;-0,39;-0,91;-0,08;-2,18;-0,68;0,39;0,01;-0,22;-0,33;0,00
9.988;-0,39;-0,91;-0,08;-2,41;-1,09;0,38;0,01;-0,22;-0,33;0,00
9.997;-0,44;-1,08;-0,11;-2,41;-1,09;0,38;0,01;-0,22;-0,33;0,00
10.008;-0,44;-1,08;-0,11;-2,05;-1,41;0,20;0,01;-0,22;-0,33;0,00
10.028;-0,44;-1,08;-0,11;-1,68;-1,65;0,24;0,01;-0,22;-0,33;0,00
10.048;-0,44;-1,08;-0,11;-1,27;-2,65;0,22;0,01;-0,22;-0,33;0,00
10.049;-0,44;-1,08;-0,11;-1,27;-2,65;0,22;0,25;-0,26;0,04;0,00
10.066;-0,33;-1,30;-0,12;-1,27;-2,65;0,22;0,25;-0,26;0,04;0,00
10.068;-0,33;-1,30;-0,12;-1,12;-3,65;-0,02;0,25;-0,26;0,04;0,00
10.088;-0,33;-1,30;-0,12;-1,15;-4,24;-0,14;0,25;-0,26;0,04;0,00
10.108;-0,33;-1,30;-0,12;-1,36;-3,55;-0,04;0,25;-0,26;0,04;0,00
10.112;-0,33;-1,30;-0,12;-1,36;-3,55;-0,04;0,18;0,32;-0,11;0,00
10.126;-0,34;-1,16;-0,07;-1,36;-3,55;-0,04;0,18;0,32;-0,11;0,00
10.128;-0,34;-1,16;-0,07;-1,22;-2,09;0,42;0,18;0,32;-0,11;0,00
10.148;-0,34;-1,16;-0,07;-1,24;-1,04;0,63;0,18;0,32;-0,11;0,00
10.168;-0,34;-1,16;-0,07;-1,09;-0,81;0,32;0,18;0,32;-0,11;0,00
10.177;-0,34;-1,16;-0,07;-1,09;-0,81;0,32;0,27;0,91;0,26;0,00
10.19;-0,34;-1,16;-0,07;-1,32;-0,84;0,28;0,27;0,91;0,26;0,00
10.191;-0,35;-1,04;-0,07;-1,32;-0,84;0,28;0,27;0,91;0,26;0,00
10.208;-0,35;-1,04;-0,07;-1,29;-1,07;0,37;0,27;0,91;0,26;0,00
10.228;-0,35;-1,04;-0,07;-1,27;-1,15;0,58;0,27;0,91;0,26;0,00
10.245;-0,35;-1,04;-0,07;-1,27;-1,15;0,58;0,19;0,86;0,70;0,00
10.248;-0,35;-1,04;-0,07;-1,22;-1,12;0,73;0,19;0,86;0,70;0,00
10.265;-0,37;-1,03;-0,02;-1,22;-1,12;0,73;0,19;0,86;0,70;0,00
10.268;-0,37;-1,03;-0,02;-0,94;-0,64;0,82;0,19;0,86;0,70;0,00
10.288;-0,37;-1,03;-0,02;-0,50;0,00;0,85;0,19;0,86;0,70;0,00
10.308;-0,37;-1,03;-0,02;-0,16;0,53;0,76;0,19;0,86;0,70;0,00
10.31;-0,37;-1,03;-0,02;-0,16;0,53;0,76;0,35;0,45;1,10;0,00
10.323;-0,31;-0,85;-0,01;-0,16;0,53;0,76;0,35;0,45;1,10;0,00
10.328;-0,31;-0,85;-0,01;0,12;0,72;0,65;0,35;0,45;1,10;0,00
10.348;-0,31;-0,85;-0,01;0,28;0,74;0,47;0,35;0,45;1,10;0,00
10.368;-0,31;-0,85;-0,01;0,59;0,64;0,32;0,35;0,45;1,10;0,00
10.386;-0,31;-0,85;-0,01;0,59;0,64;0,32;0,47;0,37;1,49;0,00
10.389;-0,28;-0,85;-0,03;0,59;0,64;0,32;0,47;0,37;1,49;0,00
10.39;-0,28;-0,85;-0,03;1,10;0,43;0,28;0,47;0,37;1,49;0,00
10.408;-0,28;-0,85;-0,03;1,59;0,19;0,22;0,47;0,37;1,49;0,00
10.428;-0,28;-0,85;-0,03;2,10;-0,07;0,23;0,47;0,37;1,49;0,00
10.437;-0,28;-0,85;-0,03;2,10;-0,07;0,23;0,46;0,41;1,53;0,00
10.448;-0,28;-0,85;-0,03;2,31;-0,20;0,22;0,46;0,41;1,53;0,00
10.463;-0,20;-0,89;-0,01;2,31;-0,20;0,22;0,46;0,41;1,53;0,00
10.468;-0,20;-0,89;-0,01;2,71;-0,37;0,22;0,46;0,41;1,53;0,00
10.488;-0,20;-0,89;-0,01;2,86;-0,30;0,23;0,46;0,41;1,53;0,00
10.503;-0,20;-0,89;-0,01;2,86;-0,30;0,23;0,41;0,52;1,21;0,00
10.508;-0,20;-0,89;-0,01;3,10;-0,33;0,16;0,41;0,52;1,21;0,00
10.516;-0,18;-0,87;-0,01;3,10;-0,33;0,16;0,41;0,52;1,21;0,00
10.528;-0,18;-0,87;-0,01;3,08;-0,26;0,20;0,41;0,52;1,21;0,00
10.548;-0,18;-0,87;-0,01;3,29;-0,40;0,23;0,41;0,52;1,21;0,00
10.568;-0,18;-0,87;-0,01;3,08;-0,70;-0,08;0,41;0,52;1,21;0,00
10.57;-0,18;-0,87;-0,01;3,08;-0,70;-0,08;0,24;0,30;0,71;0,00
10.582;-0,20;-0,93;-0,06;3,08;-0,70;-0,08;0,24;0,30;0,71;0,00
10.589;-0,20;-0,93;-0,06;3,07;-1,07;-0,48;0,24;0,30;0,71;0,00
10.608;-0,20;-0,93;-0,06;2,91;-1,23;-0,43;0,24;0,30;0,71;0,00
10.628;-0,20;-0,93;-0,06;3,03;-1,74;-0,45;0,24;0,30;0,71;0,00
10.631;-0,20;-0,93;-0,06;3,03;-1,74;-0,45;-0,04;0,05;0,11;0,00
10.647;-0,23;-1,03;-0,10;3,03;-1,74;-0,45;-0,04;0,05;0,11;0,00
10.649;-0,23;-1,03;-0,10;2,64;-1,86;-0,66;-0,04;0,05;0,11;0,00
10.668;-0,23;-1,03;-0,10;2,60;-2,75;-0,84;-0,04;0,05;0,11;0,00
10.688;-0,23;-1,03;-0,10;2,30;-3,15;-0,78;-0,04;0,05;0,11;0,00
10.697;-0,23;-1,03;-0,10;2,30;-3,15;-0,78;-0,37;-0,35;-0,67;0,00
10.708;-0,23;-1,03;-0,10;2,28;-3,38;-0,59;-0,37;-0,35;-0,67;0,00
10.711;-0,24;-1,20;-0,11;2,28;-3,38;-0,59;-0,37;-0,35;-0,67;0,00
10.728;-0,24;-1,20;-0,11;1,70;-3,00;-0,58;-0,37;-0,35;-0,67;0,00
10.748;-0,24;-1,20;-0,11;1,45;-1,78;-0,41;-0,37;-0,35;-0,67;0,00
10.768;-0,24;-1,20;-0,11;1,45;-1,78;-0,41;-0,43;-0,44;-1,29;0,00
10.77;-0,24;-1,20;-0,11;1,12;-0,72;-0,17;-0,43;-0,44;-1,29;0,00
10.777;-0,29;-0,96;-0,09;1,12;-0,72;-0,17;-0,43;-0,44;-1,29;0,00
10.789;-0,29;-0,96;-0,09;0,86;-0,64;-0,27;-0,43;-0,44;-1,29;0,00
10.808;-0,29;-0,96;-0,09;0,28;-0,67;-0,34;-0,43;-0,44;-1,29;0,00
10.828;-0,29;-0,96;-0,09;-0,25;-0,78;-0,20;-0,43;-0,44;-1,29;0,00
10.83;-0,29;-0,96;-0,09;-0,25;-0,78;-0,20;-0,20;0,38;-1,24;0,00
10.846;-0,37;-0,99;-0,10;-0,25;-0,78;-0,20;-0,20;0,38;-1,24;0,00
10.848;-0,37;-0,99;-0,10;-0,54;-0,72;0,02;-0,20;0,38;-1,24;0,00
10.868;-0,37;-0,99;-0,10;-0,44;-0,81;-0,20;-0,20;0,38;-1,24;0,00
10.888;-0,37;-0,99;-0,10;-0,52;-0,69;-0,14;-0,20;0,38;-1,24;0,00
10.892;-0,37;-0,99;-0,10;-0,52;-0,69;-0,14;0,05;0,38;-0,77;0,00
10.907;-0,40;-0,95;-0,11;-0,52;-0,69;-0,14;0,05;0,38;-0,77;0,00
10.908;-0,40;-0,95;-0,11;-1,23;-0,18;0,07;0,05;0,38;-0,77;0,00
10.928;-0,40;-0,95;-0,11;-1,20;0,65;0,36;0,05;0,38;-0,77;0,00
10.948;-0,40;-0,95;-0,11;-0,74;1,38;0,26;0,05;0,38;-0,77;0,00
10.963;-0,40;-0,95;-0,11;-0,74;1,38;0,26;0,22;-0,49;-0,45;0,00
10.968;-0,40;-0,95;-0,11;-0,42;1,80;0,05;0,22;-0,49;-0,45;0,00
10.972;-0,31;-0,74;-0,09;-0,42;1,80;0,05;0,22;-0,49;-0,45;0,00
10.988;-0,31;-0,74;-0,09;-0,28;2,09;0,20;0,22;-0,49;-0,45;0,00
11.008;-0,31;-0,74;-0,09;-0,23;2,24;0,29;0,22;-0,49;-0,45;0,00
11.023;-0,31;-0,74;-0,09;-0,23;2,24;0,29;0,19;-0,41;-0,43;0,00
11.028;-0,31;-0,74;-0,09;-0,33;2,23;0,06;0,19;-0,41;-0,43;0,00
11.036;-0,29;-0,72;-0,09;-0,33;2,23;0,06;0,19;-0,41;-0,43;0,00
11.048;-0,29;-0,72;-0,09;-0,25;2,03;-0,08;0,19;-0,41;-0,43;0,00
11.068;-0,29;-0,72;-0,09;-0,34;1,85;-0,15;0,19;-0,41;-0,43;0,00
11.088;-0,29;-0,72;-0,09;-0,50;1,53;0,13;0,19;-0,41;-0,43;0,00
11.09;-0,29;-0,72;-0,09;-0,50;1,53;0,13;-0,18;-0,30;-0,73;0,00
11.102;-0,33;-0,81;-0,04;-0,50;1,53;0,13;-0,18;-0,30;-0,73;0,00
11.108;-0,33;-0,81;-0,04;-1,01;1,22;0,52;-0,18;-0,30;-0,73;0,00
11.128;-0,33;-0,81;-0,04;-1,60;0,94;0,54;-0,18;-0,30;-0,73;0,00
11.148;-0,33;-0,81;-0,04;-2,06;0,88;0,39;-0,18;-0,30;-0,73;0,00
11.152;-0,33;-0,81;-0,04;-2,06;0,88;0,39;-0,29;-0,29;-0,91;0,00
11.166;-0,43;-0,86;-0,02;-2,06;0,88;0,39;-0,29;-0,29;-0,91;0,00
11.168;-0,43;-0,86;-0,02;-2,10;0,83;0,65;-0,29;-0,29;-0,91;0,00
11.188;-0,43;-0,86;-0,02;-2,35;0,54;0,86;-0,29;-0,29;-0,91;0,00
11.208;-0,43;-0,86;-0,02;-2,50;0,06;0,75;-0,29;-0,29;-0,91;0,00
11.217;-0,43;-0,86;-0,02;-2,50;0,06;0,75;-0,28;-0,11;-0,69;0,00
11.228;-0,43;-0,86;-0,02;-2,64;-0,57;0,59;-0,28;-0,11;-0,69;0,00
11.231;-0,46;-1,03;-0,04;-2,64;-0,57;0,59;-0,28;-0,11;-0,69;0,00
11.248;-0,46;-1,03;-0,04;-2,51;-1,46;0,57;-0,28;-0,11;-0,69;0,00
11.268;-0,46;-1,03;-0,04;-2,71;-2,17;0,66;-0,28;-0,11;-0,69;0,00
11.283;-0,46;-1,03;-0,04;-2,71;-2,17;0,66;-0,19;0,02;-0,45;0,00
11.288;-0,46;-1,03;-0,04;-2,70;-2,51;0,85;-0,19;0,02;-0,45;0,00
11.296;-0,45;-1,23;-0,01;-2,70;-2,51;0,85;-0,19;0,02;-0,45;0,00
11.308;-0,45;-1,23;-0,01;-2,50;-3,21;0,85;-0,19;0,02;-0,45;0,00
11.328;-0,45;-1,23;-0,01;-2,42;-3,91;0,46;-0,19;0,02;-0,45;0,00
11.348;-0,45;-1,23;-0,01;-2,71;-4,11;0,24;-0,19;0,02;-0,45;0,00
11.349;-0,45;-1,23;-0,01;-2,71;-4,11;0,24;-0,01;0,18;-0,18;0,00
11.363;-0,45;-1,34;-0,07;-2,71;-4,11;0,24;-0,01;0,18;-0,18;0,00
11.368;-0,45;-1,34;-0,07;-2,71;-3,47;0,28;-0,01;0,18;-0,18;0,00
11.388;-0,45;-1,34;-0,07;-2,78;-1,86;0,18;-0,01;0,18;-0,18;0,00
11.408;-0,45;-1,34;-0,07;-2,43;-0,74;0,16;-0,01;0,18;-0,18;0,00
11.411;-0,45;-1,34;-0,07;-2,43;-0,74;0,16;0,26;0,64;0,49;0,00
11.427;-0,43;-1,03;-0,10;-2,43;-0,74;0,16;0,26;0,64;0,49;0,00
11.428;-0,43;-1,03;-0,10;-2,28;-0,79;-0,05;0,26;0,64;0,49;0,00
11.448;-0,43;-1,03;-0,10;-1,90;-1,28;-0,32;0,26;0,64;0,49;0,00
11.468;-0,43;-1,03;-0,10;-1,62;-1,58;-0,18;0,26;0,64;0,49;0,00
11.477;-0,43;-1,03;-0,10;-1,62;-1,58;-0,18;0,25;1,02;1,20;0,00
11.488;-0,43;-1,03;-0,10;-1,04;-1,82;0,03;0,25;1,02;1,20;0,00
11.492;-0,36;-1,12;-0,08;-1,04;-1,82;0,03;0,25;1,02;1,20;0,00
11.508;-0,36;-1,12;-0,08;-0,64;-1,82;0,21;0,25;1,02;1,20;0,00
11.528;-0,36;-1,12;-0,08;-0,29;-1,53;0,42;0,25;1,02;1,20;0,00
11.544;-0,36;-1,12;-0,08;-0,29;-1,53;0,42;0,14;0,47;1,47;0,00
11.548;-0,36;-1,12;-0,08;0,04;-0,84;0,74;0,14;0,47;1,47;0,00
11.564;-0,29;-0,96;-0,00;0,04;-0,84;0,74;0,14;0,47;1,47;0,00
11.568;-0,29;-0,96;-0,00;0,55;-0,05;0,83;0,14;0,47;1,47;0,00
11.588;-0,29;-0,96;-0,00;1,09;0,41;0,81;0,14;0,47;1,47;0,00
11.608;-0,29;-0,96;-0,00;1,58;0,63;0,71;0,14;0,47;1,47;0,00
11.609;-0,29;-0,96;-0,00;1,58;0,63;0,71;0,24;0,11;1,71;0,00
11.622;-0,21;-0,81;0,00;1,58;0,63;0,71;0,24;0,11;1,71;0,00
11.628;-0,21;-0,81;0,00;1,88;0,76;0,69;0,24;0,11;1,71;0,00
11.648;-0,21;-0,81;0,00;2,19;0,79;0,64;0,24;0,11;1,71;0,00
11.668;-0,21;-0,81;0,00;2,67;0,68;0,62;0,24;0,11;1,71;0,00
11.672;-0,21;-0,81;0,00;2,67;0,68;0,62;0,25;0,18;1,66;0,00
11.687;-0,15;-0,80;0,00;2,67;0,68;0,62;0,25;0,18;1,66;0,00
11.689;-0,15;-0,80;0,00;3,01;0,56;0,52;0,25;0,18;1,66;0,00
11.708;-0,15;-0,80;0,00;3,23;0,18;0,53;0,25;0,18;1,66;0,00
11.731;-0,15;-0,80;0,00;3,20;0,01;0,41;0,25;0,18;1,66;0,00
11.746;-0,15;-0,80;0,00;3,20;0,01;0,41;0,08;0,03;1,20;0,00
11.749;-0,15;-0,80;0,00;3,44;-0,09;0,43;0,08;0,03;1,20;0,00
11.751;-0,15;-0,84;0,01;3,44;-0,09;0,43;0,08;0,03;1,20;0,00
11.776;-0,15;-0,84;0,01;3,49;-0,01;0,38;0,08;0,03;1,20;0,00
11.788;-0,15;-0,84;0,01;3,73;-0,23;0,33;0,08;0,03;1,20;0,00
11.804;-0,15;-0,84;0,01;3,73;-0,23;0,33;-0,12;-0,01;0,55;0,00
11.808;-0,15;-0,84;0,01;3,50;-0,34;0,18;-0,12;-0,01;0,55;0,00
11.816;-0,16;-0,88;-0,02;3,50;-0,34;0,18;-0,12;-0,01;0,55;0,00
11.828;-0,16;-0,88;-0,02;3,47;-0,79;0,13;-0,12;-0,01;0,55;0,00
11.849;-0,16;-0,88;-0,02;3,25;-1,33;0,12;-0,12;-0,01;0,55;0,00
11.868;-0,16;-0,88;-0,02;3,27;-2,08;-0,02;-0,12;-0,01;0,55;0,00
11.87;-0,16;-0,88;-0,02;3,27;-2,08;-0,02;-0,25;-0,04;-0,11;0,00
11.881;-0,18;-1,09;-0,06;3,27;-2,08;-0,02;-0,25;-0,04;-0,11;0,00
11.888;-0,18;-1,09;-0,06;2,83;-2,58;-0,17;-0,25;-0,04;-0,11;0,00
11.908;-0,18;-1,09;-0,06;2,70;-3,67;-0,36;-0,25;-0,04;-0,11;0,00
11.928;-0,18;-1,09;-0,06;2,41;-4,08;-0,15;-0,25;-0,04;-0,11;0,00
11.931;-0,18;-1,09;-0,06;2,41;-4,08;-0,15;-0,37;-0,17;-0,92;0,00
11.946;-0,19;-1,31;-0,05;2,41;-4,08;-0,15;-0,37;-0,17;-0,92;0,00
11.948;-0,19;-1,31;-0,05;2,36;-4,30;0,13;-0,37;-0,17;-0,92;0,00
11.968;-0,19;-1,31;-0,05;1,89;-3,25;0,04;-0,37;-0,17;-0,92;0,00
11.988;-0,19;-1,31;-0,05;1,20;-2,03;-0,09;-0,37;-0,17;-0,92;0,00
11.997;-0,19;-1,31;-0,05;1,20;-2,03;-0,09;-0,25;-0,16;-1,62;0,00
12.008;-0,19;-1,31;-0,05;0,42;-1,22;-0,43;-0,25;-0,16;-1,62;0,00
12.011;-0,31;-1,02;-0,13;0,42;-1,22;-0,43;-0,25;-0,16;-1,62;0,00
12.028;-0,31;-1,02;-0,13;-0,27;-0,52;-0,49;-0,25;-0,16;-1,62;0,00
12.049;-0,31;-1,02;-0,13;-0,86;-0,21;-0,54;-0,25;-0,16;-1,62;0,00
12.063;-0,31;-1,02;-0,13;-0,86;-0,21;-0,54;-0,10;0,08;-1,49;0,00
12.068;-0,31;-1,02;-0,13;-1,35;0,04;-0,57;-0,10;0,08;-1,49;0,00
12.077;-0,40;-0,92;-0,16;-1,35;0,04;-0,57;-0,10;0,08;-1,49;0,00
12.088;-0,40;-0,92;-0,16;-1,42;0,01;-0,39;-0,10;0,08;-1,49;0,00
12.108;-0,40;-0,92;-0,16;-1,72;0,04;-0,85;-0,10;0,08;-1,49;0,00
12.128;-0,40;-0,92;-0,16;-1,63;0,34;-0,71;-0,10;0,08;-1,49;0,00
12.13;-0,40;-0,92;-0,16;-1,63;0,34;-0,71;0,00;-0,53;-0,96;0,00
12.148;-0,39;-0,86;-0,15;-1,63;0,34;-0,71;0,00;-0,53;-0,96;0,00
12.15;-0,39;-0,86;-0,15;-1,63;1,01;-0,28;0,00;-0,53;-0,96;0,00
12.174;-0,39;-0,86;-0,15;-1,52;1,66;-0,36;0,00;-0,53;-0,96;0,00
12.188;-0,39;-0,86;-0,15;-1,62;2,11;-0,97;0,00;-0,53;-0,96;0,00
12.192;-0,39;-0,86;-0,15;-1,62;2,11;-0,97;-0,05;-1,13;-0,71;0,00
12.207;-0,37;-0,70;-0,22;-1,62;2,11;-0,97;-0,05;-1,13;-0,71;0,00
12.208;-0,37;-0,70;-0,22;-1,57;2,35;-1,00;-0,05;-1,13;-0,71;0,00
12.228;-0,37;-0,70;-0,22;-1,63;2,39;-0,40;-0,05;-1,13;-0,71;0,00
12.248;-0,37;-0,70;-0,22;-1,68;2,28;0,22;-0,05;-1,13;-0,71;0,00
12.266;-0,37;-0,70;-0,22;-1,68;2,28;0,22;-0,44;-1,65;-0,77;0,00
12.268;-0,37;-0,70;-0,22;-1,56;2,03;0,47;-0,44;-1,65;-0,77;0,00
12.274;-0,36;-0,75;-0,06;-1,56;2,03;0,47;-0,44;-1,65;-0,77;0,00
12.288;-0,36;-0,75;-0,06;-1,48;1,63;0,53;-0,44;-1,65;-0,77;0,00
12.308;-0,36;-0,75;-0,06;-1,59;1,32;0,51;-0,44;-1,65;-0,77;0,00
12.323;-0,36;-0,75;-0,06;-1,59;1,32;0,51;-0,47;-0,67;-0,81;0,00
12.328;-0,36;-0,75;-0,06;-1,87;0,96;0,53;-0,47;-0,67;-0,81;0,00
12.343;-0,40;-0,86;-0,06;-1,87;0,96;0,53;-0,47;-0,67;-0,81;0,00
12.348;-0,40;-0,86;-0,06;-2,25;0,76;0,96;-0,47;-0,67;-0,81;0,00
12.368;-0,40;-0,86;-0,06;-2,39;0,73;1,29;-0,47;-0,67;-0,81;0,00
12.388;-0,40;-0,86;-0,06;-2,39;0,53;1,32;-0,47;-0,67;-0,81;0,00
12.389;-0,40;-0,86;-0,06;-2,39;0,53;1,32;-0,31;0,02;-0,67;0,00
12.402;-0,40;-0,93;-0,01;-2,39;0,53;1,32;-0,31;0,02;-0,67;0,00
12.408;-0,40;-0,93;-0,01;-2,25;0,01;1,13;-0,31;0,02;-0,67;0,00
12.428;-0,40;-0,93;-0,01;-2,69;-0,41;1,15;-0,31;0,02;-0,67;0,00
12.448;-0,40;-0,93;-0,01;-2,69;-1,28;1,10;-0,31;0,02;-0,67;0,00
12.462;-0,40;-0,93;-0,01;-2,69;-1,28;1,10;-0,16;0,49;-0,36;0,00
12.467;-0,44;-1,16;-0,02;-2,69;-1,28;1,10;-0,16;0,49;-0,36;0,00
12.47;-0,44;-1,16;-0,02;-2,76;-2,04;1,23;-0,16;0,49;-0,36;0,00
12.488;-0,44;-1,16;-0,02;-2,43;-2,23;1,34;-0,16;0,49;-0,36;0,00
12.508;-0,44;-1,16;-0,02;-1,85;-2,57;1,35;-0,16;0,49;-0,36;0,00
12.517;-0,44;-1,16;-0,02;-1,85;-2,57;1,35;0,19;0,11;0,00;0,00
12.528;-0,44;-1,16;-0,02;-1,51;-3,71;0,97;0,19;0,11;0,00;0,00
12.531;-0,32;-1,36;-0,04;-1,51;-3,71;0,97;0,19;0,11;0,00;0,00
12.548;-0,32;-1,36;-0,04;-1,53;-4,44;0,65;0,19;0,11;0,00;0,00
12.568;-0,32;-1,36;-0,04;-1,81;-4,65;0,44;0,19;0,11;0,00;0,00
12.583;-0,32;-1,36;-0,04;-1,81;-4,65;0,44;0,24;0,46;-0,02;0,00
12.588;-0,32;-1,36;-0,04;-2,02;-3,36;0,37;0,24;0,46;-0,02;0,00
12.596;-0,37;-1,22;-0,06;-2,02;-3,36;0,37;0,24;0,46;-0,02;0,00
12.608;-0,37;-1,22;-0,06;-1,93;-2,12;0,52;0,24;0,46;-0,02;0,00
12.628;-0,37;-1,22;-0,06;-1,80;-1,25;0,47;0,24;0,46;-0,02;0,00
12.648;-0,37;-1,22;-0,06;-1,69;-1,07;0,16;0,24;0,46;-0,02;0,00
12.65;-0,37;-1,22;-0,06;-1,69;-1,07;0,16;0,33;0,83;0,57;0,00
12.662;-0,37;-1,05;-0,08;-1,69;-1,07;0,16;0,33;0,83;0,57;0,00
12.668;-0,37;-1,05;-0,08;-1,80;-0,96;0,17;0,33;0,83;0,57;0,00
12.688;-0,37;-1,05;-0,08;-1,49;-0,89;0,26;0,33;0,83;0,57;0,00
12.708;-0,37;-1,05;-0,08;-1,22;-0,82;0,39;0,33;0,83;0,57;0,00
12.712;-0,37;-1,05;-0,08;-1,22;-0,82;0,39;0,35;0,71;1,14;0,00
12.726;-0,34;-1,00;-0,05;-1,22;-0,82;0,39;0,35;0,71;1,14;0,00
12.728;-0,34;-1,00;-0,05;-0,86;-0,60;0,33;0,35;0,71;1,14;0,00
12.748;-0,34;-1,00;-0,05;-0,53;-0,19;0,44;0,35;0,71;1,14;0,00
12.768;-0,34;-1,00;-0,05;-0,11;0,14;0,42;0,35;0,71;1,14;0,00
12.777;-0,34;-1,00;-0,05;-0,11;0,14;0,42;0,41;0,25;1,56;0,00
12.788;-0,34;-1,00;-0,05;0,29;0,41;0,33;0,41;0,25;1,56;0,00
12.791;-0,28;-0,88;-0,03;0,29;0,41;0,33;0,41;0,25;1,56;0,00
12.808;-0,28;-0,88;-0,03;0,78;0,33;0,22;0,41;0,25;1,56;0,00
12.828;-0,28;-0,88;-0,03;1,10;0,23;0,15;0,41;0,25;1,56;0,00
12.845;-0,28;-0,88;-0,03;1,10;0,23;0,15;0,47;0,26;1,79;0,00
12.848;-0,28;-0,88;-0,03;1,43;0,02;-0,02;0,47;0,26;1,79;0,00
12.876;-0,24;-0,89;-0,04;1,43;0,02;-0,02;0,47;0,26;1,79;0,00
12.878;-0,24;-0,89;-0,04;1,82;-0,07;0,02;0,47;0,26;1,79;0,00
12.888;-0,24;-0,89;-0,04;2,08;-0,07;-0,02;0,47;0,26;1,79;0,00
12.908;-0,24;-0,89;-0,04;2,51;-0,07;-0,19;0,47;0,26;1,79;0,00
12.909;-0,24;-0,89;-0,04;2,51;-0,07;-0,19;0,47;0,12;1,69;0,00
12.922;-0,19;-0,86;-0,04;2,51;-0,07;-0,19;0,47;0,12;1,69;0,00
12.928;-0,19;-0,86;-0,04;2,77;-0,06;-0,24;0,47;0,12;1,69;0,00
12.948;-0,19;-0,86;-0,04;3,05;-0,05;-0,31;0,47;0,12;1,69;0,00
12.969;-0,19;-0,86;-0,04;3,04;-0,05;-0,52;0,47;0,12;1,69;0,00
12.972;-0,19;-0,86;-0,04;3,04;-0,05;-0,52;0,34;0,08;1,38;0,00
12.987;-0,19;-0,86;-0,07;3,04;-0,05;-0,52;0,34;0,08;1,38;0,00
12.988;-0,19;-0,86;-0,07;3,30;-0,32;-0,69;0,34;0,08;1,38;0,00
13.008;-0,19;-0,86;-0,07;3,35;-0,50;-0,64;0,34;0,08;1,38;0,00
13.028;-0,19;-0,86;-0,07;3,15;-1,00;-0,64;0,34;0,08;1,38;0,00
13.044;-0,19;-0,86;-0,07;3,15;-1,00;-0,64;0,01;-0,47;0,66;0,00
13.048;-0,19;-0,86;-0,07;2,73;-1,56;-0,66;0,01;-0,47;0,66;0,00
13.065;-0,25;-1,00;-0,07;2,73;-1,56;-0,66;0,01;-0,47;0,66;0,00
13.073;-0,25;-1,00;-0,07;2,85;-2,24;-1,00;0,01;-0,47;0,66;0,00
13.088;-0,25;-1,00;-0,07;2,82;-2,27;-1,32;0,01;-0,47;0,66;0,00
13.103;-0,25;-1,00;-0,07;2,82;-2,27;-1,32;-0,29;-0,67;-0,03;0,00
13.108;-0,25;-1,00;-0,07;2,98;-2,61;-1,35;-0,29;-0,67;-0,03;0,00
13.117;-0,22;-1,12;-0,12;2,98;-2,61;-1,35;-0,29;-0,67;-0,03;0,00
13.128;-0,22;-1,12;-0,12;2,67;-3,00;-1,04;-0,29;-0,67;-0,03;0,00
13.148;-0,22;-1,12;-0,12;2,35;-3,28;-0,80;-0,29;-0,67;-0,03;0,00
13.168;-0,22;-1,12;-0,12;1,72;-2,96;-0,66;-0,29;-0,67;-0,03;0,00
13.17;-0,22;-1,12;-0,12;1,72;-2,96;-0,66;-0,79;-0,55;-0,95;0,00
13.182;-0,32;-1,06;-0,07;1,72;-2,96;-0,66;-0,79;-0,55;-0,95;0,00
13.188;-0,32;-1,06;-0,07;1,39;-1,79;-0,49;-0,79;-0,55;-0,95;0,00
13.208;-0,32;-1,06;-0,07;1,14;-1,08;-0,39;-0,79;-0,55;-0,95;0,00
13.228;-0,32;-1,06;-0,07;1,07;-0,58;-0,19;-0,79;-0,55;-0,95;0,00
13.231;-0,32;-1,06;-0,07;1,07;-0,58;-0,19;-0,85;-0,46;-1,33;0,00
13.247;-0,33;-0,92;-0,05;1,07;-0,58;-0,19;-0,85;-0,46;-1,33;0,00
13.249;-0,33;-0,92;-0,05;0,53;-0,27;0,06;-0,85;-0,46;-1,33;0,00
13.271;-0,33;-0,92;-0,05;0,10;-0,21;0,13;-0,85;-0,46;-1,33;0,00
13.288;-0,33;-0,92;-0,05;-0,31;-0,12;-0,12;-0,85;-0,46;-1,33;0,00
13.297;-0,33;-0,92;-0,05;-0,31;-0,12;-0,12;-0,56;0,32;-1,29;0,00
13.308;-0,33;-0,92;-0,05;-0,61;-0,20;-0,05;-0,56;0,32;-1,29;0,00
13.311;-0,39;-0,93;-0,10;-0,61;-0,20;-0,05;-0,56;0,32;-1,29;0,00
13.328;-0,39;-0,93;-0,10;-0,93;0,16;0,29;-0,56;0,32;-1,29;0,00
13.348;-0,39;-0,93;-0,10;-1,03;0,70;0,54;-0,56;0,32;-1,29;0,00
13.366;-0,39;-0,93;-0,10;-1,03;0,70;0,54;-0,29;-0,12;-1,06;0,00
13.368;-0,39;-0,93;-0,10;-1,07;1,41;0,58;-0,29;-0,12;-1,06;0,00
13.377;-0,41;-0,75;-0,08;-1,07;1,41;0,58;-0,29;-0,12;-1,06;0,00
13.388;-0,41;-0,75;-0,08;-1,26;1,93;0,41;-0,29;-0,12;-1,06;0,00
13.408;-0,41;-0,75;-0,08;-0,97;2,37;0,71;-0,29;-0,12;-1,06;0,00
13.428;-0,41;-0,75;-0,08;-0,98;2,41;0,87;-0,29;-0,12;-1,06;0,00
13.429;-0,41;-0,75;-0,08;-0,98;2,41;0,87;-0,25;-0,52;-0,78;0,00
13.442;-0,35;-0,69;-0,05;-0,98;2,41;0,87;-0,25;-0,52;-0,78;0,00
13.448;-0,35;-0,69;-0,05;-0,80;2,32;0,72;-0,25;-0,52;-0,78;0,00
13.468;-0,35;-0,69;-0,05;-0,85;2,17;0,83;-0,25;-0,52;-0,78;0,00
13.488;-0,35;-0,69;-0,05;-0,95;1,98;0,82;-0,25;-0,52;-0,78;0,00
13.491;-0,35;-0,69;-0,05;-0,95;1,98;0,82;-0,30;-0,14;-0,78;0,00
13.507;-0,37;-0,76;-0,04;-0,95;1,98;0,82;-0,30;-0,14;-0,78;0,00
13.508;-0,37;-0,76;-0,04;-1,33;1,70;0,91;-0,30;-0,14;-0,78;0,00
13.528;-0,37;-0,76;-0,04;-1,46;1,42;0,87;-0,30;-0,14;-0,78;0,00
13.548;-0,37;-0,76;-0,04;-1,73;1,21;1,01;-0,30;-0,14;-0,78;0,00
13.558;-0,37;-0,76;-0,04;-1,73;1,21;1,01;-0,34;-0,14;-0,76;0,00
13.569;-0,37;-0,76;-0,04;-1,70;0,74;1,03;-0,34;-0,14;-0,76;0,00
13.572;-0,39;-0,88;-0,03;-1,70;0,74;1,03;-0,34;-0,14;-0,76;0,00
13.588;-0,39;-0,88;-0,03;-1,88;0,27;1,09;-0,34;-0,14;-0,76;0,00
13.608;-0,39;-0,88;-0,03;-2,03;-0,54;1,05;-0,34;-0,14;-0,76;0,00
13.623;-0,39;-0,88;-0,03;-2,03;-0,54;1,05;-0,26;-0,32;-0,62;0,00
13.628;-0,39;-0,88;-0,03;-2,19;-0,86;0,94;-0,26;-0,32;-0,62;0,00
13.641;-0,42;-1,05;-0,05;-2,19;-0,86;0,94;-0,26;-0,32;-0,62;0,00
13.648;-0,42;-1,05;-0,05;-2,14;-1,47;0,95;-0,26;-0,32;-0,62;0,00
13.668;-0,42;-1,05;-0,05;-2,18;-2,25;0,92;-0,26;-0,32;-0,62;0,00
13.688;-0,42;-1,05;-0,05;-2,48;-2,80;0,86;-0,26;-0,32;-0,62;0,00
13.689;-0,42;-1,05;-0,05;-2,48;-2,80;0,86;-0,16;-0,59;-0,46;0,00
13.703;-0,43;-1,25;-0,04;-2,48;-2,80;0,86;-0,16;-0,59;-0,46;0,00
13.708;-0,43;-1,25;-0,04;-2,32;-3,10;1,10;-0,16;-0,59;-0,46;0,00
13.728;-0,43;-1,25;-0,04;-2,00;-3,90;1,01;-0,16;-0,59;-0,46;0,00
13.748;-0,43;-1,25;-0,04;-1,91;-4,24;0,83;-0,16;-0,59;-0,46;0,00
13.759;-0,43;-1,25;-0,04;-1,91;-4,24;0,83;0,00;-0,62;-0,30;0,00
13.766;-0,36;-1,38;-0,05;-1,91;-4,24;0,83;0,00;-0,62;-0,30;0,00
13.769;-0,36;-1,38;-0,05;-1,79;-4,20;0,66;0,00;-0,62;-0,30;0,00
13.788;-0,36;-1,38;-0,05;-1,92;-3,12;0,71;0,00;-0,62;-0,30;0,00
13.808;-0,36;-1,38;-0,05;-2,07;-2,26;0,85;0,00;-0,62;-0,30;0,00
13.817;-0,36;-1,38;-0,05;-2,07;-2,26;0,85;0,23;0,46;0,16;0,00
13.828;-0,36;-1,38;-0,05;-2,09;-1,77;0,92;0,23;0,46;0,16;0,00
13.831;-0,39;-1,13;-0,02;-2,09;-1,77;0,92;0,23;0,46;0,16;0,00
13.848;-0,39;-1,13;-0,02;-1,78;-1,55;0,89;0,23;0,46;0,16;0,00
13.868;-0,39;-1,13;-0,02;-1,50;-1,39;0,94;0,23;0,46;0,16;0,00
13.883;-0,39;-1,13;-0,02;-1,50;-1,39;0,94;0,47;0,80;0,81;0,00
13.888;-0,39;-1,13;-0,02;-1,09;-1,28;0,88;0,47;0,80;0,81;0,00
13.896;-0,32;-1,07;0,00;-1,09;-1,28;0,88;0,47;0,80;0,81;0,00
13.908;-0,32;-1,07;0,00;-0,94;-1,03;0,78;0,47;0,80;0,81;0,00
13.928;-0,32;-1,07;0,00;-0,73;-0,43;0,67;0,47;0,80;0,81;0,00
13.948;-0,32;-1,07;0,00;-0,45;0,46;0,61;0,47;0,80;0,81;0,00
13.964;-0,32;-1,07;0,00;-0,45;0,46;0,61;0,63;0,68;1,16;0,00
13.966;-0,29;-0,83;0,00;-0,45;0,46;0,61;0,63;0,68;1,16;0,00
13.972;-0,29;-0,83;0,00;-0,02;1,12;0,53;0,63;0,68;1,16;0,00
13.988;-0,29;-0,83;0,00;0,21;1,40;0,47;0,63;0,68;1,16;0,00
14.008;-0,29;-0,83;0,00;0,56;1,47;0,33;0,63;0,68;1,16;0,00
14.011;-0,29;-0,83;0,00;0,56;1,47;0,33;0,72;0,71;1,49;0,00
14.027;-0,25;-0,76;-0,00;0,56;1,47;0,33;0,72;0,71;1,49;0,00
14.029;-0,25;-0,76;-0,00;0,96;1,46;0,24;0,72;0,71;1,49;0,00
14.048;-0,25;-0,76;-0,00;1,41;1,37;0,11;0,72;0,71;1,49;0,00
14.068;-0,25;-0,76;-0,00;1,72;1,24;0,10;0,72;0,71;1,49;0,00
14.077;-0,25;-0,76;-0,00;1,72;1,24;0,10;0,64;0,76;1,57;0,00
14.088;-0,25;-0,76;-0,00;1,88;0,94;0,05;0,64;0,76;1,57;0,00
14.092;-0,21;-0,79;-0,01;1,88;0,94;0,05;0,64;0,76;1,57;0,00
14.108;-0,21;-0,79;-0,01;2,34;0,63;-0,20;0,64;0,76;1,57;0,00
14.128;-0,21;-0,79;-0,01;2,38;0,45;-0,23;0,64;0,76;1,57;0,00
14.143;-0,21;-0,79;-0,01;2,38;0,45;-0,23;0,39;0,56;1,22;0,00
14.148;-0,21;-0,79;-0,01;2,71;0,10;-0,25;0,39;0,56;1,22;0,00
14.158;-0,19;-0,86;-0,02;2,71;0,10;-0,25;0,39;0,56;1,22;0,00
14.168;-0,19;-0,86;-0,02;2,67;-0,17;-0,24;0,39;0,56;1,22;0,00
14.188;-0,19;-0,86;-0,02;2,85;-0,83;-0,38;0,39;0,56;1,22;0,00
14.208;-0,19;-0,86;-0,02;2,70;-1,17;-0,42;0,39;0,56;1,22;0,00
14.21;-0,19;-0,86;-0,02;2,70;-1,17;-0,42;0,06;0,13;0,77;0,00
14.222;-0,21;-0,99;-0,05;2,70;-1,17;-0,42;0,06;0,13;0,77;0,00
14.228;-0,21;-0,99;-0,05;2,77;-1,51;-0,48;0,06;0,13;0,77;0,00
14.248;-0,21;-0,99;-0,05;2,72;-2,01;-0,66;0,06;0,13;0,77;0,00
14.268;-0,21;-0,99;-0,05;2,84;-2,22;-0,88;0,06;0,13;0,77;0,00
14.272;-0,21;-0,99;-0,05;2,84;-2,22;-0,88;-0,11;-0,21;0,27;0,00
14.287;-0,20;-1,12;-0,11;2,84;-2,22;-0,88;-0,11;-0,21;0,27;0,00
14.288;-0,20;-1,12;-0,11;2,66;-2,57;-1,02;-0,11;-0,21;0,27;0,00
14.308;-0,20;-1,12;-0,11;2,62;-3,49;-1,06;-0,11;-0,21;0,27;0,00
14.328;-0,20;-1,12;-0,11;2,29;-3,56;-1,05;-0,11;-0,21;0,27;0,00
14.342;-0,20;-1,12;-0,11;2,29;-3,56;-1,05;-0,42;-0,42;-0,48;0,00
14.348;-0,20;-1,12;-0,11;2,00;-3,42;-1,07;-0,42;-0,42;-0,48;0,00
14.363;-0,26;-1,19;-0,13;2,00;-3,42;-1,07;-0,42;-0,42;-0,48;0,00
14.37;-0,26;-1,19;-0,13;1,63;-2,31;-0,93;-0,42;-0,42;-0,48;0,00
14.388;-0,26;-1,19;-0,13;1,39;-1,26;-0,70;-0,42;-0,42;-0,48;0,00
14.403;-0,26;-1,19;-0,13;1,39;-1,26;-0,70;-0,64;-0,64;-1,16;0,00
14.408;-0,26;-1,19;-0,13;0,91;-0,61;-0,62;-0,64;-0,64;-1,16;0,00
14.418;-0,31;-0,92;-0,11;0,91;-0,61;-0,62;-0,64;-0,64;-1,16;0,00
14.428;-0,31;-0,92;-0,11;0,45;-0,10;-0,43;-0,64;-0,64;-1,16;0,00
14.448;-0,31;-0,92;-0,11;-0,02;-0,01;-0,58;-0,64;-0,64;-1,16;0,00
14.469;-0,31;-0,92;-0,11;-0,48;-0,01;-0,76;-0,64;-0,64;-1,16;0,00
14.47;-0,31;-0,92;-0,11;-0,48;-0,01;-0,76;-0,54;-0,15;-1,31;0,00
14.482;-0,40;-0,95;-0,17;-0,48;-0,01;-0,76;-0,54;-0,15;-1,31;0,00
14.488;-0,40;-0,95;-0,17;-0,89;-0,41;-0,78;-0,54;-0,15;-1,31;0,00
14.508;-0,40;-0,95;-0,17;-1,17;-0,31;-0,37;-0,54;-0,15;-1,31;0,00
14.528;-0,40;-0,95;-0,17;-1,54;0,35;0,08;-0,54;-0,15;-1,31;0,00
14.531;-0,40;-0,95;-0,17;-1,54;0,35;0,08;-0,39;-0,38;-0,94;0,00
14.547;-0,44;-0,81;-0,07;-1,54;0,35;0,08;-0,39;-0,38;-0,94;0,00
14.548;-0,44;-0,81;-0,07;-1,55;1,20;0,41;-0,39;-0,38;-0,94;0,00
14.568;-0,44;-0,81;-0,07;-1,22;1,88;0,34;-0,39;-0,38;-0,94;0,00
14.588;-0,44;-0,81;-0,07;-0,95;2,37;0,13;-0,39;-0,38;-0,94;0,00
14.597;-0,44;-0,81;-0,07;-0,95;2,37;0,13;-0,15;-0,59;-0,60;0,00
14.608;-0,44;-0,81;-0,07;-0,66;2,58;0,30;-0,15;-0,59;-0,60;0,00
14.611;-0,34;-0,66;-0,08;-0,66;2,58;0,30;-0,15;-0,59;-0,60;0,00
14.628;-0,34;-0,66;-0,08;-0,69;2,60;0,64;-0,15;-0,59;-0,60;0,00
14.648;-0,34;-0,66;-0,08;-0,65;2,38;0,69;-0,15;-0,59;-0,60;0,00
14.668;-0,34;-0,66;-0,08;-0,65;2,38;0,69;-0,19;-0,28;-0,59;0,00
14.669;-0,34;-0,66;-0,08;-0,73;2,08;0,55;-0,19;-0,28;-0,59;0,00
14.678;-0,34;-0,75;-0,06;-0,73;2,08;0,55;-0,19;-0,28;-0,59;0,00
14.688;-0,34;-0,75;-0,06;-0,90;1,57;0,60;-0,19;-0,28;-0,59;0,00
14.708;-0,34;-0,75;-0,06;-1,13;1,12;0,81;-0,19;-0,28;-0,59;0,00
14.728;-0,34;-0,75;-0,06;-1,37;0,82;0,86;-0,19;-0,28;-0,59;0,00
14.729;-0,34;-0,75;-0,06;-1,37;0,82;0,86;-0,28;-0,14;-0,71;0,00
14.742;-0,40;-0,86;-0,04;-1,37;0,82;0,86;-0,28;-0,14;-0,71;0,00
14.748;-0,40;-0,86;-0,04;-1,59;0,77;0,83;-0,28;-0,14;-0,71;0,00
14.768;-0,40;-0,86;-0,04;-1,61;0,56;0,92;-0,28;-0,14;-0,71;0,00
14.788;-0,40;-0,86;-0,04;-1,65;0,17;0,86;-0,28;-0,14;-0,71;0,00
14.791;-0,40;-0,86;-0,04;-1,65;0,17;0,86;-0,18;-0,05;-0,60;0,00
14.807;-0,41;-0,98;-0,06;-1,65;0,17;0,86;-0,18;-0,05;-0,60;0,00
14.808;-0,41;-0,98;-0,06;-1,76;-0,36;0,62;-0,18;-0,05;-0,60;0,00
14.828;-0,41;-0,98;-0,06;-2,03;-0,47;0,68;-0,18;-0,05;-0,60;0,00
14.848;-0,41;-0,98;-0,06;-2,07;-1,15;0,73;-0,18;-0,05;-0,60;0,00
14.857;-0,41;-0,98;-0,06;-2,07;-1,15;0,73;-0,10;0,13;-0,46;0,00
14.868;-0,41;-0,98;-0,06;-2,31;-1,90;0,62;-0,10;0,13;-0,46;0,00
14.871;-0,45;-1,15;-0,06;-2,31;-1,90;0,62;-0,10;0,13;-0,46;0,00
14.888;-0,45;-1,15;-0,06;-2,33;-2,50;0,65;-0,10;0,13;-0,46;0,00
14.908;-0,45;-1,15;-0,06;-2,00;-3,61;0,76;-0,10;0,13;-0,46;0,00
14.923;-0,45;-1,15;-0,06;-2,00;-3,61;0,76;0,13;-0,17;-0,21;0,00
14.928;-0,45;-1,15;-0,06;-1,90;-4,30;0,11;0,13;-0,17;-0,21;0,00
14.94;-0,39;-1,40;-0,13;-1,90;-4,30;0,11;0,13;-0,17;-0,21;0,00
14.948;-0,39;-1,40;-0,13;-1,86;-4,57;-0,31;0,13;-0,17;-0,21;0,00
14.968;-0,39;-1,40;-0,13;-2,26;-3,74;-0,32;0,13;-0,17;-0,21;0,00
14.988;-0,39;-1,40;-0,13;-2,49;-2,28;-0,06;0,13;-0,17;-0,21;0,00
14.99;-0,39;-1,40;-0,13;-2,49;-2,28;-0,06;0,17;0,33;0,06;0,00
15.002;-0,44;-1,10;-0,09;-2,49;-2,28;-0,06;0,17;0,33;0,06;0,00
15.008;-0,44;-1,10;-0,09;-2,21;-1,29;0,16;0,17;0,33;0,06;0,00
15.028;-0,44;-1,10;-0,09;-1,83;-1,12;-0,02;0,17;0,33;0,06;0,00
15.048;-0,44;-1,10;-0,09;-1,43;-1,17;0,08;0,17;0,33;0,06;0,00
15.052;-0,44;-1,10;-0,09;-1,43;-1,17;0,08;0,21;0,53;0,75;0,00
15.067;-0,36;-1,06;-0,07;-1,43;-1,17;0,08;0,21;0,53;0,75;0,00
15.068;-0,36;-1,06;-0,07;-1,19;-1,20;0,31;0,21;0,53;0,75;0,00
15.088;-0,36;-1,06;-0,07;-0,99;-1,46;0,31;0,21;0,53;0,75;0,00
15.108;-0,36;-1,06;-0,07;-0,62;-1,26;0,28;0,21;0,53;0,75;0,00
15.117;-0,36;-1,06;-0,07;-0,62;-1,26;0,28;0,27;0,35;1,02;0,00
15.128;-0,36;-1,06;-0,07;-0,25;-0,69;0,44;0,27;0,35;1,02;0,00
15.131;-0,31;-0,97;-0,04;-0,25;-0,69;0,44;0,27;0,35;1,02;0,00
15.148;-0,31;-0,97;-0,04;0,09;0,16;0,56;0,27;0,35;1,02;0,00
15.168;-0,31;-0,97;-0,04;0,43;0,80;0,57;0,27;0,35;1,02;0,00
15.183;-0,31;-0,97;-0,04;0,43;0,80;0,57;0,42;0,45;1,34;0,00
15.188;-0,31;-0,97;-0,04;0,75;1,08;0,57;0,42;0,45;1,34;0,00
15.196;-0,26;-0,79;-0,01;0,75;1,08;0,57;0,42;0,45;1,34;0,00
15.208;-0,26;-0,79;-0,01;1,10;1,18;0,55;0,42;0,45;1,34;0,00
15.228;-0,26;-0,79;-0,01;1,43;1,09;0,48;0,42;0,45;1,34;0,00
15.248;-0,26;-0,79;-0,01;1,68;1,03;0,36;0,42;0,45;1,34;0,00
15.249;-0,26;-0,79;-0,01;1,68;1,03;0,36;0,48;0,41;1,45;0,00
15.262;-0,22;-0,79;-0,01;1,68;1,03;0,36;0,48;0,41;1,45;0,00
15.268;-0,22;-0,79;-0,01;2,06;0,87;0,35;0,48;0,41;1,45;0,00
15.288;-0,22;-0,79;-0,01;2,32;0,74;0,42;0,48;0,41;1,45;0,00
15.308;-0,22;-0,79;-0,01;2,32;0,44;0,81;0,48;0,41;1,45;0,00
15.312;-0,22;-0,79;-0,01;2,32;0,44;0,81;0,46;0,37;1,25;0,00
15.327;-0,25;-0,84;0,06;2,32;0,44;0,81;0,46;0,37;1,25;0,00
15.328;-0,25;-0,84;0,06;2,10;0,21;0,80;0,46;0,37;1,25;0,00
15.348;-0,25;-0,84;0,06;2,03;-0,04;0,50;0,46;0,37;1,25;0,00
15.368;-0,25;-0,84;0,06;1,93;0,08;0,26;0,46;0,37;1,25;0,00
15.377;-0,25;-0,84;0,06;1,93;0,08;0,26;0,51;0,59;1,05;0,00
15.388;-0,25;-0,84;0,06;1,85;-0,23;0,35;0,51;0,59;1,05;0,00
15.391;-0,32;-0,87;0,03;1,85;-0,23;0,35;0,51;0,59;1,05;0,00
15.408;-0,32;-0,87;0,03;1,79;-0,69;0,19;0,51;0,59;1,05;0,00
15.428;-0,32;-0,87;0,03;1,94;-1,03;0,02;0,51;0,59;1,05;0,00
15.443;-0,32;-0,87;0,03;1,94;-1,03;0,02;0,22;0,18;0,60;0,00
15.448;-0,32;-0,87;0,03;1,99;-1,65;-0,09;0,22;0,18;0,60;0,00
15.457;-0,32;-1,01;-0,02;1,99;-1,65;-0,09;0,22;0,18;0,60;0,00
15.468;-0,32;-1,01;-0,02;2,00;-1,85;-0,30;0,22;0,18;0,60;0,00
15.488;-0,32;-1,01;-0,02;1,82;-2,06;-0,77;0,22;0,18;0,60;0,00
15.508;-0,32;-1,01;-0,02;1,98;-3,05;-1,09;0,22;0,18;0,60;0,00
15.509;-0,32;-1,01;-0,02;1,98;-3,05;-1,09;-0,07;-0,31;0,08;0,00
15.522;-0,31;-1,17;-0,11;1,98;-3,05;-1,09;-0,07;-0,31;0,08;0,00
15.528;-0,31;-1,17;-0,11;1,98;-3,34;-1,00;-0,07;-0,31;0,08;0,00
15.548;-0,31;-1,17;-0,11;1,93;-3,09;-0,63;-0,07;-0,31;0,08;0,00
15.568;-0,31;-1,17;-0,11;1,40;-1,93;-0,65;-0,07;-0,31;0,08;0,00
15.571;-0,31;-1,17;-0,11;1,40;-1,93;-0,65;-0,53;-0,52;-0,94;0,00
15.587;-0,32;-0,96;-0,12;1,40;-1,93;-0,65;-0,53;-0,52;-0,94;0,00
15.589;-0,32;-0,96;-0,12;1,44;-1,04;-0,99;-0,53;-0,52;-0,94;0,00
15.608;-0,32;-0,96;-0,12;0,97;-0,59;-1,10;-0,53;-0,52;-0,94;0,00
15.628;-0,32;-0,96;-0,12;0,58;-0,29;-0,94;-0,53;-0,52;-0,94;0,00
15.639;-0,32;-0,96;-0,12;0,58;-0,29;-0,94;-0,52;-0,51;-1,06;0,00
15.657;-0,32;-0,96;-0,12;0,38;-0,19;-0,81;-0,52;-0,51;-1,06;0,00
15.658;-0,38;-0,90;-0,13;0,38;-0,19;-0,81;-0,52;-0,51;-1,06;0,00
15.668;-0,38;-0,90;-0,13;0,34;-0,34;-0,94;-0,52;-0,51;-1,06;0,00
15.688;-0,38;-0,90;-0,13;0,45;-0,46;-0,95;-0,52;-0,51;-1,06;0,00
15.703;-0,38;-0,90;-0,13;0,45;-0,46;-0,95;-0,45;-0,19;-1,05;0,00
15.708;-0,38;-0,90;-0,13;0,33;-0,19;-0,66;-0,45;-0,19;-1,05;0,00
15.716;-0,34;-0,89;-0,13;0,33;-0,19;-0,66;-0,45;-0,19;-1,05;0,00
15.728;-0,34;-0,89;-0,13;0,13;0,52;-0,15;-0,45;-0,19;-1,05;0,00
15.755;-0,34;-0,89;-0,13;-0,08;1,34;0,18;-0,45;-0,19;-1,05;0,00
15.773;-0,34;-0,89;-0,13;-0,02;2,02;0,17;-0,45;-0,19;-1,05;0,00
15.774;-0,34;-0,89;-0,13;-0,02;2,02;0,17;-0,27;-0,28;-1,05;0,00
15.783;-0,32;-0,68;-0,07;-0,02;2,02;0,17;-0,27;-0,28;-1,05;0,00
15.788;-0,32;-0,68;-0,07;-0,06;2,45;0,30;-0,27;-0,28;-1,05;0,00
15.808;-0,32;-0,68;-0,07;-0,05;2,53;0,38;-0,27;-0,28;-1,05;0,00
15.828;-0,32;-0,68;-0,07;-0,26;2,49;0,60;-0,27;-0,28;-1,05;0,00
15.838;-0,32;-0,68;-0,07;-0,26;2,49;0,60;-0,23;0,27;-0,95;0,00
15.847;-0,33;-0,71;-0,05;-0,26;2,49;0,60;-0,23;0,27;-0,95;0,00
15.859;-0,33;-0,71;-0,05;-0,53;2,19;0,67;-0,23;0,27;-0,95;0,00
15.868;-0,33;-0,71;-0,05;-0,75;1,82;0,77;-0,23;0,27;-0,95;0,00
15.888;-0,33;-0,71;-0,05;-0,90;1,44;0,84;-0,23;0,27;-0,95;0,00
15.897;-0,33;-0,71;-0,05;-0,90;1,44;0,84;-0,24;0,47;-1,01;0,00
15.908;-0,33;-0,71;-0,05;-1,31;1,08;1,15;-0,24;0,47;-1,01;0,00
15.911;-0,37;-0,84;-0,01;-1,31;1,08;1,15;-0,24;0,47;-1,01;0,00
15.928;-0,37;-0,84;-0,01;-1,89;0,61;0,99;-0,24;0,47;-1,01;0,00
15.948;-0,37;-0,84;-0,01;-2,58;0,24;0,85;-0,24;0,47;-1,01;0,00
15.963;-0,37;-0,84;-0,01;-2,58;0,24;0,85;-0,04;0,27;-0,68;0,00
15.968;-0,37;-0,84;-0,01;-2,65;-0,04;0,84;-0,04;0,27;-0,68;0,00
15.976;-0,47;-0,96;-0,05;-2,65;-0,04;0,84;-0,04;0,27;-0,68;0,00
15.988;-0,47;-0,96;-0,05;-2,49;-0,22;0,82;-0,04;0,27;-0,68;0,00
16.008;-0,47;-0,96;-0,05;-2,44;-0,48;0,68;-0,04;0,27;-0,68;0,00
16.028;-0,47;-0,96;-0,05;-2,33;-0,32;0,77;-0,04;0,27;-0,68;0,00
16.029;-0,47;-0,96;-0,05;-2,33;-0,32;0,77;0,08;-0,17;-0,38;0,00
16.042;-0,42;-1,01;-0,04;-2,33;-0,32;0,77;0,08;-0,17;-0,38;0,00
16.059;-0,42;-1,01;-0,04;-2,14;-0,87;0,66;0,08;-0,17;-0,38;0,00
16.068;-0,42;-1,01;-0,04;-2,26;-1,62;0,41;0,08;-0,17;-0,38;0,00
16.088;-0,42;-1,01;-0,04;-2,26;-1,61;0,45;0,08;-0,17;-0,38;0,00
16.092;-0,42;-1,01;-0,04;-2,26;-1,61;0,45;0,21;-0,16;-0,12;0,00
16.106;-0,41;-1,17;-0,05;-2,26;-1,61;0,45;0,21;-0,16;-0,12;0,00
16.108;-0,41;-1,17;-0,05;-2,02;-2,15;0,51;0,21;-0,16;-0,12;0,00
16.128;-0,41;-1,17;-0,05;-1,71;-3,44;0,09;0,21;-0,16;-0,12;0,00
16.148;-0,41;-1,17;-0,05;-1,65;-4,29;-0,31;0,21;-0,16;-0,12;0,00
16.157;-0,41;-1,17;-0,05;-1,65;-4,29;-0,31;0,11;-0,05;-0,14;0,00
16.168;-0,41;-1,17;-0,05;-1,82;-4,31;-0,21;0,11;-0,05;-0,14;0,00
16.172;-0,41;-1,35;-0,09;-1,82;-4,31;-0,21;0,11;-0,05;-0,14;0,00
16.188;-0,41;-1,35;-0,09;-2,07;-2,94;0,08;0,11;-0,05;-0,14;0,00
16.208;-0,41;-1,35;-0,09;-1,90;-2,03;0,20;0,11;-0,05;-0,14;0,00
16.223;-0,41;-1,35;-0,09;-1,90;-2,03;0,20;0,14;0,13;0,25;0,00
16.228;-0,41;-1,35;-0,09;-1,55;-1,68;0,04;0,14;0,13;0,25;0,00
16.237;-0,37;-1,12;-0,07;-1,55;-1,68;0,04;0,14;0,13;0,25;0,00
16.26;-0,37;-1,12;-0,07;-1,36;-1,64;0,05;0,14;0,13;0,25;0,00
16.268;-0,37;-1,12;-0,07;-1,24;-1,42;0,20;0,14;0,13;0,25;0,00
16.288;-0,37;-1,12;-0,07;-0,85;-1,14;0,24;0,14;0,13;0,25;0,00
16.29;-0,37;-1,12;-0,07;-0,85;-1,14;0,24;0,23;0,59;0,76;0,00
16.302;-0,32;-1,03;-0,05;-0,85;-1,14;0,24;0,23;0,59;0,76;0,00
16.308;-0,32;-1,03;-0,05;-0,59;-0,73;0,25;0,23;0,59;0,76;0,00
16.328;-0,32;-1,03;-0,05;-0,34;-0,09;0,20;0,23;0,59;0,76;0,00
16.348;-0,32;-1,03;-0,05;-0,09;0,59;0,27;0,23;0,59;0,76;0,00
16.352;-0,32;-1,03;-0,05;-0,09;0,59;0,27;0,27;0,51;1,03;0,00
16.367;-0,29;-0,81;-0,02;-0,09;0,59;0,27;0,27;0,51;1,03;0,00
16.369;-0,29;-0,81;-0,02;0,23;1,16;0,36;0,27;0,51;1,03;0,00
16.388;-0,29;-0,81;-0,02;0,54;1,39;0,44;0,27;0,51;1,03;0,00
16.408;-0,29;-0,81;-0,02;0,74;1,35;0,48;0,27;0,51;1,03;0,00
16.417;-0,29;-0,81;-0,02;0,74;1,35;0,48;0,24;0,37;1,27;0,00
16.428;-0,29;-0,81;-0,02;1,08;1,20;0,48;0,24;0,37;1,27;0,00
16.432;-0,25;-0,78;-0,00;1,08;1,20;0,48;0,24;0,37;1,27;0,00
16.455;-0,25;-0,78;-0,00;1,39;1,05;0,45;0,24;0,37;1,27;0,00
16.48;-0,25;-0,78;-0,00;1,78;0,94;0,44;0,24;0,37;1,27;0,00
16.483;-0,25;-0,78;-0,00;1,78;0,94;0,44;0,21;0,24;1,23;0,00
16.488;-0,25;-0,78;-0,00;1,98;0,66;0,45;0,21;0,24;1,23;0,00
16.497;-0,20;-0,83;0,01;1,98;0,66;0,45;0,21;0,24;1,23;0,00
16.508;-0,20;-0,83;0,01;2,25;0,38;0,41;0,21;0,24;1,23;0,00
16.528;-0,20;-0,83;0,01;2,26;0,29;0,33;0,21;0,24;1,23;0,00
16.548;-0,20;-0,83;0,01;2,39;0,04;0,30;0,21;0,24;1,23;0,00
16.55;-0,20;-0,83;0,01;2,39;0,04;0,30;0,13;0,08;1,00;0,00
16.562;-0,20;-0,86;-0,00;2,39;0,04;0,30;0,13;0,08;1,00;0,00
16.568;-0,20;-0,86;-0,00;2,47;0,07;0,22;0,13;0,08;1,00;0,00
16.588;-0,20;-0,86;-0,00;2,72;-0,36;0,13;0,13;0,08;1,00;0,00
16.608;-0,20;-0,86;-0,00;2,69;-0,71;-0,07;0,13;0,08;1,00;0,00
16.612;-0,20;-0,86;-0,00;2,69;-0,71;-0,07;0,00;-0,05;0,60;0,00
16.626;-0,20;-0,99;-0,05;2,69;-0,71;-0,07;0,00;-0,05;0,60;0,00
16.628;-0,20;-0,99;-0,05;2,73;-1,31;-0,21;0,00;-0,05;0,60;0,00
16.648;-0,20;-0,99;-0,05;2,59;-2,02;-0,25;0,00;-0,05;0,60;0,00
16.668;-0,20;-0,99;-0,05;2,48;-2,71;-0,36;0,00;-0,05;0,60;0,00
16.677;-0,20;-0,99;-0,05;2,48;-2,71;-0,36;-0,18;-0,11;0,08;0,00
16.688;-0,20;-0,99;-0,05;2,12;-3,23;-0,65;-0,18;-0,11;0,08;0,00
16.691;-0,24;-1,22;-0,11;2,12;-3,23;-0,65;-0,18;-0,11;0,08;0,00
16.708;-0,24;-1,22;-0,11;2,13;-3,92;-0,81;-0,18;-0,11;0,08;0,00
16.728;-0,24;-1,22;-0,11;2,15;-3,65;-0,63;-0,18;-0,11;0,08;0,00
16.743;-0,24;-1,22;-0,11;2,15;-3,65;-0,63;-0,35;-0,43;-0,64;0,00
16.756;-0,24;-1,22;-0,11;2,13;-3,25;-0,50;-0,35;-0,43;-0,64;0,00
16.757;-0,23;-1,18;-0,10;2,13;-3,25;-0,50;-0,35;-0,43;-0,64;0,00
16.771;-0,23;-1,18;-0,10;1,48;-2,42;-0,62;-0,35;-0,43;-0,64;0,00
16.788;-0,23;-1,18;-0,10;1,09;-1,22;-0,46;-0,35;-0,43;-0,64;0,00
16.808;-0,23;-1,18;-0,10;0,57;-0,60;-0,48;-0,35;-0,43;-0,64;0,00
16.809;-0,23;-1,18;-0,10;0,57;-0,60;-0,48;-0,36;-0,43;-1,05;0,00
16.822;-0,32;-0,94;-0,12;0,57;-0,60;-0,48;-0,36;-0,43;-1,05;0,00
16.828;-0,32;-0,94;-0,12;0,37;-0,32;-0,55;-0,36;-0,43;-1,05;0,00
16.848;-0,32;-0,94;-0,12;0,08;-0,21;-0,52;-0,36;-0,43;-1,05;0,00
16.868;-0,32;-0,94;-0,12;-0,17;0,04;-0,51;-0,36;-0,43;-1,05;0,00
16.871;-0,32;-0,94;-0,12;-0,17;0,04;-0,51;-0,23;-0,17;-0,94;0,00
16.887;-0,33;-0,91;-0,12;-0,17;0,04;-0,51;-0,23;-0,17;-0,94;0,00
16.888;-0,33;-0,91;-0,12;-0,23;0,14;-0,33;-0,23;-0,17;-0,94;0,00
16.908;-0,33;-0,91;-0,12;-0,28;0,19;-0,06;-0,23;-0,17;-0,94;0,00
16.928;-0,33;-0,91;-0,12;-0,43;0,65;-0,09;-0,23;-0,17;-0,94;0,00
16.937;-0,33;-0,91;-0,12;-0,43;0,65;-0,09;-0,08;-0,38;-0,86;0,00
16.955;-0,33;-0,91;-0,12;-0,52;1,42;0,06;-0,08;-0,38;-0,86;0,00
16.956;-0,33;-0,77;-0,09;-0,52;1,42;0,06;-0,08;-0,38;-0,86;0,00
16.968;-0,33;-0,77;-0,09;-0,49;2,08;0,19;-0,08;-0,38;-0,86;0,00
16.988;-0,33;-0,77;-0,09;-0,40;2,52;0,14;-0,08;-0,38;-0,86;0,00
17.003;-0,33;-0,77;-0,09;-0,40;2,52;0,14;0,04;-0,33;-0,67;0,00
17.008;-0,33;-0,77;-0,09;-0,28;2,46;0,16;0,04;-0,33;-0,67;0,00
17.017;-0,28;-0,69;-0,07;-0,28;2,46;0,16;0,04;-0,33;-0,67;0,00
17.028;-0,28;-0,69;-0,07;-0,34;2,36;0,20;0,04;-0,33;-0,67;0,00
17.053;-0,28;-0,69;-0,07;-0,50;2,22;0,14;0,04;-0,33;-0,67;0,00
17.072;-0,28;-0,69;-0,07;-0,74;2,03;0,17;0,04;-0,33;-0,67;0,00
17.073;-0,28;-0,69;-0,07;-0,74;2,03;0,17;-0,03;-0,07;-0,75;0,00
17.082;-0,32;-0,75;-0,07;-0,74;2,03;0,17;-0,03;-0,07;-0,75;0,00
17.088;-0,32;-0,75;-0,07;-0,87;1,73;0,23;-0,03;-0,07;-0,75;0,00
17.108;-0,32;-0,75;-0,07;-1,06;1,33;0,22;-0,03;-0,07;-0,75;0,00
17.128;-0,32;-0,75;-0,07;-1,19;0,74;0,13;-0,03;-0,07;-0,75;0,00
17.139;-0,32;-0,75;-0,07;-1,19;0,74;0,13;-0,20;0,03;-0,83;0,00
17.16;-0,36;-0,90;-0,08;-1,19;0,74;0,13;-0,20;0,03;-0,83;0,00
17.162;-0,36;-0,90;-0,08;-1,55;0,45;0,17;-0,20;0,03;-0,83;0,00
17.168;-0,36;-0,90;-0,08;-1,73;0,26;0,28;-0,20;0,03;-0,83;0,00
17.188;-0,36;-0,90;-0,08;-1,97;0,07;0,30;-0,20;0,03;-0,83;0,00
17.198;-0,36;-0,90;-0,08;-1,97;0,07;0,30;-0,24;-0,03;-0,79;0,00
17.208;-0,36;-0,90;-0,08;-2,04;-0,34;0,33;-0,24;-0,03;-0,79;0,00
17.211;-0,40;-0,99;-0,08;-2,04;-0,34;0,33;-0,24;-0,03;-0,79;0,00
17.228;-0,40;-0,99;-0,08;-2,40;-0,46;0,29;-0,24;-0,03;-0,79;0,00
17.248;-0,40;-0,99;-0,08;-2,60;-0,82;0,17;-0,24;-0,03;-0,79;0,00
17.264;-0,40;-0,99;-0,08;-2,60;-0,82;0,17;-0,16;0,09;-0,54;0,00
17.268;-0,40;-0,99;-0,08;-2,62;-1,51;0,13;-0,16;0,09;-0,54;0,00
17.276;-0,43;-1,14;-0,12;-2,62;-1,51;0,13;-0,16;0,09;-0,54;0,00
17.288;-0,43;-1,14;-0,12;-2,62;-1,95;0,08;-0,16;0,09;-0,54;0,00
17.308;-0,43;-1,14;-0,12;-2,53;-3,01;0,36;-0,16;0,09;-0,54;0,00
17.328;-0,43;-1,14;-0,12;-2,33;-4,20;0,24;-0,16;0,09;-0,54;0,00
17.33;-0,43;-1,14;-0,12;-2,33;-4,20;0,24;-0,06;-0,13;-0,19;0,00
17.342;-0,38;-1,45;-0,12;-2,33;-4,20;0,24;-0,06;-0,13;-0,19;0,00
17.355;-0,38;-1,45;-0,12;-2,18;-5,03;-0,00;-0,06;-0,13;-0,19;0,00
17.368;-0,38;-1,45;-0,12;-2,40;-4,86;0,13;-0,06;-0,13;-0,19;0,00
17.388;-0,38;-1,45;-0,12;-2,18;-3,33;0,79;-0,06;-0,13;-0,19;0,00
17.391;-0,38;-1,45;-0,12;-2,18;-3,33;0,79;-0,08;-0,06;0,18;0,00
17.407;-0,35;-1,18;-0,00;-2,18;-3,33;0,79;-0,08;-0,06;0,18;0,00
17.408;-0,35;-1,18;-0,00;-1,82;-2,20;1,12;-0,08;-0,06;0,18;0,00
17.428;-0,35;-1,18;-0,00;-1,39;-1,71;0,90;-0,08;-0,06;0,18;0,00
17.448;-0,35;-1,18;-0,00;-1,10;-1,42;0,83;-0,08;-0,06;0,18;0,00
17.457;-0,35;-1,18;-0,00;-1,10;-1,42;0,83;0,19;0,25;0,81;0,00
17.468;-0,35;-1,18;-0,00;-0,97;-1,12;0,85;0,19;0,25;0,81;0,00
17.472;-0,30;-1,05;-0,01;-0,97;-1,12;0,85;0,19;0,25;0,81;0,00
17.489;-0,30;-1,05;-0,01;-0,66;-0,89;0,79;0,19;0,25;0,81;0,00
17.508;-0,30;-1,05;-0,01;-0,52;-0,66;0,69;0,19;0,25;0,81;0,00
17.523;-0,30;-1,05;-0,01;-0,52;-0,66;0,69;0,25;0,49;1,13;0,00
17.528;-0,30;-1,05;-0,01;-0,37;-0,12;0,71;0,25;0,49;1,13;0,00
17.537;-0,29;-0,91;-0,01;-0,37;-0,12;0,71;0,25;0,49;1,13;0,00
17.553;-0,29;-0,91;-0,01;-0,10;0,48;0,79;0,25;0,49;1,13;0,00
17.568;-0,29;-0,91;-0,01;0,30;0,93;0,70;0,25;0,49;1,13;0,00
17.588;-0,29;-0,91;-0,01;0,55;1,10;0,68;0,25;0,49;1,13;0,00
17.59;-0,29;-0,91;-0,01;0,55;1,10;0,68;0,38;0,27;1,42;0,00
17.602;-0,25;-0,80;-0,00;0,55;1,10;0,68;0,38;0,27;1,42;0,00
17.608;-0,25;-0,80;-0,00;0,90;1,08;0,54;0,38;0,27;1,42;0,00
17.628;-0,25;-0,80;-0,00;1,31;0,99;0,41;0,38;0,27;1,42;0,00
17.648;-0,25;-0,80;-0,00;1,61;0,89;0,45;0,38;0,27;1,42;0,00
17.652;-0,25;-0,80;-0,00;1,61;0,89;0,45;0,39;0,31;1,52;0,00
17.672;-0,21;-0,82;-0,01;1,61;0,89;0,45;0,39;0,31;1,52;0,00
17.674;-0,21;-0,82;-0,01;1,86;0,68;0,35;0,39;0,31;1,52;0,00
17.688;-0,21;-0,82;-0,01;2,05;0,53;0,21;0,39;0,31;1,52;0,00
17.708;-0,21;-0,82;-0,01;2,32;0,36;0,30;0,39;0,31;1,52;0,00
17.717;-0,21;-0,82;-0,01;2,32;0,36;0,30;0,30;0,08;1,33;0,00
17.728;-0,21;-0,82;-0,01;2,46;0,24;0,09;0,30;0,08;1,33;0,00
17.732;-0,19;-0,85;-0,02;2,46;0,24;0,09;0,30;0,08;1,33;0,00
17.757;-0,19;-0,85;-0,02;2,72;0,14;-0,06;0,30;0,08;1,33;0,00
17.778;-0,19;-0,85;-0,02;2,88;0,05;-0,15;0,30;0,08;1,33;0,00
17.783;-0,19;-0,85;-0,02;2,88;0,05;-0,15;0,14;0,10;0,96;0,00
17.788;-0,19;-0,85;-0,02;3,02;-0,33;-0,29;0,14;0,10;0,96;0,00
17.798;-0,17;-0,90;-0,05;3,02;-0,33;-0,29;0,14;0,10;0,96;0,00
17.808;-0,17;-0,90;-0,05;2,92;-0,60;-0,31;0,14;0,10;0,96;0,00
17.828;-0,17;-0,90;-0,05;2,84;-1,10;-0,35;0,14;0,10;0,96;0,00
17.848;-0,17;-0,90;-0,05;2,71;-1,57;-0,39;0,14;0,10;0,96;0,00
17.85;-0,17;-0,90;-0,05;2,71;-1,57;-0,39;-0,10;0,05;0,37;0,00
17.862;-0,20;-1,05;-0,08;2,71;-1,57;-0,39;-0,10;0,05;0,37;0,00
17.868;-0,20;-1,05;-0,08;2,76;-2,05;-0,54;-0,10;0,05;0,37;0,00
17.888;-0,20;-1,05;-0,08;2,48;-2,10;-0,72;-0,10;0,05;0,37;0,00
17.908;-0,20;-1,05;-0,08;2,51;-2,88;-0,73;-0,10;0,05;0,37;0,00
17.912;-0,20;-1,05;-0,08;2,51;-2,88;-0,73;-0,27;-0,18;-0,17;0,00
17.927;-0,21;-1,23;-0,11;2,51;-2,88;-0,73;-0,27;-0,18;-0,17;0,00
17.936;-0,21;-1,23;-0,11;2,36;-3,55;-0,68;-0,27;-0,18;-0,17;0,00
17.957;-0,21;-1,23;-0,11;2,31;-3,89;-0,62;-0,27;-0,18;-0,17;0,00
17.968;-0,21;-1,23;-0,11;1,47;-3,43;-0,55;-0,27;-0,18;-0,17;0,00
17.977;-0,21;-1,23;-0,11;1,47;-3,43;-0,55;-0,57;-0,35;-1,10;0,00
17.988;-0,21;-1,23;-0,11;1,31;-2,35;-0,17;-0,57;-0,35;-1,10;0,00
17.991;-0,27;-1,10;-0,08;1,31;-2,35;-0,17;-0,57;-0,35;-1,10;0,00
18.008;-0,27;-1,10;-0,08;0,82;-1,40;-0,09;-0,57;-0,35;-1,10;0,00
18.028;-0,27;-1,10;-0,08;0,58;-0,41;-0,22;-0,57;-0,35;-1,10;0,00
18.043;-0,27;-1,10;-0,08;0,58;-0,41;-0,22;-0,36;-0,25;-1,33;0,00
18.055;-0,27;-1,10;-0,08;0,17;0,14;-0,29;-0,36;-0,25;-1,33;0,00
18.057;-0,33;-0,88;-0,13;0,17;0,14;-0,29;-0,36;-0,25;-1,33;0,00
18.068;-0,33;-0,88;-0,13;-0,31;0,37;-0,32;-0,36;-0,25;-1,33;0,00
18.088;-0,33;-0,88;-0,13;-0,74;0,13;-0,39;-0,36;-0,25;-1,33;0,00
18.108;-0,33;-0,88;-0,13;-1,21;-0,15;-0,53;-0,36;-0,25;-1,33;0,00
18.109;-0,33;-0,88;-0,13;-1,21;-0,15;-0,53;-0,16;0,26;-0,96;0,00
18.122;-0,42;-0,93;-0,16;-1,21;-0,15;-0,53;-0,16;0,26;-0,96;0,00
18.128;-0,42;-0,93;-0,16;-1,41;0,12;-0,27;-0,16;0,26;-0,96;0,00
18.152;-0,42;-0,93;-0,16;-1,33;0,80;0,32;-0,16;0,26;-0,96;0,00
18.17;-0,42;-0,93;-0,16;-1,01;1,35;0,42;-0,16;0,26;-0,96;0,00
18.171;-0,42;-0,93;-0,16;-1,01;1,35;0,42;-0,13;-0,85;-0,67;0,00
18.187;-0,32;-0,75;-0,09;-1,01;1,35;0,42;-0,13;-0,85;-0,67;0,00
18.188;-0,32;-0,75;-0,09;-0,58;1,77;0,27;-0,13;-0,85;-0,67;0,00
18.208;-0,32;-0,75;-0,09;-0,30;2,05;0,22;-0,13;-0,85;-0,67;0,00
18.236;-0,32;-0,75;-0,09;-0,40;2,14;0,36;-0,13;-0,85;-0,67;0,00
18.238;-0,32;-0,75;-0,09;-0,40;2,14;0,36;-0,07;-0,17;-0,57;0,00
18.271;-0,32;-0,75;-0,09;-0,47;2,06;0,43;-0,07;-0,17;-0,57;0,00
18.273;-0,30;-0,73;-0,07;-0,47;2,06;0,43;-0,07;-0,17;-0,57;0,00
18.273;-0,30;-0,73;-0,07;-0,72;1,92;0,36;-0,07;-0,17;-0,57;0,00
18.288;-0,30;-0,73;-0,07;-0,86;1,69;0,31;-0,07;-0,17;-0,57;0,00
18.303;-0,30;-0,73;-0,07;-0,86;1,69;0,31;-0,19;0,10;-0,70;0,00
18.308;-0,30;-0,73;-0,07;-1,04;1,40;0,38;-0,19;0,10;-0,70;0,00
18.317;-0,34;-0,81;-0,08;-1,04;1,40;0,38;-0,19;0,10;-0,70;0,00
18.33;-0,34;-0,81;-0,08;-1,25;1,19;0,47;-0,19;0,10;-0,70;0,00
18.348;-0,34;-0,81;-0,08;-1,48;1,05;0,66;-0,19;0,10;-0,70;0,00
18.37;-0,34;-0,81;-0,08;-1,55;0,93;0,74;-0,19;0,10;-0,70;0,00
18.372;-0,34;-0,81;-0,08;-1,55;0,93;0,74;-0,24;0,08;-0,72;0,00
18.389;-0,38;-0,87;-0,06;-1,55;0,93;0,74;-0,24;0,08;-0,72;0,00
18.391;-0,38;-0,87;-0,06;-1,77;0,74;0,69;-0,24;0,08;-0,72;0,00
18.408;-0,38;-0,87;-0,06;-1,74;0,34;0,62;-0,24;0,08;-0,72;0,00
18.434;-0,38;-0,87;-0,06;-1,98;0,03;0,64;-0,24;0,08;-0,72;0,00
18.436;-0,38;-0,87;-0,06;-1,98;0,03;0,64;-0,22;0,21;-0,65;0,00
18.452;-0,40;-0,99;-0,07;-1,98;0,03;0,64;-0,22;0,21;-0,65;0,00
18.454;-0,40;-0,99;-0,07;-2,11;-0,42;0,70;-0,22;0,21;-0,65;0,00
18.468;-0,40;-0,99;-0,07;-2,41;-1,39;0,79;-0,22;0,21;-0,65;0,00
18.488;-0,40;-0,99;-0,07;-2,31;-1,75;0,94;-0,22;0,21;-0,65;0,00
18.497;-0,40;-0,99;-0,07;-2,31;-1,75;0,94;-0,10;-0,15;-0,38;0,00
18.508;-0,40;-0,99;-0,07;-1,98;-2,16;1,08;-0,10;-0,15;-0,38;0,00
18.512;-0,36;-1,20;-0,03;-1,98;-2,16;1,08;-0,10;-0,15;-0,38;0,00
18.529;-0,36;-1,20;-0,03;-1,65;-3,47;0,84;-0,10;-0,15;-0,38;0,00
18.548;-0,36;-1,20;-0,03;-1,81;-4,48;0,54;-0,10;-0,15;-0,38;0,00
18.569;-0,36;-1,20;-0,03;-1,81;-4,48;0,54;-0,00;0,10;-0,24;0,00
18.572;-0,36;-1,20;-0,03;-2,08;-5,11;0,64;-0,00;0,10;-0,24;0,00
18.576;-0,39;-1,42;-0,05;-2,08;-5,11;0,64;-0,00;0,10;-0,24;0,00
18.588;-0,39;-1,42;-0,05;-2,31;-3,83;0,83;-0,00;0,10;-0,24;0,00
18.608;-0,39;-1,42;-0,05;-2,05;-2,31;0,90;-0,00;0,10;-0,24;0,00
18.635;-0,39;-1,42;-0,05;-1,54;-1,45;0,78;-0,00;0,10;-0,24;0,00
18.637;-0,39;-1,42;-0,05;-1,54;-1,45;0,78;0,33;0,14;0,34;0,00
18.655;-0,32;-1,09;-0,05;-1,54;-1,45;0,78;0,33;0,14;0,34;0,00
18.656;-0,32;-1,09;-0,05;-1,39;-1,37;0,49;0,33;0,14;0,34;0,00
18.668;-0,32;-1,09;-0,05;-1,48;-1,50;0,45;0,33;0,14;0,34;0,00
18.688;-0,32;-1,09;-0,05;-1,33;-1,59;0,49;0,33;0,14;0,34;0,00
18.691;-0,32;-1,09;-0,05;-1,33;-1,59;0,49;0,45;0,61;0,96;0,00
18.706;-0,32;-1,10;-0,04;-1,33;-1,59;0,49;0,45;0,61;0,96;0,00
18.708;-0,32;-1,10;-0,04;-0,96;-1,54;0,42;0,45;0,61;0,96;0,00
18.735;-0,32;-1,10;-0,04;-0,57;-1,06;0,32;0,45;0,61;0,96;0,00
18.757;-0,32;-1,10;-0,04;-0,20;-0,18;0,36;0,45;0,61;0,96;0,00
18.761;-0,32;-1,10;-0,04;-0,20;-0,18;0,36;0,52;0,28;1,21;0,00
18.768;-0,32;-1,10;-0,04;0,20;0,60;0,32;0,52;0,28;1,21;0,00
18.771;-0,26;-0,85;-0,03;0,20;0,60;0,32;0,52;0,28;1,21;0,00
18.788;-0,26;-0,85;-0,03;0,48;1,10;0,20;0,52;0,28;1,21;0,00
18.808;-0,26;-0,85;-0,03;0,75;1,22;0,05;0,52;0,28;1,21;0,00
18.823;-0,26;-0,85;-0,03;0,75;1,22;0,05;0,56;0,42;1,46;0,00
18.828;-0,26;-0,85;-0,03;0,98;1,22;-0,01;0,56;0,42;1,46;0,00
18.836;-0,25;-0,78;-0,03;0,98;1,22;-0,01;0,56;0,42;1,46;0,00
18.848;-0,25;-0,78;-0,03;1,27;1,22;-0,04;0,56;0,42;1,46;0,00
18.868;-0,25;-0,78;-0,03;1,70;1,11;-0,13;0,56;0,42;1,46;0,00
18.888;-0,25;-0,78;-0,03;2,00;0,92;-0,17;0,56;0,42;1,46;0,00
18.89;-0,25;-0,78;-0,03;2,00;0,92;-0,17;0,49;0,40;1,44;0,00
18.902;-0,20;-0,80;-0,04;2,00;0,92;-0,17;0,49;0,40;1,44;0,00
18.908;-0,20;-0,80;-0,04;2,27;0,72;-0,24;0,49;0,40;1,44;0,00
18.934;-0,20;-0,80;-0,04;2,31;0,42;-0,26;0,49;0,40;1,44;0,00
18.956;-0,20;-0,80;-0,04;2,66;0,29;-0,28;0,49;0,40;1,44;0,00
18.957;-0,20;-0,80;-0,04;2,66;0,29;-0,28;0,32;0,31;1,17;0,00
18.967;-0,19;-0,83;-0,04;2,66;0,29;-0,28;0,32;0,31;1,17;0,00
18.969;-0,19;-0,83;-0,04;2,68;0,23;-0,36;0,32;0,31;1,17;0,00
18.988;-0,19;-0,83;-0,04;2,90;0,01;-0,53;0,32;0,31;1,17;0,00
19.008;-0,19;-0,83;-0,04;2,83;-0,20;-0,46;0,32;0,31;1,17;0,00
19.017;-0,19;-0,83;-0,04;2,83;-0,20;-0,46;0,09;0,22;0,74;0,00
19.028;-0,19;-0,83;-0,04;2,87;-0,55;-0,50;0,09;0,22;0,74;0,00
19.031;-0,20;-0,90;-0,06;2,87;-0,55;-0,50;0,09;0,22;0,74;0,00
19.048;-0,20;-0,90;-0,06;2,76;-0,91;-0,49;0,09;0,22;0,74;0,00
19.068;-0,20;-0,90;-0,06;2,88;-1,81;-0,59;0,09;0,22;0,74;0,00
19.09;-0,20;-0,90;-0,06;2,88;-1,81;-0,59;-0,19;0,04;0,12;0,00
19.092;-0,20;-0,90;-0,06;2,63;-2,32;-0,74;-0,19;0,04;0,12;0,00
19.098;-0,21;-1,13;-0,10;2,63;-2,32;-0,74;-0,19;0,04;0,12;0,00
19.108;-0,21;-1,13;-0,10;2,60;-3,38;-0,86;-0,19;0,04;0,12;0,00
19.133;-0,21;-1,13;-0,10;2,28;-4,32;-0,75;-0,19;0,04;0,12;0,00
19.154;-0,21;-1,13;-0,10;2,35;-4,41;-0,51;-0,19;0,04;0,12;0,00
19.156;-0,21;-1,13;-0,10;2,35;-4,41;-0,51;-0,52;-0,35;-0,76;0,00
19.162;-0,23;-1,29;-0,09;2,35;-4,41;-0,51;-0,52;-0,35;-0,76;0,00
19.168;-0,23;-1,29;-0,09;1,84;-3,88;-0,47;-0,52;-0,35;-0,76;0,00
19.188;-0,23;-1,29;-0,09;1,43;-2,59;-0,43;-0,52;-0,35;-0,76;0,00
19.208;-0,23;-1,29;-0,09;0,84;-1,40;-0,39;-0,52;-0,35;-0,76;0,00
19.212;-0,23;-1,29;-0,09;0,84;-1,40;-0,39;-0,54;-0,36;-1,41;0,00
19.227;-0,32;-0,98;-0,12;0,84;-1,40;-0,39;-0,54;-0,36;-1,41;0,00
19.229;-0,32;-0,98;-0,12;0,32;-0,72;-0,43;-0,54;-0,36;-1,41;0,00
19.248;-0,32;-0,98;-0,12;-0,15;-0,28;-0,40;-0,54;-0,36;-1,41;0,00
19.27;-0,32;-0,98;-0,12;-0,68;-0,01;-0,41;-0,54;-0,36;-1,41;0,00
19.297;-0,32;-0,98;-0,12;-0,68;-0,01;-0,41;-0,36;0,06;-1,24;0,00
19.299;-0,32;-0,98;-0,12;-0,98;0,07;-0,37;-0,36;0,06;-1,24;0,00
19.3;-0,39;-0,92;-0,15;-0,98;0,07;-0,37;-0,36;0,06;-1,24;0,00
19.308;-0,39;-0,92;-0,15;-0,97;-0,07;-0,27;-0,36;0,06;-1,24;0,00
19.328;-0,39;-0,92;-0,15;-1,11;0,06;-0,08;-0,36;0,06;-1,24;0,00
19.343;-0,39;-0,92;-0,15;-1,11;0,06;-0,08;-0,19;-0,30;-0,89;0,00
19.352;-0,39;-0,92;-0,15;-1,11;0,62;0,27;-0,19;-0,30;-0,89;0,00
19.357;-0,36;-0,83;-0,09;-1,11;0,62;0,27;-0,19;-0,30;-0,89;0,00
19.374;-0,36;-0,83;-0,09;-1,05;1,39;0,32;-0,19;-0,30;-0,89;0,00
19.388;-0,36;-0,83;-0,09;-0,89;1,98;0,35;-0,19;-0,30;-0,89;0,00
19.408;-0,36;-0,83;-0,09;-0,71;2,30;0,48;-0,19;-0,30;-0,89;0,00
19.409;-0,36;-0,83;-0,09;-0,71;2,30;0,48;-0,08;-0,39;-0,62;0,00
19.422;-0,30;-0,70;-0,07;-0,71;2,30;0,48;-0,08;-0,39;-0,62;0,00
19.428;-0,30;-0,70;-0,07;-0,56;2,42;0,51;-0,08;-0,39;-0,62;0,00
19.451;-0,30;-0,70;-0,07;-0,31;2,47;0,55;-0,08;-0,39;-0,62;0,00
19.47;-0,30;-0,70;-0,07;-0,54;2,39;0,69;-0,08;-0,39;-0,62;0,00
19.472;-0,30;-0,70;-0,07;-0,54;2,39;0,69;-0,15;0,21;-0,65;0,00
19.486;-0,29;-0,72;-0,04;-0,54;2,39;0,69;-0,15;0,21;-0,65;0,00
19.488;-0,29;-0,72;-0,04;-0,72;2,13;0,82;-0,15;0,21;-0,65;0,00
19.508;-0,29;-0,72;-0,04;-1,21;1,74;0,90;-0,15;0,21;-0,65;0,00
19.533;-0,29;-0,72;-0,04;-1,50;1,31;0,79;-0,15;0,21;-0,65;0,00
19.537;-0,29;-0,72;-0,04;-1,50;1,31;0,79;-0,17;-0,17;-0,77;0,00
19.554;-0,29;-0,72;-0,04;-1,73;0,87;0,60;-0,17;-0,17;-0,77;0,00
19.556;-0,37;-0,87;-0,08;-1,73;0,87;0,60;-0,17;-0,17;-0,77;0,00
19.568;-0,37;-0,87;-0,08;-1,83;0,62;0,54;-0,17;-0,17;-0,77;0,00
19.588;-0,37;-0,87;-0,08;-2,09;0,37;0,54;-0,17;-0,17;-0,77;0,00
19.603;-0,37;-0,87;-0,08;-2,09;0,37;0,54;-0,20;-0,13;-0,70;0,00
19.608;-0,37;-0,87;-0,08;-2,27;0,03;0,56;-0,20;-0,13;-0,70;0,00
19.616;-0,43;-0,97;-0,09;-2,27;0,03;0,56;-0,20;-0,13;-0,70;0,00
19.628;-0,43;-0,97;-0,09;-2,63;-0,25;0,45;-0,20;-0,13;-0,70;0,00
19.651;-0,43;-0,97;-0,09;-2,75;-0,50;0,46;-0,20;-0,13;-0,70;0,00
19.67;-0,43;-0,97;-0,09;-2,73;-1,06;0,54;-0,20;-0,13;-0,70;0,00
19.671;-0,43;-0,97;-0,09;-2,73;-1,06;0,54;-0,11;-0,24;-0,51;0,00
19.682;-0,43;-1,10;-0,09;-2,73;-1,06;0,54;-0,11;-0,24;-0,51;0,00
19.688;-0,43;-1,10;-0,09;-2,53;-1,56;0,52;-0,11;-0,24;-0,51;0,00
19.708;-0,43;-1,10;-0,09;-2,45;-2,49;0,55;-0,11;-0,24;-0,51;0,00
19.734;-0,43;-1,10;-0,09;-2,27;-4,21;0,36;-0,11;-0,24;-0,51;0,00
19.736;-0,43;-1,10;-0,09;-2,27;-4,21;0,36;0,05;-0,19;-0,19;0,00
19.756;-0,41;-1,47;-0,13;-2,27;-4,21;0,36;0,05;-0,19;-0,19;0,00
19.757;-0,41;-1,47;-0,13;-2,46;-5,03;0,01;0,05;-0,19;-0,19;0,00
19.769;-0,41;-1,47;-0,13;-2,46;-4,96;0,02;0,05;-0,19;-0,19;0,00
19.788;-0,41;-1,47;-0,13;-2,48;-3,58;0,48;0,05;-0,19;-0,19;0,00
19.797;-0,41;-1,47;-0,13;-2,48;-3,58;0,48;0,14;0,16;0,22;0,00
19.808;-0,41;-1,47;-0,13;-2,15;-2,52;0,66;0,14;0,16;0,22;0,00
19.811;-0,39;-1,19;-0,05;-2,15;-2,52;0,66;0,14;0,16;0,22;0,00
19.828;-0,39;-1,19;-0,05;-1,72;-2,11;0,52;0,14;0,16;0,22;0,00
19.851;-0,39;-1,19;-0,05;-1,38;-1,91;0,46;0,14;0,16;0,22;0,00
19.87;-0,39;-1,19;-0,05;-1,38;-1,91;0,46;0,34;0,49;0,98;0,00
19.871;-0,39;-1,19;-0,05;-1,12;-1,64;0,61;0,34;0,49;0,98;0,00
19.878;-0,32;-1,10;-0,04;-1,12;-1,64;0,61;0,34;0,49;0,98;0,00
19.888;-0,32;-1,10;-0,04;-0,67;-1,46;0,59;0,34;0,49;0,98;0,00
19.908;-0,32;-1,10;-0,04;-0,37;-1,11;0,52;0,34;0,49;0,98;0,00
19.928;-0,32;-1,10;-0,04;-0,14;-0,58;0,57;0,34;0,49;0,98;0,00
19.929;-0,32;-1,10;-0,04;-0,14;-0,58;0,57;0,36;0,48;1,27;0,00
19.941;-0,29;-0,92;-0,01;-0,14;-0,58;0,57;0,36;0,48;1,27;0,00
19.95;-0,29;-0,92;-0,01;0,06;0,24;0,68;0,36;0,48;1,27;0,00
19.973;-0,29;-0,92;-0,01;0,49;0,85;0,61;0,36;0,48;1,27;0,00
19.988;-0,29;-0,92;-0,01;0,86;1,17;0,47;0,36;0,48;1,27;0,00
19.991;-0,29;-0,92;-0,01;0,86;1,17;0,47;0,44;0,24;1,53;0,00
20.007;-0,24;-0,77;-0,01;0,86;1,17;0,47;0,44;0,24;1,53;0,00
20.008;-0,24;-0,77;-0,01;1,19;1,28;0,37;0,44;0,24;1,53;0,00
20.028;-0,24;-0,77;-0,01;1,54;1,25;0,29;0,44;0,24;1,53;0,00
20.05;-0,24;-0,77;-0,01;1,77;1,11;0,28;0,44;0,24;1,53;0,00
20.057;-0,24;-0,77;-0,01;1,77;1,11;0,28;0,45;0,37;1,62;0,00
20.072;-0,24;-0,77;-0,01;2,12;0,88;0,15;0,45;0,37;1,62;0,00
20.074;-0,21;-0,79;-0,02;2,12;0,88;0,15;0,45;0,37;1,62;0,00
20.088;-0,21;-0,79;-0,02;2,35;0,66;-0,06;0,45;0,37;1,62;0,00
20.108;-0,21;-0,79;-0,02;2,71;0,38;0,04;0,45;0,37;1,62;0,00
20.123;-0,21;-0,79;-0,02;2,71;0,38;0,04;0,30;0,30;1,41;0,00
20.128;-0,21;-0,79;-0,02;2,88;0,22;0,18;0,30;0,30;1,41;0,00
20.136;-0,17;-0,84;0,00;2,88;0,22;0,18;0,30;0,30;1,41;0,00
20.15;-0,17;-0,84;0,00;3,15;-0,06;0,10;0,30;0,30;1,41;0,00
20.169;-0,17;-0,84;0,00;3,18;-0,17;-0,08;0,30;0,30;1,41;0,00
20.188;-0,17;-0,84;0,00;3,29;-0,42;-0,06;0,30;0,30;1,41;0,00
20.19;-0,17;-0,84;0,00;3,29;-0,42;-0,06;0,17;0,13;0,94;0,00
20.202;-0,19;-0,91;-0,01;3,29;-0,42;-0,06;0,17;0,13;0,94;0,00
20.208;-0,19;-0,91;-0,01;3,03;-0,81;0,01;0,17;0,13;0,94;0,00
20.228;-0,19;-0,91;-0,01;2,92;-1,34;-0,12;0,17;0,13;0,94;0,00
20.249;-0,19;-0,91;-0,01;2,67;-1,88;-0,17;0,17;0,13;0,94;0,00
20.251;-0,19;-0,91;-0,01;2,67;-1,88;-0,17;0,04;0,09;0,39;0,00
20.269;-0,23;-1,05;-0,04;2,67;-1,88;-0,17;0,04;0,09;0,39;0,00
20.271;-0,23;-1,05;-0,04;2,82;-2,21;-0,30;0,04;0,09;0,39;0,00
20.288;-0,23;-1,05;-0,04;2,48;-2,46;-0,44;0,04;0,09;0,39;0,00
20.308;-0,23;-1,05;-0,04;2,35;-3,61;-0,57;0,04;0,09;0,39;0,00
20.317;-0,23;-1,05;-0,04;2,35;-3,61;-0,57;-0,16;-0,12;-0,26;0,00
20.328;-0,23;-1,05;-0,04;2,12;-3,86;-0,69;-0,16;-0,12;-0,26;0,00
20.331;-0,27;-1,24;-0,09;2,12;-3,86;-0,69;-0,16;-0,12;-0,26;0,00
20.35;-0,27;-1,24;-0,09;1,99;-3,71;-0,53;-0,16;-0,12;-0,26;0,00
20.368;-0,27;-1,24;-0,09;1,56;-2,75;-0,48;-0,16;-0,12;-0,26;0,00
20.383;-0,27;-1,24;-0,09;1,56;-2,75;-0,48;-0,37;-0,55;-1,11;0,00
20.388;-0,27;-1,24;-0,09;1,32;-1,78;-0,61;-0,37;-0,55;-1,11;0,00
20.397;-0,31;-1,02;-0,11;1,32;-1,78;-0,61;-0,37;-0,55;-1,11;0,00
20.408;-0,31;-1,02;-0,11;0,90;-1,07;-0,78;-0,37;-0,55;-1,11;0,00
20.428;-0,31;-1,02;-0,11;0,52;-0,53;-0,73;-0,37;-0,55;-1,11;0,00
20.45;-0,31;-1,02;-0,11;0,06;-0,19;-0,76;-0,37;-0,55;-1,11;0,00
20.456;-0,31;-1,02;-0,11;0,06;-0,19;-0,76;-0,33;-0,17;-1,30;0,00
20.472;-0,37;-0,91;-0,16;0,06;-0,19;-0,76;-0,33;-0,17;-1,30;0,00
20.474;-0,37;-0,91;-0,16;-0,18;-0,01;-0,95;-0,33;-0,17;-1,30;0,00
20.488;-0,37;-0,91;-0,16;-0,33;0,26;-0,82;-0,33;-0,17;-1,30;0,00
20.508;-0,37;-0,91;-0,16;-0,23;0,27;-0,50;-0,33;-0,17;-1,30;0,00
20.512;-0,37;-0,91;-0,16;-0,23;0,27;-0,50;-0,17;0,06;-1,06;0,00
20.527;-0,34;-0,87;-0,11;-0,23;0,27;-0,50;-0,17;0,06;-1,06;0,00
20.529;-0,34;-0,87;-0,11;-0,30;0,51;-0,17;-0,17;0,06;-1,06;0,00
20.548;-0,34;-0,87;-0,11;-0,26;0,97;0,23;-0,17;0,06;-1,06;0,00
20.568;-0,34;-0,87;-0,11;-0,26;1,42;0,32;-0,17;0,06;-1,06;0,00
20.587;-0,34;-0,87;-0,11;-0,26;1,42;0,32;-0,04;0,09;-1,08;0,00
20.589;-0,34;-0,87;-0,11;-0,61;1,75;0,02;-0,04;0,09;-1,08;0,00
20.592;-0,33;-0,76;-0,12;-0,61;1,75;0,02;-0,04;0,09;-1,08;0,00
20.608;-0,33;-0,76;-0,12;-0,94;1,93;-0,08;-0,04;0,09;-1,08;0,00
20.628;-0,33;-0,76;-0,12;-1,64;2,00;0,34;-0,04;0,09;-1,08;0,00
20.65;-0,33;-0,76;-0,12;-1,64;2,00;0,34;-0,17;-0,68;-1,00;0,00
20.651;-0,33;-0,76;-0,12;-1,51;1,92;0,30;-0,17;-0,68;-1,00;0,00
20.656;-0,37;-0,75;-0,09;-1,51;1,92;0,30;-0,17;-0,68;-1,00;0,00
20.673;-0,37;-0,75;-0,09;-1,34;1,81;-0,07;-0,17;-0,68;-1,00;0,00
20.688;-0,37;-0,75;-0,09;-1,34;1,73;-0,12;-0,17;-0,68;-1,00;0,00
20.708;-0,37;-0,75;-0,09;-1,75;1,47;0,40;-0,17;-0,68;-1,00;0,00
20.71;-0,37;-0,75;-0,09;-1,75;1,47;0,40;-0,35;-0,59;-0,83;0,00
20.722;-0,40;-0,82;-0,05;-1,75;1,47;0,40;-0,35;-0,59;-0,83;0,00
20.728;-0,40;-0,82;-0,05;-1,98;1,08;0,72;-0,35;-0,59;-0,83;0,00
20.75;-0,40;-0,82;-0,05;-2,20;0,83;0,84;-0,35;-0,59;-0,83;0,00
20.769;-0,40;-0,82;-0,05;-2,11;0,70;0,70;-0,35;-0,59;-0,83;0,00
20.772;-0,40;-0,82;-0,05;-2,11;0,70;0,70;-0,24;-0,54;-0,77;0,00
20.787;-0,42;-0,89;-0,05;-2,11;0,70;0,70;-0,24;-0,54;-0,77;0,00
20.788;-0,42;-0,89;-0,05;-2,26;0,53;0,75;-0,24;-0,54;-0,77;0,00
20.808;-0,42;-0,89;-0,05;-2,23;0,12;0,75;-0,24;-0,54;-0,77;0,00
20.828;-0,42;-0,89;-0,05;-2,59;-0,35;0,84;-0,24;-0,54;-0,77;0,00
20.837;-0,42;-0,89;-0,05;-2,59;-0,35;0,84;-0,12;0,26;-0,44;0,00
20.848;-0,42;-0,89;-0,05;-2,59;-1,11;0,84;-0,12;0,26;-0,44;0,00
20.851;-0,45;-1,08;-0,04;-2,59;-1,11;0,84;-0,12;0,26;-0,44;0,00
20.868;-0,45;-1,08;-0,04;-2,63;-1,68;0,69;-0,12;0,26;-0,44;0,00
20.888;-0,45;-1,08;-0,04;-2,47;-2,15;0,72;-0,12;0,26;-0,44;0,00
20.903;-0,45;-1,08;-0,04;-2,47;-2,15;0,72;-0,04;0,01;-0,17;0,00
20.908;-0,45;-1,08;-0,04;-2,31;-3,40;0,75;-0,04;0,01;-0,17;0,00
20.917;-0,41;-1,35;-0,06;-2,31;-3,40;0,75;-0,04;0,01;-0,17;0,00
20.928;-0,41;-1,35;-0,06;-2,15;-4,24;0,52;-0,04;0,01;-0,17;0,00
20.954;-0,41;-1,35;-0,06;-2,19;-4,95;0,48;-0,04;0,01;-0,17;0,00
20.979;-0,41;-1,35;-0,06;-2,20;-4,19;0,71;-0,04;0,01;-0,17;0,00
20.981;-0,41;-1,35;-0,06;-2,20;-4,19;0,71;-0,04;0,04;-0,03;0,00
20.982;-0,39;-1,29;-0,02;-2,20;-4,19;0,71;-0,04;0,04;-0,03;0,00
20.988;-0,39;-1,29;-0,02;-2,07;-3,07;0,98;-0,04;0,04;-0,03;0,00
21.008;-0,39;-1,29;-0,02;-1,58;-2,27;0,86;-0,04;0,04;-0,03;0,00
21.028;-0,39;-1,29;-0,02;-1,29;-2,04;0,57;-0,04;0,04;-0,03;0,00
21.032;-0,39;-1,29;-0,02;-1,29;-2,04;0,57;0,30;0,52;0,62;0,00
21.048;-0,32;-1,13;-0,05;-1,29;-2,04;0,57;0,30;0,52;0,62;0,00
21.05;-0,32;-1,13;-0,05;-1,11;-1,76;0,48;0,30;0,52;0,62;0,00
21.068;-0,32;-1,13;-0,05;-1,10;-1,41;0,51;0,30;0,52;0,62;0,00
21.088;-0,32;-1,13;-0,05;-0,82;-1,13;0,60;0,30;0,52;0,62;0,00
21.097;-0,32;-1,13;-0,05;-0,82;-1,13;0,60;0,33;0,71;1,09;0,00
21.108;-0,32;-1,13;-0,05;-0,52;-0,73;0,63;0,33;0,71;1,09;0,00
21.112;-0,30;-1,00;-0,02;-0,52;-0,73;0,63;0,33;0,71;1,09;0,00
21.128;-0,30;-1,00;-0,02;0,02;-0,15;0,61;0,33;0,71;1,09;0,00
21.148;-0,30;-1,00;-0,02;0,35;0,47;0,54;0,33;0,71;1,09;0,00
21.165;-0,30;-1,00;-0,02;0,35;0,47;0,54;0,30;0,53;1,33;0,00
21.168;-0,30;-1,00;-0,02;0,53;0,86;0,67;0,30;0,53;1,33;0,00
21.184;-0,26;-0,82;0,00;0,53;0,86;0,67;0,30;0,53;1,33;0,00
21.188;-0,26;-0,82;0,00;0,67;0,94;0,61;0,30;0,53;1,33;0,00
21.208;-0,26;-0,82;0,00;1,01;1,08;0,44;0,30;0,53;1,33;0,00
21.228;-0,26;-0,82;0,00;1,47;1,05;0,44;0,30;0,53;1,33;0,00
21.229;-0,26;-0,82;0,00;1,47;1,05;0,44;0,33;0,22;1,47;0,00
21.248;-0,22;-0,78;-0,00;1,47;1,05;0,44;0,33;0,22;1,47;0,00
21.25;-0,22;-0,78;-0,00;1,79;1,07;0,44;0,33;0,22;1,47;0,00
21.268;-0,22;-0,78;-0,00;2,20;0,96;0,36;0,33;0,22;1,47;0,00
21.288;-0,22;-0,78;-0,00;2,55;0,79;0,32;0,33;0,22;1,47;0,00
21.293;-0,22;-0,78;-0,00;2,55;0,79;0,32;0,34;0,37;1,44;0,00
21.306;-0,16;-0,82;-0,02;2,55;0,79;0,32;0,34;0,37;1,44;0,00
21.309;-0,16;-0,82;-0,02;2,83;0,44;0,11;0,34;0,37;1,44;0,00
21.328;-0,16;-0,82;-0,02;2,88;0,34;0,12;0,34;0,37;1,44;0,00
21.348;-0,16;-0,82;-0,02;3,11;0,13;0,16;0,34;0,37;1,44;0,00
21.357;-0,16;-0,82;-0,02;3,11;0,13;0,16;0,20;0,18;1,07;0,00
21.368;-0,16;-0,82;-0,02;3,17;0,11;-0,00;0,20;0,18;1,07;0,00
21.372;-0,15;-0,85;-0,03;3,17;0,11;-0,00;0,20;0,18;1,07;0,00
21.391;-0,15;-0,85;-0,03;3,32;-0,26;-0,15;0,20;0,18;1,07;0,00
21.41;-0,15;-0,85;-0,03;3,23;-0,67;-0,16;0,20;0,18;1,07;0,00
21.423;-0,15;-0,85;-0,03;3,23;-0,67;-0,16;-0,12;0,18;0,40;0,00
21.428;-0,15;-0,85;-0,03;2,93;-1,27;-0,02;-0,12;0,18;0,40;0,00
21.437;-0,20;-0,99;-0,04;2,93;-1,27;-0,02;-0,12;0,18;0,40;0,00
21.448;-0,20;-0,99;-0,04;2,82;-1,64;-0,13;-0,12;0,18;0,40;0,00
21.468;-0,20;-0,99;-0,04;2,82;-1,94;-0,29;-0,12;0,18;0,40;0,00
21.488;-0,20;-0,99;-0,04;2,45;-2,13;-0,48;-0,12;0,18;0,40;0,00
21.489;-0,20;-0,99;-0,04;2,45;-2,13;-0,48;-0,19;-0,06;-0,18;0,00
21.502;-0,22;-1,12;-0,11;2,45;-2,13;-0,48;-0,19;-0,06;-0,18;0,00
21.509;-0,22;-1,12;-0,11;2,35;-2,63;-0,67;-0,19;-0,06;-0,18;0,00
21.528;-0,22;-1,12;-0,11;2,07;-2,90;-0,61;-0,19;-0,06;-0,18;0,00
21.549;-0,22;-1,12;-0,11;2,04;-3,03;-0,39;-0,19;-0,06;-0,18;0,00
21.552;-0,22;-1,12;-0,11;2,04;-3,03;-0,39;-0,38;-0,26;-0,81;0,00
21.567;-0,25;-1,18;-0,10;2,04;-3,03;-0,39;-0,38;-0,26;-0,81;0,00
21.568;-0,25;-1,18;-0,10;1,47;-2,86;-0,39;-0,38;-0,26;-0,81;0,00
21.588;-0,25;-1,18;-0,10;1,23;-2,08;-0,31;-0,38;-0,26;-0,81;0,00
21.608;-0,25;-1,18;-0,10;0,89;-1,64;-0,14;-0,38;-0,26;-0,81;0,00
21.617;-0,25;-1,18;-0,10;0,89;-1,64;-0,14;-0,34;-0,41;-1,22;0,00
21.628;-0,25;-1,18;-0,10;0,52;-1,23;-0,24;-0,34;-0,41;-1,22;0,00
21.632;-0,30;-1,03;-0,11;0,52;-1,23;-0,24;-0,34;-0,41;-1,22;0,00
21.648;-0,30;-1,03;-0,11;-0,01;-0,87;-0,42;-0,34;-0,41;-1,22;0,00
21.668;-0,30;-1,03;-0,11;-0,40;-0,51;-0,57;-0,34;-0,41;-1,22;0,00
21.686;-0,30;-1,03;-0,11;-0,40;-0,51;-0,57;-0,11;0,03;-1,15;0,00
21.688;-0,30;-1,03;-0,11;-0,76;-0,59;-0,60;-0,11;0,03;-1,15;0,00
21.697;-0,38;-1,01;-0,16;-0,76;-0,59;-0,60;-0,11;0,03;-1,15;0,00
21.709;-0,38;-1,01;-0,16;-1,06;-0,69;-0,55;-0,11;0,03;-1,15;0,00
21.728;-0,38;-1,01;-0,16;-1,14;-0,21;-0,40;-0,11;0,03;-1,15;0,00
21.749;-0,38;-1,01;-0,16;-1,30;0,70;-0,16;-0,11;0,03;-1,15;0,00
21.75;-0,38;-1,01;-0,16;-1,30;0,70;-0,16;-0,03;-0,23;-0,98;0,00
21.765;-0,36;-0,79;-0,11;-1,30;0,70;-0,16;-0,03;-0,23;-0,98;0,00
21.768;-0,36;-0,79;-0,11;-1,12;1,65;0,03;-0,03;-0,23;-0,98;0,00
21.788;-0,36;-0,79;-0,11;-1,11;2,44;0,30;-0,03;-0,23;-0,98;0,00
21.808;-0,36;-0,79;-0,11;-1,13;2,82;0,21;-0,03;-0,23;-0,98;0,00
21.811;-0,36;-0,79;-0,11;-1,13;2,82;0,21;0,11;-0,00;-0,82;0,00
21.826;-0,35;-0,65;-0,09;-1,13;2,82;0,21;0,11;-0,00;-0,82;0,00
21.828;-0,35;-0,65;-0,09;-1,43;2,88;0,17;0,11;-0,00;-0,82;0,00
21.848;-0,35;-0,65;-0,09;-1,62;2,69;0,37;0,11;-0,00;-0,82;0,00
21.868;-0,35;-0,65;-0,09;-1,82;2,44;0,45;0,11;-0,00;-0,82;0,00
21.883;-0,35;-0,65;-0,09;-1,82;2,44;0,45;-0,06;-0,10;-0,80;0,00
21.888;-0,35;-0,65;-0,09;-1,86;2,03;0,48;-0,06;-0,10;-0,80;0,00
21.892;-0,39;-0,75;-0,06;-1,86;2,03;0,48;-0,06;-0,10;-0,80;0,00
21.908;-0,39;-0,75;-0,06;-1,84;1,57;0,52;-0,06;-0,10;-0,80;0,00
21.928;-0,39;-0,75;-0,06;-1,75;1,09;0,61;-0,06;-0,10;-0,80;0,00
21.943;-0,39;-0,75;-0,06;-1,75;1,09;0,61;-0,16;0,01;-0,78;0,00
21.948;-0,39;-0,75;-0,06;-2,12;0,82;0,74;-0,16;0,01;-0,78;0,00
21.956;-0,41;-0,88;-0,04;-2,12;0,82;0,74;-0,16;0,01;-0,78;0,00
21.968;-0,41;-0,88;-0,04;-2,29;0,70;0,62;-0,16;0,01;-0,78;0,00
21.988;-0,41;-0,88;-0,04;-2,55;0,60;0,51;-0,16;0,01;-0,78;0,00
22.008;-0,41;-0,88;-0,04;-2,59;0,26;0,39;-0,16;0,01;-0,78;0,00
22.009;-0,41;-0,88;-0,04;-2,59;0,26;0,39;-0,10;0,15;-0,57;0,00
22.022;-0,45;-0,95;-0,08;-2,59;0,26;0,39;-0,10;0,15;-0,57;0,00
22.028;-0,45;-0,95;-0,08;-2,76;-0,03;0,33;-0,10;0,15;-0,57;0,00
22.048;-0,45;-0,95;-0,08;-2,75;-0,38;0,25;-0,10;0,15;-0,57;0,00
22.068;-0,45;-0,95;-0,08;-2,61;-0,94;0,30;-0,10;0,15;-0,57;0,00
22.072;-0,45;-0,95;-0,08;-2,61;-0,94;0,30;-0,03;0,01;-0,23;0,00
22.087;-0,41;-1,11;-0,08;-2,61;-0,94;0,30;-0,03;0,01;-0,23;0,00
22.089;-0,41;-1,11;-0,08;-2,30;-1,55;0,34;-0,03;0,01;-0,23;0,00
22.108;-0,41;-1,11;-0,08;-2,29;-2,10;0,37;-0,03;0,01;-0,23;0,00
22.128;-0,41;-1,11;-0,08;-1,98;-3,67;0,25;-0,03;0,01;-0,23;0,00
22.137;-0,41;-1,11;-0,08;-1,98;-3,67;0,25;0,03;-0,25;-0,04;0,00
22.148;-0,41;-1,11;-0,08;-1,95;-4,86;-0,00;0,03;-0,25;-0,04;0,00
22.151;-0,37;-1,46;-0,12;-1,95;-4,86;-0,00;0,03;-0,25;-0,04;0,00
22.168;-0,37;-1,46;-0,12;-2,20;-5,15;-0,26;0,03;-0,25;-0,04;0,00
22.188;-0,37;-1,46;-0,12;-2,16;-4,30;0,03;0,03;-0,25;-0,04;0,00
22.203;-0,37;-1,46;-0,12;-2,16;-4,30;0,03;0,05;-0,20;0,24;0,00
22.208;-0,37;-1,46;-0,12;-1,67;-3,21;0,54;0,05;-0,20;0,24;0,00
22.217;-0,33;-1,24;-0,04;-1,67;-3,21;0,54;0,05;-0,20;0,24;0,00
22.228;-0,33;-1,24;-0,04;-1,12;-2,48;0,39;0,05;-0,20;0,24;0,00
22.248;-0,33;-1,24;-0,04;-0,66;-1,99;0,07;0,05;-0,20;0,24;0,00
22.27;-0,33;-1,24;-0,04;-0,33;-1,68;0,12;0,05;-0,20;0,24;0,00
22.271;-0,33;-1,24;-0,04;-0,33;-1,68;0,12;0,42;0,39;1,01;0,00
22.286;-0,25;-1,11;-0,06;-0,33;-1,68;0,12;0,42;0,39;1,01;0,00
22.288;-0,25;-1,11;-0,06;-0,16;-1,58;0,09;0,42;0,39;1,01;0,00
22.308;-0,25;-1,11;-0,06;0,19;-1,40;-0,12;0,42;0,39;1,01;0,00
22.328;-0,25;-1,11;-0,06;0,48;-1,15;-0,12;0,42;0,39;1,01;0,00
22.332;-0,25;-1,11;-0,06;0,48;-1,15;-0,12;0,38;0,33;1,23;0,00
22.347;-0,21;-0,99;-0,06;0,48;-1,15;-0,12;0,38;0,33;1,23;0,00
22.348;-0,21;-0,99;-0,06;0,73;-0,60;-0,03;0,38;0,33;1,23;0,00
22.368;-0,21;-0,99;-0,06;0,97;0,08;0,10;0,38;0,33;1,23;0,00
22.388;-0,21;-0,99;-0,06;1,16;0,72;0,04;0,38;0,33;1,23;0,00
22.397;-0,21;-0,99;-0,06;1,16;0,72;0,04;0,31;0,20;1,31;0,00
22.408;-0,21;-0,99;-0,06;1,34;1,26;0,14;0,31;0,20;1,31;0,00
22.411;-0,20;-0,77;-0,02;1,34;1,26;0,14;0,31;0,20;1,31;0,00
22.428;-0,20;-0,77;-0,02;1,69;1,52;0,17;0,31;0,20;1,31;0,00
22.448;-0,20;-0,77;-0,02;1,86;1,42;0,02;0,31;0,20;1,31;0,00
22.464;-0,20;-0,77;-0,02;1,86;1,42;0,02;0,27;0,40;1,30;0,00
22.468;-0,20;-0,77;-0,02;2,15;1,40;-0,02;0,27;0,40;1,30;0,00
22.489;-0,17;-0,75;-0,02;2,15;1,40;-0,02;0,27;0,40;1,30;0,00
22.491;-0,17;-0,75;-0,02;2,28;1,40;0,05;0,27;0,40;1,30;0,00
22.508;-0,17;-0,75;-0,02;2,46;1,19;0,04;0,27;0,40;1,30;0,00
22.528;-0,17;-0,75;-0,02;2,45;0,80;-0,00;0,27;0,40;1,30;0,00
22.529;-0,17;-0,75;-0,02;2,45;0,80;-0,00;0,15;0,48;1,14;0,00
22.542;-0,17;-0,82;-0,02;2,45;0,80;-0,00;0,15;0,48;1,14;0,00
22.548;-0,17;-0,82;-0,02;2,70;0,47;0,11;0,15;0,48;1,14;0,00
22.568;-0,17;-0,82;-0,02;2,78;0,38;0,16;0,15;0,48;1,14;0,00
22.588;-0,17;-0,82;-0,02;2,90;0,08;0,11;0,15;0,48;1,14;0,00
22.592;-0,17;-0,82;-0,02;2,90;0,08;0,11;-0,00;0,04;0,73;0,00
22.607;-0,15;-0,89;-0,03;2,90;0,08;0,11;-0,00;0,04;0,73;0,00
22.609;-0,15;-0,89;-0,03;2,90;-0,28;-0,03;-0,00;0,04;0,73;0,00
22.628;-0,15;-0,89;-0,03;3,05;-1,00;-0,04;-0,00;0,04;0,73;0,00
22.648;-0,15;-0,89;-0,03;2,87;-1,44;-0,13;-0,00;0,04;0,73;0,00
22.664;-0,15;-0,89;-0,03;2,87;-1,44;-0,13;-0,15;-0,10;0,26;0,00
22.668;-0,15;-0,89;-0,03;2,86;-1,77;-0,09;-0,15;-0,10;0,26;0,00
22.671;-0,17;-1,06;-0,04;2,86;-1,77;-0,09;-0,15;-0,10;0,26;0,00
22.688;-0,17;-1,06;-0,04;2,46;-2,40;-0,06;-0,15;-0,10;0,26;0,00
22.708;-0,17;-1,06;-0,04;2,46;-2,52;-0,09;-0,15;-0,10;0,26;0,00
22.724;-0,17;-1,06;-0,04;2,46;-2,52;-0,09;-0,29;-0,61;-0,36;0,00
22.728;-0,17;-1,06;-0,04;2,34;-2,54;-0,22;-0,29;-0,61;-0,36;0,00
22.736;-0,16;-1,16;-0,06;2,34;-2,54;-0,22;-0,29;-0,61;-0,36;0,00
22.748;-0,16;-1,16;-0,06;2,53;-2,87;-0,28;-0,29;-0,61;-0,36;0,00
22.768;-0,16;-1,16;-0,06;1,96;-3,05;-0,35;-0,29;-0,61;-0,36;0,00
22.789;-0,16;-1,16;-0,06;1,43;-3,10;-0,33;-0,29;-0,61;-0,36;0,00
22.791;-0,16;-1,16;-0,06;1,43;-3,10;-0,33;-0,56;-0,15;-1,23;0,00
22.802;-0,25;-1,17;-0,09;1,43;-3,10;-0,33;-0,56;-0,15;-1,23;0,00
22.808;-0,25;-1,17;-0,09;0,61;-2,36;-0,21;-0,56;-0,15;-1,23;0,00
22.828;-0,25;-1,17;-0,09;-0,11;-1,57;-0,19;-0,56;-0,15;-1,23;0,00
22.848;-0,25;-1,17;-0,09;-0,69;-0,88;-0,32;-0,56;-0,15;-1,23;0,00
22.851;-0,25;-1,17;-0,09;-0,69;-0,88;-0,32;-0,53;-0,36;-1,71;0,00
22.866;-0,37;-0,95;-0,12;-0,69;-0,88;-0,32;-0,53;-0,36;-1,71;0,00
22.868;-0,37;-0,95;-0,12;-1,08;-0,11;-0,23;-0,53;-0,36;-1,71;0,00
22.888;-0,37;-0,95;-0,12;-1,31;0,34;-0,30;-0,53;-0,36;-1,71;0,00
22.908;-0,37;-0,95;-0,12;-1,94;0,43;-0,56;-0,53;-0,36;-1,71;0,00
22.917;-0,37;-0,95;-0,12;-1,94;0,43;-0,56;-0,25;0,15;-1,20;0,00
22.928;-0,37;-0,95;-0,12;-2,33;0,21;-0,68;-0,25;0,15;-1,20;0,00
22.931;-0,46;-0,93;-0,20;-2,33;0,21;-0,68;-0,25;0,15;-1,20;0,00
22.948;-0,46;-0,93;-0,20;-2,61;0,24;-0,43;-0,25;0,15;-1,20;0,00
22.968;-0,46;-0,93;-0,20;-2,43;0,56;-0,01;-0,25;0,15;-1,20;0,00
22.983;-0,46;-0,93;-0,20;-2,43;0,56;-0,01;-0,32;-1,09;-0,79;0,00
22.988;-0,46;-0,93;-0,20;-2,28;0,98;0,27;-0,32;-1,09;-0,79;0,00
22.997;-0,39;-0,82;-0,12;-2,28;0,98;0,27;-0,32;-1,09;-0,79;0,00
23.008;-0,39;-0,82;-0,12;-1,75;1,40;0,18;-0,32;-1,09;-0,79;0,00
23.028;-0,39;-0,82;-0,12;-1,49;1,76;0,34;-0,32;-1,09;-0,79;0,00
23.048;-0,39;-0,82;-0,12;-1,30;1,93;0,62;-0,32;-1,09;-0,79;0,00
23.049;-0,39;-0,82;-0,12;-1,30;1,93;0,62;-0,18;-0,58;-0,43;0,00
23.062;-0,33;-0,74;-0,06;-1,30;1,93;0,62;-0,18;-0,58;-0,43;0,00
23.068;-0,33;-0,74;-0,06;-1,45;2,05;0,91;-0,18;-0,58;-0,43;0,00
23.088;-0,33;-0,74;-0,06;-1,36;2,05;0,86;-0,18;-0,58;-0,43;0,00
23.108;-0,33;-0,74;-0,06;-1,61;1,87;0,92;-0,18;-0,58;-0,43;0,00
23.112;-0,33;-0,74;-0,06;-1,61;1,87;0,92;-0,11;-0,12;-0,34;0,00
23.127;-0,36;-0,78;-0,03;-1,61;1,87;0,92;-0,11;-0,12;-0,34;0,00
23.129;-0,36;-0,78;-0,03;-1,62;1,59;1,04;-0,11;-0,12;-0,34;0,00
23.148;-0,36;-0,78;-0,03;-1,70;1,34;1,07;-0,11;-0,12;-0,34;0,00
23.168;-0,36;-0,78;-0,03;-1,63;1,03;0,90;-0,11;-0,12;-0,34;0,00
23.201;-0,36;-0,78;-0,03;-1,63;1,03;0,90;-0,12;-0,35;-0,38;0,00
23.204;-0,36;-0,78;-0,03;-1,69;0,91;0,94;-0,12;-0,35;-0,38;0,00
23.206;-0,36;-0,85;-0,03;-1,69;0,91;0,94;-0,12;-0,35;-0,38;0,00
23.209;-0,36;-0,85;-0,03;-1,55;0,90;1,02;-0,12;-0,35;-0,38;0,00
23.228;-0,36;-0,85;-0,03;-1,66;0,70;1,15;-0,12;-0,35;-0,38;0,00
23.243;-0,36;-0,85;-0,03;-1,66;0,70;1,15;-0,05;-0,05;-0,26;0,00
23.248;-0,36;-0,85;-0,03;-1,57;0,28;1,18;-0,05;-0,05;-0,26;0,00
23.264;-0,36;-0,94;-0,01;-1,57;0,28;1,18;-0,05;-0,05;-0,26;0,00
23.268;-0,36;-0,94;-0,01;-1,81;-0,06;1,21;-0,05;-0,05;-0,26;0,00
23.288;-0,36;-0,94;-0,01;-1,68;-0,30;0,90;-0,05;-0,05;-0,26;0,00
23.308;-0,36;-0,94;-0,01;-1,73;-0,79;0,80;-0,05;-0,05;-0,26;0,00
23.31;-0,36;-0,94;-0,01;-1,73;-0,79;0,80;0,15;0,09;-0,21;0,00
23.322;-0,37;-1,07;-0,04;-1,73;-0,79;0,80;0,15;0,09;-0,21;0,00
23.328;-0,37;-1,07;-0,04;-1,75;-1,30;0,62;0,15;0,09;-0,21;0,00
23.348;-0,37;-1,07;-0,04;-1,72;-2,29;0,70;0,15;0,09;-0,21;0,00
23.368;-0,37;-1,07;-0,04;-1,67;-3,87;0,35;0,15;0,09;-0,21;0,00
23.372;-0,37;-1,07;-0,04;-1,67;-3,87;0,35;0,19;0,18;-0,07;0,00
23.399;-0,37;-1,44;-0,11;-1,67;-3,87;0,35;0,19;0,18;-0,07;0,00
23.401;-0,37;-1,44;-0,11;-1,82;-4,74;-0,18;0,19;0,18;-0,07;0,00
23.409;-0,37;-1,44;-0,11;-2,13;-4,87;-0,24;0,19;0,18;-0,07;0,00
23.428;-0,37;-1,44;-0,11;-2,32;-3,62;0,10;0,19;0,18;-0,07;0,00
23.437;-0,37;-1,44;-0,11;-2,32;-3,62;0,10;0,18;0,44;0,07;0,00
23.448;-0,37;-1,44;-0,11;-2,18;-2,74;0,44;0,18;0,44;0,07;0,00
23.467;-0,39;-1,19;-0,04;-2,18;-2,74;0,44;0,18;0,44;0,07;0,00
23.469;-0,39;-1,19;-0,04;-1,76;-2,21;0,18;0,18;0,44;0,07;0,00
23.496;-0,39;-1,19;-0,04;-1,19;-1,88;-0,09;0,18;0,44;0,07;0,00
23.503;-0,39;-1,19;-0,04;-1,19;-1,88;-0,09;0,57;0,76;0,99;0,00
23.508;-0,39;-1,19;-0,04;-0,87;-1,39;0,05;0,57;0,76;0,99;0,00
23.516;-0,31;-1,07;-0,05;-0,87;-1,39;0,05;0,57;0,76;0,99;0,00
23.528;-0,31;-1,07;-0,05;-0,55;-1,15;0,14;0,57;0,76;0,99;0,00
23.548;-0,31;-1,07;-0,05;-0,31;-0,87;0,04;0,57;0,76;0,99;0,00
23.568;-0,31;-1,07;-0,05;-0,10;-0,73;-0,01;0,57;0,76;0,99;0,00
23.57;-0,31;-1,07;-0,05;-0,10;-0,73;-0,01;0,59;0,88;1,29;0,00
23.588;-0,28;-0,96;-0,04;-0,10;-0,73;-0,01;0,59;0,88;1,29;0,00
23.59;-0,28;-0,96;-0,04;0,21;-0,21;-0,04;0,59;0,88;1,29;0,00
23.608;-0,28;-0,96;-0,04;0,65;0,26;0,10;0,59;0,88;1,29;0,00
23.628;-0,28;-0,96;-0,04;1,20;0,61;0,03;0,59;0,88;1,29;0,00
23.632;-0,28;-0,96;-0,04;1,20;0,61;0,03;0,57;0,49;1,54;0,00
23.646;-0,20;-0,82;-0,02;1,20;0,61;0,03;0,57;0,49;1,54;0,00
23.648;-0,20;-0,82;-0,02;1,63;0,87;-0,03;0,57;0,49;1,54;0,00
23.668;-0,20;-0,82;-0,02;2,05;1,01;-0,10;0,57;0,49;1,54;0,00
23.689;-0,20;-0,82;-0,02;2,25;1,16;-0,09;0,57;0,49;1,54;0,00
23.697;-0,20;-0,82;-0,02;2,25;1,16;-0,09;0,45;0,72;1,44;0,00
23.708;-0,20;-0,82;-0,02;2,30;0,91;-0,23;0,45;0,72;1,44;0,00
23.711;-0,19;-0,79;-0,03;2,30;0,91;-0,23;0,45;0,72;1,44;0,00
23.728;-0,19;-0,79;-0,03;2,40;0,79;-0,25;0,45;0,72;1,44;0,00
23.748;-0,19;-0,79;-0,03;2,71;0,71;-0,17;0,45;0,72;1,44;0,00
23.765;-0,19;-0,79;-0,03;2,71;0,71;-0,17;0,18;0,32;1,13;0,00
23.768;-0,19;-0,79;-0,03;2,90;0,61;-0,23;0,18;0,32;1,13;0,00
23.792;-0,15;-0,81;-0,02;2,90;0,61;-0,23;0,18;0,32;1,13;0,00
23.794;-0,15;-0,81;-0,02;3,15;0,38;-0,16;0,18;0,32;1,13;0,00
23.808;-0,15;-0,81;-0,02;3,13;0,17;-0,18;0,18;0,32;1,13;0,00
23.828;-0,15;-0,81;-0,02;3,21;0,06;-0,21;0,18;0,32;1,13;0,00
23.83;-0,15;-0,81;-0,02;3,21;0,06;-0,21;-0,04;0,19;0,66;0,00
23.842;-0,15;-0,86;-0,03;3,21;0,06;-0,21;-0,04;0,19;0,66;0,00
23.848;-0,15;-0,86;-0,03;3,12;-0,07;-0,25;-0,04;0,19;0,66;0,00
