time,gFx,gFy,gFz,ax,ay,az,wx,wy,wz,P
0.024,-0.38,0.40,0.79,0.36,-0.84,0.95,-0.26,0.32,0.98,928.51
0.025,-0.38,0.40,0.79,0.36,-0.84,0.95,-0.39,0.15,0.96,928.51
0.028,-0.38,0.40,0.79,-0.59,-0.95,0.52,-0.39,0.15,0.96,928.51
0.028,-0.28,0.41,0.84,-0.59,-0.95,0.52,-0.39,0.15,0.96,928.51
0.07,-0.28,0.41,0.84,-0.59,-0.95,0.52,-0.39,0.15,0.96,928.51
0.075,-0.28,0.41,0.84,-0.59,-0.95,0.52,-0.38,0.56,0.78,928.51
0.09,-0.32,0.41,0.82,-0.59,-0.95,0.52,-0.38,0.56,0.78,928.51
0.09,-0.32,0.41,0.82,-0.33,-1.01,0.68,-0.38,0.56,0.78,928.51
0.136,-0.32,0.41,0.82,-0.33,-1.01,0.68,-0.38,0.56,0.78,928.51
0.138,-0.32,0.41,0.82,-0.33,-1.01,0.68,-0.32,0.36,0.61,928.51
0.153,-0.30,0.43,0.84,-0.33,-1.01,0.68,-0.32,0.36,0.61,928.51
0.153,-0.30,0.43,0.84,-0.64,-1.21,0.43,-0.32,0.36,0.61,928.51
0.202,-0.30,0.43,0.84,-0.64,-1.21,0.43,-0.26,0.42,0.51,928.51
0.203,-0.30,0.43,0.84,-0.64,-1.21,0.43,-0.26,0.42,0.51,928.51
0.216,-0.35,0.43,0.86,-0.64,-1.21,0.43,-0.26,0.42,0.51,928.51
0.217,-0.35,0.43,0.86,-0.23,-1.21,0.25,-0.26,0.42,0.51,928.51
0.265,-0.35,0.43,0.86,-0.23,-1.21,0.25,-0.22,0.39,0.33,928.51
0.269,-0.35,0.43,0.86,-0.23,-1.21,0.25,-0.22,0.39,0.33,928.52
0.279,-0.38,0.41,0.91,-0.23,-1.21,0.25,-0.22,0.39,0.33,928.52
0.28,-0.38,0.41,0.91,-0.13,-1.10,-0.38,-0.22,0.39,0.33,928.52
0.328,-0.38,0.41,0.91,-0.13,-1.10,-0.38,-0.32,0.55,0.20,928.52
0.336,-0.38,0.41,0.91,-0.13,-1.10,-0.38,-0.32,0.55,0.20,928.52
0.343,-0.43,0.33,1.01,-0.13,-1.10,-0.38,-0.32,0.55,0.20,928.52
0.343,-0.43,0.33,1.01,0.08,-0.46,-1.35,-0.32,0.55,0.20,928.52
0.392,-0.43,0.33,1.01,0.08,-0.46,-1.35,-0.58,0.53,0.09,928.52
0.403,-0.43,0.33,1.01,0.08,-0.46,-1.35,-0.58,0.53,0.09,928.52
0.406,-0.51,0.21,0.91,0.08,-0.46,-1.35,-0.58,0.53,0.09,928.52
0.407,-0.51,0.21,0.91,0.61,0.48,-0.49,-0.58,0.53,0.09,928.52
0.455,-0.51,0.21,0.91,0.61,0.48,-0.49,-0.34,0.42,0.27,928.52
0.47,-0.47,0.21,0.84,0.61,0.48,-0.49,-0.34,0.42,0.27,928.52
0.47,-0.47,0.21,0.84,0.04,0.37,0.13,-0.34,0.42,0.27,928.52
0.47,-0.47,0.21,0.84,0.04,0.37,0.13,-0.34,0.42,0.27,928.52
0.519,-0.47,0.21,0.84,0.04,0.37,0.13,-0.29,0.46,0.47,928.52
0.534,-0.47,0.21,0.84,-0.84,0.69,-0.21,-0.29,0.46,0.47,928.52
0.534,-0.40,0.18,0.87,-0.84,0.69,-0.21,-0.29,0.46,0.47,928.52
0.536,-0.40,0.18,0.87,-0.84,0.69,-0.21,-0.29,0.46,0.47,928.52
0.582,-0.40,0.18,0.87,-0.84,0.69,-0.21,-0.22,0.13,0.49,928.52
0.596,-0.47,0.22,0.88,-0.84,0.69,-0.21,-0.22,0.13,0.49,928.52
0.596,-0.47,0.22,0.88,-0.04,0.31,-0.28,-0.22,0.13,0.49,928.52
0.603,-0.47,0.22,0.88,-0.04,0.31,-0.28,-0.22,0.13,0.49,928.55
0.645,-0.47,0.22,0.88,-0.04,0.31,-0.28,-0.02,-0.21,0.39,928.55
0.659,-0.33,0.30,0.83,-0.04,0.31,-0.28,-0.02,-0.21,0.39,928.55
0.659,-0.33,0.30,0.83,-1.25,-0.40,0.28,-0.02,-0.21,0.39,928.55
0.67,-0.33,0.30,0.83,-1.25,-0.40,0.28,-0.02,-0.21,0.39,928.55
0.708,-0.33,0.30,0.83,-1.25,-0.40,0.28,0.27,0.04,0.05,928.55
0.723,-0.39,0.35,0.76,-1.25,-0.40,0.28,0.27,0.04,0.05,928.55
0.723,-0.39,0.35,0.76,-0.67,-0.68,0.90,0.27,0.04,0.05,928.55
0.736,-0.39,0.35,0.76,-0.67,-0.68,0.90,0.27,0.04,0.05,928.44
0.772,-0.39,0.35,0.76,-0.67,-0.68,0.90,0.49,0.19,-0.33,928.44
0.786,-0.43,0.44,0.72,-0.67,-0.68,0.90,0.49,0.19,-0.33,928.44
0.786,-0.43,0.44,0.72,-0.51,-1.40,1.12,0.49,0.19,-0.33,928.44
0.803,-0.43,0.44,0.72,-0.51,-1.40,1.12,0.49,0.19,-0.33,928.44
0.835,-0.43,0.44,0.72,-0.51,-1.40,1.12,0.68,-0.04,-0.56,928.44
0.849,-0.51,0.49,0.78,-0.51,-1.40,1.12,0.68,-0.04,-0.56,928.44
0.849,-0.51,0.49,0.78,0.26,-1.73,0.46,0.68,-0.04,-0.56,928.44
0.87,-0.51,0.49,0.78,0.26,-1.73,0.46,0.68,-0.04,-0.56,928.32
0.898,-0.51,0.49,0.78,0.26,-1.73,0.46,0.88,-0.57,-0.77,928.32
0.913,-0.51,0.36,0.89,0.26,-1.73,0.46,0.88,-0.57,-0.77,928.32
0.913,-0.51,0.36,0.89,0.41,-0.18,-0.64,0.88,-0.57,-0.77,928.32
0.936,-0.51,0.36,0.89,0.41,-0.18,-0.64,0.88,-0.57,-0.77,928.32
0.961,-0.51,0.36,0.89,0.41,-0.18,-0.64,1.05,-0.20,-0.89,928.32
0.976,-0.29,0.29,1.03,0.41,-0.18,-0.64,1.05,-0.20,-0.89,928.32
0.976,-0.29,0.29,1.03,-2.02,0.73,-2.31,1.05,-0.20,-0.89,928.32
1.003,-0.29,0.29,1.03,-2.02,0.73,-2.31,1.05,-0.20,-0.89,928.32
1.025,-0.29,0.29,1.03,-2.02,0.73,-2.31,0.89,0.53,-1.62,928.32
1.039,-0.68,0.31,0.92,-2.02,0.73,-2.31,0.89,0.53,-1.62,928.32
1.039,-0.68,0.31,0.92,1.36,0.33,-1.49,0.89,0.53,-1.62,928.32
1.07,-0.68,0.31,0.92,1.36,0.33,-1.49,0.89,0.53,-1.62,928.35
1.088,-0.68,0.31,0.92,1.36,0.33,-1.49,-0.03,-1.26,-1.23,928.35
1.102,-0.44,0.24,0.98,1.36,0.33,-1.49,-0.03,-1.26,-1.23,928.35
1.103,-0.44,0.24,0.98,-0.63,0.65,-1.64,-0.03,-1.26,-1.23,928.35
1.136,-0.44,0.24,0.98,-0.63,0.65,-1.64,-0.03,-1.26,-1.23,928.35
1.151,-0.44,0.24,0.98,-0.63,0.65,-1.64,0.06,-0.79,-0.55,928.35
1.166,-0.39,0.19,0.93,-0.63,0.65,-1.64,0.06,-0.79,-0.55,928.35
1.167,-0.39,0.19,0.93,-0.77,1.02,-0.89,0.06,-0.79,-0.55,928.35
1.203,-0.39,0.19,0.93,-0.77,1.02,-0.89,0.06,-0.79,-0.55,928.56
1.214,-0.39,0.19,0.93,-0.77,1.02,-0.89,0.50,-0.88,-0.38,928.56
1.229,-0.17,0.25,0.88,-0.77,1.02,-0.89,0.50,-0.88,-0.38,928.56
1.23,-0.17,0.25,0.88,-2.61,0.70,-0.33,0.50,-0.88,-0.38,928.56
1.27,-0.17,0.25,0.88,-2.61,0.70,-0.33,0.50,-0.88,-0.38,928.56
1.278,-0.17,0.25,0.88,-2.61,0.70,-0.33,0.81,0.06,-0.29,928.56
1.293,-0.22,0.24,0.90,-2.61,0.70,-0.33,0.81,0.06,-0.29,928.56
1.293,-0.22,0.24,0.90,-2.24,1.12,-0.70,0.81,0.06,-0.29,928.56
1.337,-0.22,0.24,0.90,-2.24,1.12,-0.70,0.81,0.06,-0.29,928.73
1.341,-0.22,0.24,0.90,-2.24,1.12,-0.70,0.79,0.39,-0.32,928.73
1.356,-0.30,0.32,0.93,-2.24,1.12,-0.70,0.79,0.39,-0.32,928.73
1.356,-0.30,0.32,0.93,-1.79,0.59,-1.28,0.79,0.39,-0.32,928.73
1.403,-0.30,0.32,0.93,-1.79,0.59,-1.28,0.79,0.39,-0.32,928.73
1.404,-0.30,0.32,0.93,-1.79,0.59,-1.28,0.59,0.61,-0.30,928.73
1.421,-0.47,0.44,0.81,-1.79,0.59,-1.28,0.59,0.61,-0.30,928.73
1.422,-0.47,0.44,0.81,-0.48,-0.36,-0.45,0.59,0.61,-0.30,928.73
1.469,-0.47,0.44,0.81,-0.48,-0.36,-0.45,0.58,0.06,-0.46,928.73
1.471,-0.47,0.44,0.81,-0.48,-0.36,-0.45,0.58,0.06,-0.46,928.81
1.484,-0.63,0.34,0.70,-0.48,-0.36,-0.45,0.58,0.06,-0.46,928.81
1.485,-0.63,0.34,0.70,1.07,0.67,0.47,0.58,0.06,-0.46,928.81
1.532,-0.63,0.34,0.70,1.07,0.67,0.47,0.74,-0.29,-0.43,928.81
1.537,-0.63,0.34,0.70,1.07,0.67,0.47,0.74,-0.29,-0.43,928.81
1.546,-0.36,0.34,0.80,1.07,0.67,0.47,0.74,-0.29,-0.43,928.81
1.55,-0.36,0.34,0.80,-1.71,0.95,-0.64,0.74,-0.29,-0.43,928.81
1.596,-0.36,0.34,0.80,-1.71,0.95,-0.64,0.65,0.57,-0.29,928.81
1.604,-0.36,0.34,0.80,-1.71,0.95,-0.64,0.65,0.57,-0.29,928.81
1.61,-0.36,0.34,0.80,-0.87,1.81,-0.12,0.65,0.57,-0.29,928.81
1.611,-0.47,0.27,0.71,-0.87,1.81,-0.12,0.65,0.57,-0.29,928.81
1.66,-0.47,0.27,0.71,-0.87,1.81,-0.12,0.32,0.10,-0.89,928.81
1.674,-0.47,0.27,0.71,-0.66,0.67,-0.22,0.32,0.10,-0.89,928.81
1.675,-0.47,0.27,0.71,-0.66,0.67,-0.22,0.32,0.10,-0.89,928.78
1.675,-0.52,0.36,0.72,-0.66,0.67,-0.22,0.32,0.10,-0.89,928.78
1.722,-0.52,0.36,0.72,-0.66,0.67,-0.22,-0.01,-0.45,-1.21,928.78
1.737,-0.63,0.36,0.64,-0.66,0.67,-0.22,-0.01,-0.45,-1.21,928.78
1.738,-0.63,0.36,0.64,0.32,0.21,0.71,-0.01,-0.45,-1.21,928.78
1.739,-0.63,0.36,0.64,0.32,0.21,0.71,-0.01,-0.45,-1.21,928.78
1.789,-0.63,0.36,0.64,0.32,0.21,0.71,0.10,-0.12,-1.32,928.78
1.812,-0.72,0.35,0.67,0.32,0.21,0.71,0.10,-0.12,-1.32,928.78
1.814,-0.72,0.35,0.67,0.84,-0.21,0.37,0.10,-0.12,-1.32,928.78
1.814,-0.72,0.35,0.67,0.84,-0.21,0.37,0.10,-0.12,-1.32,928.75
1.848,-0.72,0.35,0.67,0.84,-0.21,0.37,0.20,0.25,-1.15,928.75
1.864,-0.81,0.42,0.70,0.84,-0.21,0.37,0.20,0.25,-1.15,928.75
1.865,-0.81,0.42,0.70,1.41,-1.23,-0.05,0.20,0.25,-1.15,928.75
1.872,-0.81,0.42,0.70,1.41,-1.23,-0.05,0.20,0.25,-1.15,928.75
1.911,-0.81,0.42,0.70,1.41,-1.23,-0.05,0.20,0.22,-1.00,928.75
1.926,-0.82,0.41,0.65,1.41,-1.23,-0.05,0.20,0.22,-1.00,928.75
1.927,-0.82,0.41,0.65,1.22,-1.45,0.29,0.20,0.22,-1.00,928.75
1.937,-0.82,0.41,0.65,1.22,-1.45,0.29,0.20,0.22,-1.00,928.75
1.976,-0.82,0.41,0.65,1.22,-1.45,0.29,0.14,0.21,-0.68,928.75
1.991,-0.80,0.37,0.66,1.22,-1.45,0.29,0.14,0.21,-0.68,928.75
1.992,-0.80,0.37,0.66,0.88,-1.23,0.07,0.14,0.21,-0.68,928.75
2.005,-0.80,0.37,0.66,0.88,-1.23,0.07,0.14,0.21,-0.68,928.75
2.039,-0.80,0.37,0.66,0.88,-1.23,0.07,0.05,0.71,-0.27,928.75
2.055,-0.70,0.33,0.45,0.88,-1.23,0.07,0.05,0.71,-0.27,928.75
2.057,-0.70,0.33,0.45,-0.46,-0.92,1.78,0.05,0.71,-0.27,928.75
2.072,-0.70,0.33,0.45,-0.46,-0.92,1.78,0.05,0.71,-0.27,928.75
2.107,-0.70,0.33,0.45,-0.46,-0.92,1.78,-0.09,0.91,-0.31,928.75
2.116,-0.84,0.28,0.51,-0.46,-0.92,1.78,-0.09,0.91,-0.31,928.75
2.12,-0.84,0.28,0.51,0.47,-0.61,0.75,-0.09,0.91,-0.31,928.75
2.137,-0.84,0.28,0.51,0.47,-0.61,0.75,-0.09,0.91,-0.31,928.77
2.165,-0.84,0.28,0.51,0.47,-0.61,0.75,0.01,1.13,-0.24,928.77
2.182,-0.84,0.29,0.45,0.47,-0.61,0.75,0.01,1.13,-0.24,928.77
2.183,-0.84,0.29,0.45,0.06,-0.80,0.77,0.01,1.13,-0.24,928.77
2.207,-0.84,0.29,0.45,0.06,-0.80,0.77,0.01,1.13,-0.24,928.77
2.228,-0.84,0.29,0.45,0.06,-0.80,0.77,0.15,1.21,-0.10,928.77
2.243,-0.84,0.29,0.45,-0.53,-0.74,1.01,0.15,1.21,-0.10,928.77
2.244,-0.81,0.28,0.36,-0.53,-0.74,1.01,0.15,1.21,-0.10,928.77
2.271,-0.81,0.28,0.36,-0.53,-0.74,1.01,0.15,1.21,-0.10,928.70
2.292,-0.81,0.28,0.36,-0.53,-0.74,1.01,0.23,0.85,-0.09,928.70
2.307,-0.74,0.30,0.30,-0.53,-0.74,1.01,0.23,0.85,-0.09,928.70
2.308,-0.74,0.30,0.30,-1.51,-0.91,1.07,0.23,0.85,-0.09,928.70
2.339,-0.74,0.30,0.30,-1.51,-0.91,1.07,0.23,0.85,-0.09,928.70
2.356,-0.74,0.30,0.30,-1.51,-0.91,1.07,0.20,1.75,-0.21,928.70
2.374,-1.04,0.26,0.23,-1.51,-0.91,1.07,0.20,1.75,-0.21,928.70
2.374,-1.04,0.26,0.23,0.96,-0.54,0.66,0.20,1.75,-0.21,928.70
2.404,-1.04,0.26,0.23,0.96,-0.54,0.66,0.20,1.75,-0.21,928.56
2.419,-1.04,0.26,0.23,0.96,-0.54,0.66,0.42,2.16,0.12,928.56
2.433,-1.09,0.24,-0.01,0.96,-0.54,0.66,0.42,2.16,0.12,928.56
2.434,-1.09,0.24,-0.01,1.16,-0.20,1.63,0.42,2.16,0.12,928.56
2.473,-1.09,0.24,-0.01,1.16,-0.20,1.63,0.42,2.16,0.12,928.56
2.495,-1.09,0.24,-0.01,1.16,-0.20,1.63,0.50,1.07,-0.15,928.56
2.497,-1.00,0.28,-0.01,1.16,-0.20,1.63,0.50,1.07,-0.15,928.56
2.497,-1.00,0.28,-0.01,0.22,-0.70,1.10,0.50,1.07,-0.15,928.56
2.538,-1.00,0.28,-0.01,0.22,-0.70,1.10,0.50,1.07,-0.15,928.56
2.545,-1.00,0.28,-0.01,0.22,-0.70,1.10,-0.06,0.41,-0.43,928.56
2.56,-0.72,0.12,0.15,0.22,-0.70,1.10,-0.06,0.41,-0.43,928.56
2.563,-0.72,0.12,0.15,-2.59,0.60,-0.70,-0.06,0.41,-0.43,928.56
2.604,-0.72,0.12,0.15,-2.59,0.60,-0.70,-0.06,0.41,-0.43,928.55
2.608,-0.72,0.12,0.15,-2.59,0.60,-0.70,-0.38,1.58,-0.40,928.55
2.627,-0.88,0.10,0.39,-2.59,0.60,-0.70,-0.38,1.58,-0.40,928.55
2.628,-0.88,0.10,0.39,-1.12,0.53,-4.10,-0.38,1.58,-0.40,928.55
2.671,-0.88,0.10,0.39,-1.12,0.53,-4.10,-0.38,1.58,-0.40,928.55
2.672,-0.88,0.10,0.39,-1.12,0.53,-4.10,-0.50,2.61,-0.77,928.55
2.685,-1.14,0.08,0.15,-1.12,0.53,-4.10,-0.50,2.61,-0.77,928.55
2.686,-1.14,0.08,0.15,1.55,0.21,-3.27,-0.50,2.61,-0.77,928.55
2.735,-1.14,0.08,0.15,1.55,0.21,-3.27,0.03,0.71,-0.03,928.55
2.738,-1.14,0.08,0.15,1.55,0.21,-3.27,0.03,0.71,-0.03,928.54
2.75,-1.14,0.08,0.15,2.61,-1.56,-0.24,0.03,0.71,-0.03,928.54
2.751,-1.24,0.27,-0.18,2.61,-1.56,-0.24,0.03,0.71,-0.03,928.54
2.799,-1.24,0.27,-0.18,2.61,-1.56,-0.24,0.10,0.24,0.25,928.54
2.807,-1.24,0.27,-0.18,2.61,-1.56,-0.24,0.10,0.24,0.25,928.54
2.812,-0.93,0.25,-0.29,2.61,-1.56,-0.24,0.10,0.24,0.25,928.54
2.813,-0.93,0.25,-0.29,-0.38,-1.22,0.60,0.10,0.24,0.25,928.54
2.878,-0.93,0.25,-0.29,-0.38,-1.22,0.60,-0.36,0.28,0.37,928.54
2.879,-0.93,0.25,-0.29,-0.38,-1.22,0.60,-0.36,0.28,0.37,928.56
2.88,-0.93,0.25,-0.29,1.79,-0.35,-1.34,-0.36,0.28,0.37,928.56
2.881,-1.15,0.19,-0.09,1.79,-0.35,-1.34,-0.36,0.28,0.37,928.56
2.925,-1.15,0.19,-0.09,1.79,-0.35,-1.34,-0.25,-0.55,0.50,928.56
2.938,-1.15,0.19,-0.09,1.79,-0.35,-1.34,-0.25,-0.55,0.50,928.56
2.939,-0.88,0.29,-0.05,1.79,-0.35,-1.34,-0.25,-0.55,0.50,928.56
2.939,-0.88,0.29,-0.05,-0.87,-0.99,-1.47,-0.25,-0.55,0.50,928.56
2.988,-0.88,0.29,-0.05,-0.87,-0.99,-1.47,-0.17,0.00,0.11,928.56
3.01,-1.04,0.21,-0.14,-0.87,-0.99,-1.47,-0.17,0.00,0.11,928.56
3.011,-1.04,0.21,-0.14,0.77,-0.17,-0.60,-0.17,0.00,0.11,928.56
3.011,-1.04,0.21,-0.14,0.77,-0.17,-0.60,-0.17,0.00,0.11,928.52
3.052,-1.04,0.21,-0.14,0.77,-0.17,-0.60,-0.12,-0.75,0.15,928.52
3.067,-1.04,0.21,-0.14,-0.50,-0.86,-0.25,-0.12,-0.75,0.15,928.52
3.068,-0.92,0.30,-0.12,-0.50,-0.86,-0.25,-0.12,-0.75,0.15,928.52
3.072,-0.92,0.30,-0.12,-0.50,-0.86,-0.25,-0.12,-0.75,0.15,928.52
3.116,-0.92,0.30,-0.12,-0.50,-0.86,-0.25,-0.37,-1.24,0.41,928.52
3.129,-0.95,0.24,0.03,-0.50,-0.86,-0.25,-0.37,-1.24,0.41,928.52
3.13,-0.95,0.24,0.03,-0.20,0.05,-0.80,-0.37,-1.24,0.41,928.52
3.138,-0.95,0.24,0.03,-0.20,0.05,-0.80,-0.37,-1.24,0.41,928.52
3.18,-0.95,0.24,0.03,-0.20,0.05,-0.80,-0.30,-1.05,0.48,928.52
3.193,-0.81,0.30,0.13,-0.20,0.05,-0.80,-0.30,-1.05,0.48,928.52
3.194,-0.81,0.30,0.13,-1.57,-0.29,-1.30,-0.30,-1.05,0.48,928.52
3.205,-0.81,0.30,0.13,-1.57,-0.29,-1.30,-0.30,-1.05,0.48,928.62
3.241,-0.81,0.30,0.13,-1.57,-0.29,-1.30,-0.37,0.19,-0.71,928.62
3.256,-0.97,0.23,0.01,-1.57,-0.29,-1.30,-0.37,0.19,-0.71,928.62
3.257,-0.97,0.23,0.01,-0.07,-0.18,-0.12,-0.37,0.19,-0.71,928.62
3.275,-0.97,0.23,0.01,-0.07,-0.18,-0.12,-0.37,0.19,-0.71,928.62
3.305,-0.97,0.23,0.01,-0.07,-0.18,-0.12,-0.09,0.14,-0.84,928.62
3.32,-1.03,0.11,-0.02,-0.07,-0.18,-0.12,-0.09,0.14,-0.84,928.62
3.32,-1.03,0.11,-0.02,0.41,0.49,0.04,-0.09,0.14,-0.84,928.62
3.337,-1.03,0.11,-0.02,0.41,0.49,0.04,-0.09,0.14,-0.84,928.42
3.369,-1.03,0.11,-0.02,0.41,0.49,0.04,0.48,0.80,-0.40,928.42
3.383,-1.25,0.07,-0.04,0.41,0.49,0.04,0.48,0.80,-0.40,928.42
3.389,-1.25,0.07,-0.04,2.52,0.73,-0.32,0.48,0.80,-0.40,928.42
3.409,-1.25,0.07,-0.04,2.52,0.73,-0.32,0.48,0.80,-0.40,928.42
3.432,-1.25,0.07,-0.04,2.52,0.73,-0.32,0.58,0.02,0.25,928.42
3.446,-1.25,0.07,-0.04,-0.72,0.93,2.14,0.58,0.02,0.25,928.42
3.447,-0.92,0.06,-0.29,-0.72,0.93,2.14,0.58,0.02,0.25,928.42
3.47,-0.92,0.06,-0.29,-0.72,0.93,2.14,0.58,0.02,0.25,928.44
3.494,-0.92,0.06,-0.29,-0.72,0.93,2.14,0.17,0.05,-0.18,928.44
3.509,-0.90,-0.04,-0.19,-0.72,0.93,2.14,0.17,0.05,-0.18,928.44
3.509,-0.90,-0.04,-0.19,-0.90,1.73,1.04,0.17,0.05,-0.18,928.44
3.539,-0.90,-0.04,-0.19,-0.90,1.73,1.04,0.17,0.05,-0.18,928.44
3.558,-0.90,-0.04,-0.19,-0.90,1.73,1.04,0.12,0.17,-0.18,928.44
3.577,-0.85,0.13,-0.27,-0.90,1.73,1.04,0.12,0.17,-0.18,928.44
3.578,-0.85,0.13,-0.27,-1.38,0.00,1.73,0.12,0.17,-0.18,928.44
3.606,-0.85,0.13,-0.27,-1.38,0.00,1.73,0.12,0.17,-0.18,928.44
3.622,-0.85,0.13,-0.27,-1.38,0.00,1.73,-0.06,0.02,-0.40,928.44
3.635,-0.93,0.06,-0.32,-1.38,0.00,1.73,-0.06,0.02,-0.40,928.44
3.636,-0.93,0.06,-0.32,-0.66,0.39,2.18,-0.06,0.02,-0.40,928.44
3.671,-0.93,0.06,-0.32,-0.66,0.39,2.18,-0.06,0.02,-0.40,928.49
3.685,-0.93,0.06,-0.32,-0.66,0.39,2.18,-0.01,0.21,-0.37,928.49
3.699,-0.86,-0.05,-0.20,-0.66,0.39,2.18,-0.01,0.21,-0.37,928.49
3.7,-0.86,-0.05,-0.20,-1.27,1.28,0.79,-0.01,0.21,-0.37,928.49
3.74,-0.86,-0.05,-0.20,-1.27,1.28,0.79,-0.01,0.21,-0.37,928.49
3.748,-0.86,-0.05,-0.20,-1.27,1.28,0.79,0.02,0.99,-0.71,928.49
3.763,-0.86,-0.05,-0.20,-1.43,0.57,0.65,0.02,0.99,-0.71,928.49
3.764,-0.84,-0.03,-0.25,-1.43,0.57,0.65,0.02,0.99,-0.71,928.49
3.804,-0.84,-0.03,-0.25,-1.43,0.57,0.65,0.02,0.99,-0.71,928.54
3.81,-0.84,-0.03,-0.25,-1.43,0.57,0.65,0.03,0.48,-0.68,928.54
3.825,-1.10,-0.06,-0.32,-1.43,0.57,0.65,0.03,0.48,-0.68,928.54
3.826,-1.10,-0.06,-0.32,1.10,0.51,1.19,0.03,0.48,-0.68,928.54
3.871,-1.10,-0.06,-0.32,1.10,0.51,1.19,0.03,0.48,-0.68,928.54
3.874,-1.10,-0.06,-0.32,1.10,0.51,1.19,-0.03,-0.30,-0.31,928.54
3.892,-1.10,-0.06,-0.32,-0.02,0.37,0.97,-0.03,-0.30,-0.31,928.54
3.894,-0.99,-0.06,-0.28,-0.02,0.37,0.97,-0.03,-0.30,-0.31,928.54
3.938,-0.99,-0.06,-0.28,-0.02,0.37,0.97,-0.05,-0.42,-0.09,928.54
3.939,-0.99,-0.06,-0.28,-0.02,0.37,0.97,-0.05,-0.42,-0.09,928.60
3.954,-0.99,-0.12,-0.26,-0.02,0.37,0.97,-0.05,-0.42,-0.09,928.60
3.955,-0.99,-0.12,-0.26,-0.01,0.83,1.01,-0.05,-0.42,-0.09,928.60
4.003,-0.99,-0.12,-0.26,-0.01,0.83,1.01,0.18,-0.06,-0.11,928.60
4.006,-0.99,-0.12,-0.26,-0.01,0.83,1.01,0.18,-0.06,-0.11,928.60
4.02,-1.06,-0.05,-0.22,-0.01,0.83,1.01,0.18,-0.06,-0.11,928.60
4.02,-1.06,-0.05,-0.22,0.66,0.07,0.65,0.18,-0.06,-0.11,928.60
4.064,-1.06,-0.05,-0.22,0.66,0.07,0.65,0.33,-0.37,0.06,928.60
4.071,-1.06,-0.05,-0.22,0.66,0.07,0.65,0.33,-0.37,0.06,928.60
4.079,-1.09,-0.04,-0.21,0.66,0.07,0.65,0.33,-0.37,0.06,928.60
4.079,-1.09,-0.04,-0.21,0.97,0.05,0.79,0.33,-0.37,0.06,928.60
4.128,-1.09,-0.04,-0.21,0.97,0.05,0.79,0.30,-0.11,0.36,928.60
4.154,-1.09,-0.04,-0.21,0.97,0.05,0.79,0.30,-0.11,0.36,928.65
4.155,-1.09,-0.04,-0.21,0.02,0.30,0.10,0.30,-0.11,0.36,928.65
4.156,-1.00,-0.05,-0.14,0.02,0.30,0.10,0.30,-0.11,0.36,928.65
4.19,-1.00,-0.05,-0.14,0.02,0.30,0.10,0.47,0.20,0.24,928.65
4.207,-1.00,-0.05,-0.14,0.63,0.49,-0.58,0.47,0.20,0.24,928.65
4.208,-1.00,-0.05,-0.14,0.63,0.49,-0.58,0.47,0.20,0.24,928.65
4.208,-1.06,-0.06,-0.08,0.63,0.49,-0.58,0.47,0.20,0.24,928.65
4.255,-1.06,-0.06,-0.08,0.63,0.49,-0.58,0.73,0.24,0.15,928.65
4.269,-0.92,0.01,-0.17,0.63,0.49,-0.58,0.73,0.24,0.15,928.65
4.271,-0.92,0.01,-0.17,-0.73,-0.13,0.10,0.73,0.24,0.15,928.65
4.273,-0.92,0.01,-0.17,-0.73,-0.13,0.10,0.73,0.24,0.15,928.68
4.317,-0.92,0.01,-0.17,-0.73,-0.13,0.10,0.48,0.56,0.19,928.68
4.332,-0.90,0.00,-0.17,-0.73,-0.13,0.10,0.48,0.56,0.19,928.68
4.333,-0.90,0.00,-0.17,-0.84,-0.00,-0.16,0.48,0.56,0.19,928.68
4.338,-0.90,0.00,-0.17,-0.84,-0.00,-0.16,0.48,0.56,0.19,928.68
4.382,-0.90,0.00,-0.17,-0.84,-0.00,-0.16,0.32,0.21,0.09,928.68
4.398,-0.91,-0.05,-0.17,-0.84,-0.00,-0.16,0.32,0.21,0.09,928.68
4.399,-0.91,-0.05,-0.17,-0.74,0.55,-0.31,0.32,0.21,0.09,928.68
4.41,-0.91,-0.05,-0.17,-0.74,0.55,-0.31,0.32,0.21,0.09,928.71
4.444,-0.91,-0.05,-0.17,-0.74,0.55,-0.31,0.09,-0.09,-0.20,928.71
4.459,-0.91,-0.05,-0.17,-1.31,0.42,0.36,0.09,-0.09,-0.20,928.71
4.461,-0.85,-0.06,-0.23,-1.31,0.42,0.36,0.09,-0.09,-0.20,928.71
4.472,-0.85,-0.06,-0.23,-1.31,0.42,0.36,0.09,-0.09,-0.20,928.71
4.51,-0.85,-0.06,-0.23,-1.31,0.42,0.36,-0.01,-0.54,-0.25,928.71
4.534,-0.85,-0.06,-0.23,-0.25,0.53,-0.02,-0.01,-0.54,-0.25,928.71
4.535,-0.97,-0.08,-0.15,-0.25,0.53,-0.02,-0.01,-0.54,-0.25,928.71
4.539,-0.97,-0.08,-0.15,-0.25,0.53,-0.02,-0.01,-0.54,-0.25,928.71
4.572,-0.97,-0.08,-0.15,-0.25,0.53,-0.02,-0.05,-0.62,-0.20,928.71
4.587,-0.97,-0.08,-0.15,0.69,0.20,0.29,-0.05,-0.62,-0.20,928.71
4.588,-1.07,-0.06,-0.15,0.69,0.20,0.29,-0.05,-0.62,-0.20,928.71
4.607,-1.07,-0.06,-0.15,0.69,0.20,0.29,-0.05,-0.62,-0.20,928.71
4.638,-1.07,-0.06,-0.15,0.69,0.20,0.29,-0.09,-0.46,-0.09,928.71
4.649,-1.07,-0.06,-0.15,-0.34,-0.23,1.03,-0.09,-0.46,-0.09,928.71
4.65,-0.97,-0.02,-0.19,-0.34,-0.23,1.03,-0.09,-0.46,-0.09,928.71
4.672,-0.97,-0.02,-0.19,-0.34,-0.23,1.03,-0.09,-0.46,-0.09,928.71
4.697,-0.97,-0.02,-0.19,-0.34,-0.23,1.03,0.14,-2.17,-0.31,928.71
4.712,-0.97,-0.02,-0.19,-1.14,0.74,1.78,0.14,-2.17,-0.31,928.71
4.713,-0.88,-0.14,-0.11,-1.14,0.74,1.78,0.14,-2.17,-0.31,928.71
4.74,-0.88,-0.14,-0.11,-1.14,0.74,1.78,0.14,-2.17,-0.31,928.68
4.761,-0.88,-0.14,-0.11,-1.14,0.74,1.78,-0.07,-0.57,-0.61,928.68
4.779,-0.34,-0.21,0.10,-1.14,0.74,1.78,-0.07,-0.57,-0.61,928.68
4.78,-0.34,-0.21,0.10,-6.42,0.97,-0.44,-0.07,-0.57,-0.61,928.68
4.806,-0.34,-0.21,0.10,-6.42,0.97,-0.44,-0.07,-0.57,-0.61,928.68
4.825,-0.34,-0.21,0.10,-6.42,0.97,-0.44,-0.19,3.65,-1.59,928.68
4.84,-0.44,-0.37,-0.22,-6.42,0.97,-0.44,-0.19,3.65,-1.59,928.68
4.841,-0.44,-0.37,-0.22,-5.13,1.36,0.30,-0.19,3.65,-1.59,928.68
4.871,-0.44,-0.37,-0.22,-5.13,1.36,0.30,-0.19,3.65,-1.59,928.64
4.887,-0.44,-0.37,-0.22,-5.13,1.36,0.30,0.04,3.01,-2.65,928.64
4.901,-0.97,-0.72,-0.50,-5.13,1.36,0.30,0.04,3.01,-2.65,928.64
4.902,-0.97,-0.72,-0.50,1.07,3.28,1.55,0.04,3.01,-2.65,928.64
4.938,-0.97,-0.72,-0.50,1.07,3.28,1.55,0.04,3.01,-2.65,928.64
4.951,-0.97,-0.72,-0.50,1.07,3.28,1.55,-0.21,1.30,-2.41,928.64
4.965,-1.13,-0.85,-0.68,1.07,3.28,1.55,-0.21,1.30,-2.41,928.64
4.966,-1.13,-0.85,-0.68,3.59,3.42,2.58,-0.21,1.30,-2.41,928.64
5.005,-1.13,-0.85,-0.68,3.59,3.42,2.58,-0.21,1.30,-2.41,928.64
5.015,-1.13,-0.85,-0.68,3.59,3.42,2.58,-0.95,0.53,-1.65,928.64
5.029,-1.33,-0.74,-0.91,3.59,3.42,2.58,-0.95,0.53,-1.65,928.64
5.03,-1.33,-0.74,-0.91,6.09,2.00,4.40,-0.95,0.53,-1.65,928.64
5.071,-1.33,-0.74,-0.91,6.09,2.00,4.40,-0.95,0.53,-1.65,928.64
5.077,-1.33,-0.74,-0.91,6.09,2.00,4.40,-1.60,-0.00,-0.70,928.64
5.094,-1.33,-0.74,-0.91,4.77,0.59,4.50,-1.60,-0.00,-0.70,928.64
5.095,-1.17,-0.57,-0.99,4.77,0.59,4.50,-1.60,-0.00,-0.70,928.64
5.138,-1.17,-0.57,-0.99,4.77,0.59,4.50,-1.60,-0.00,-0.70,928.64
5.14,-1.17,-0.57,-0.99,4.77,0.59,4.50,-2.32,1.48,0.25,928.64
5.155,-1.34,-0.53,-1.13,4.77,0.59,4.50,-2.32,1.48,0.25,928.64
5.157,-1.34,-0.53,-1.13,6.93,1.31,4.54,-2.32,1.48,0.25,928.64
5.205,-1.34,-0.53,-1.13,6.93,1.31,4.54,-2.73,1.59,1.18,928.64
5.206,-1.34,-0.53,-1.13,6.93,1.31,4.54,-2.73,1.59,1.18,928.65
5.219,-1.35,-0.50,-1.10,6.93,1.31,4.54,-2.73,1.59,1.18,928.65
5.219,-1.35,-0.50,-1.10,7.46,2.74,3.16,-2.73,1.59,1.18,928.65
5.268,-1.35,-0.50,-1.10,7.46,2.74,3.16,-2.82,1.87,1.85,928.65
5.271,-1.35,-0.50,-1.10,7.46,2.74,3.16,-2.82,1.87,1.85,928.65
5.283,-1.35,-0.50,-1.10,6.67,3.27,2.07,-2.82,1.87,1.85,928.65
5.284,-1.18,-0.34,-1.07,6.67,3.27,2.07,-2.82,1.87,1.85,928.65
5.333,-1.18,-0.34,-1.07,6.67,3.27,2.07,-2.73,2.32,2.23,928.65
5.348,-1.18,-0.34,-1.07,6.67,3.27,2.07,-2.73,2.32,2.23,928.67
5.349,-1.18,-0.34,-1.07,5.95,3.59,1.62,-2.73,2.32,2.23,928.67
5.349,-0.96,-0.16,-1.07,5.95,3.59,1.62,-2.73,2.32,2.23,928.67
5.398,-0.96,-0.16,-1.07,5.95,3.59,1.62,-2.69,2.33,2.42,928.67
5.405,-0.96,-0.16,-1.07,5.95,3.59,1.62,-2.69,2.33,2.42,928.67
5.409,-0.96,-0.16,-1.07,3.70,3.69,-0.72,-2.69,2.33,2.42,928.67
5.409,-0.55,0.02,-0.82,3.70,3.69,-0.72,-2.69,2.33,2.42,928.67
5.457,-0.55,0.02,-0.82,3.70,3.69,-0.72,-2.50,2.71,2.04,928.67
5.472,-0.55,0.02,-0.82,3.70,3.69,-0.72,-2.50,2.71,2.04,928.72
5.473,-0.26,0.07,-0.51,3.70,3.69,-0.72,-2.50,2.71,2.04,928.72
5.474,-0.26,0.07,-0.51,2.91,4.63,-3.16,-2.50,2.71,2.04,928.72
5.521,-0.26,0.07,-0.51,2.91,4.63,-3.16,-2.28,1.99,1.26,928.72
5.535,-0.26,0.07,-0.51,2.04,6.59,-4.56,-2.28,1.99,1.26,928.72
5.535,-0.04,-0.03,-0.27,2.04,6.59,-4.56,-2.28,1.99,1.26,928.72
5.538,-0.04,-0.03,-0.27,2.04,6.59,-4.56,-2.28,1.99,1.26,928.72
5.584,-0.04,-0.03,-0.27,2.04,6.59,-4.56,-1.72,0.67,0.97,928.72
5.599,0.16,0.07,-0.16,2.04,6.59,-4.56,-1.72,0.67,0.97,928.72
5.6,0.16,0.07,-0.16,0.79,6.18,-4.90,-1.72,0.67,0.97,928.72
5.605,0.16,0.07,-0.16,0.79,6.18,-4.90,-1.72,0.67,0.97,928.72
5.651,0.16,0.07,-0.16,0.79,6.18,-4.90,-1.31,0.88,1.06,928.72
5.662,0.06,0.25,-0.34,0.79,6.18,-4.90,-1.31,0.88,1.06,928.72
5.662,0.06,0.25,-0.34,2.55,4.71,-2.44,-1.31,0.88,1.06,928.72
5.672,0.06,0.25,-0.34,2.55,4.71,-2.44,-1.31,0.88,1.06,928.74
5.71,0.06,0.25,-0.34,2.55,4.71,-2.44,-1.04,0.88,1.60,928.74
5.726,0.06,0.25,-0.34,3.07,-0.27,1.38,-1.04,0.88,1.60,928.74
5.727,0.12,0.76,-0.66,3.07,-0.27,1.38,-1.04,0.88,1.60,928.74
5.738,0.12,0.76,-0.66,3.07,-0.27,1.38,-1.04,0.88,1.60,928.74
5.778,0.12,0.76,-0.66,3.07,-0.27,1.38,-0.95,-0.97,2.31,928.74
5.803,0.54,0.79,-0.61,3.07,-0.27,1.38,-0.95,-0.97,2.31,928.74
5.804,0.54,0.79,-0.61,-0.52,-1.01,0.88,-0.95,-0.97,2.31,928.74
5.806,0.54,0.79,-0.61,-0.52,-1.01,0.88,-0.95,-0.97,2.31,928.70
5.838,0.54,0.79,-0.61,-0.52,-1.01,0.88,-0.53,-2.66,2.21,928.70
5.853,0.90,0.57,-0.66,-0.52,-1.01,0.88,-0.53,-2.66,2.21,928.70
5.854,0.90,0.57,-0.66,-3.99,0.65,0.75,-0.53,-2.66,2.21,928.70
5.872,0.90,0.57,-0.66,-3.99,0.65,0.75,-0.53,-2.66,2.21,928.70
5.901,0.90,0.57,-0.66,-3.99,0.65,0.75,-0.60,-2.00,1.67,928.70
5.915,0.90,0.57,-0.66,2.61,3.72,-2.68,-0.60,-2.00,1.67,928.70
5.915,0.21,0.23,-0.35,2.61,3.72,-2.68,-0.60,-2.00,1.67,928.70
5.938,0.21,0.23,-0.35,2.61,3.72,-2.68,-0.60,-2.00,1.67,928.72
5.963,0.21,0.23,-0.35,2.61,3.72,-2.68,-0.42,-1.87,1.31,928.72
5.978,0.52,0.09,-0.20,2.61,3.72,-2.68,-0.42,-1.87,1.31,928.72
5.979,0.52,0.09,-0.20,-0.59,4.86,-4.50,-0.42,-1.87,1.31,928.72
6.011,0.52,0.09,-0.20,-0.59,4.86,-4.50,-0.42,-1.87,1.31,928.72
6.036,0.52,0.09,-0.20,-0.59,4.86,-4.50,-0.10,-0.74,1.05,928.72
6.044,0.52,0.09,-0.20,-5.87,5.64,1.36,-0.10,-0.74,1.05,928.72
6.044,1.06,-0.02,-0.82,-5.87,5.64,1.36,-0.10,-0.74,1.05,928.72
6.071,1.06,-0.02,-0.82,-5.87,5.64,1.36,-0.10,-0.74,1.05,928.63
6.09,1.06,-0.02,-0.82,-5.87,5.64,1.36,0.08,-0.30,0.09,928.63
6.105,1.76,-0.01,-0.83,-5.87,5.64,1.36,0.08,-0.30,0.09,928.63
6.106,1.76,-0.01,-0.83,-12.70,5.57,1.52,0.08,-0.30,0.09,928.63
6.144,1.76,-0.01,-0.83,-12.70,5.57,1.52,0.08,-0.30,0.09,928.63
6.166,1.76,-0.01,-0.83,-12.70,5.57,1.52,-0.07,-0.35,-2.16,928.63
6.168,1.80,-0.69,-0.61,-12.70,5.57,1.52,-0.07,-0.35,-2.16,928.63
6.168,1.80,-0.69,-0.61,-14.29,12.91,-0.79,-0.07,-0.35,-2.16,928.63
6.205,1.80,-0.69,-0.61,-14.29,12.91,-0.79,-0.07,-0.35,-2.16,928.63
6.216,1.80,-0.69,-0.61,-14.29,12.91,-0.79,-0.58,-0.86,-5.12,928.63
6.231,0.55,-0.95,0.11,-14.29,12.91,-0.79,-0.58,-0.86,-5.12,928.63
6.232,0.55,-0.95,0.11,-4.86,16.41,-7.77,-0.58,-0.86,-5.12,928.63
6.282,0.55,-0.95,0.11,-4.86,16.41,-7.77,-0.58,-0.86,-5.12,928.58
6.284,0.55,-0.95,0.11,-4.86,16.41,-7.77,-0.42,-2.95,-6.73,928.58
6.307,-0.17,-1.11,0.33,-4.86,16.41,-7.77,-0.42,-2.95,-6.73,928.58
6.308,-0.17,-1.11,0.33,-2.16,17.41,-9.38,-0.42,-2.95,-6.73,928.58
6.338,-0.17,-1.11,0.33,-2.16,17.41,-9.38,-0.42,-2.95,-6.73,928.58
6.342,-0.17,-1.11,0.33,-2.16,17.41,-9.38,-0.63,-3.09,-7.37,928.58
6.359,-0.84,-1.38,0.22,-2.16,17.41,-9.38,-0.63,-3.09,-7.37,928.58
6.359,-0.84,-1.38,0.22,0.78,17.53,-7.18,-0.63,-3.09,-7.37,928.58
6.405,-0.84,-1.38,0.22,0.78,17.53,-7.18,-0.63,-3.09,-7.37,928.61
6.409,-0.84,-1.38,0.22,0.78,17.53,-7.18,-1.26,-1.99,-7.01,928.61
6.431,-0.84,-1.38,0.22,10.82,15.97,-2.32,-1.26,-1.99,-7.01,928.61
6.431,-2.04,-1.55,-0.13,10.82,15.97,-2.32,-1.26,-1.99,-7.01,928.61
6.47,-2.04,-1.55,-0.13,10.82,15.97,-2.32,-2.32,-2.36,-5.80,928.61
6.472,-2.04,-1.55,-0.13,10.82,15.97,-2.32,-2.32,-2.36,-5.80,928.61
6.484,-1.91,-1.43,-0.04,10.82,15.97,-2.32,-2.32,-2.36,-5.80,928.61
6.484,-1.91,-1.43,-0.04,9.37,11.93,-1.97,-2.32,-2.36,-5.80,928.61
6.534,-1.91,-1.43,-0.04,9.37,11.93,-1.97,-2.24,-1.83,-4.63,928.61
6.538,-1.91,-1.43,-0.04,9.37,11.93,-1.97,-2.24,-1.83,-4.63,928.63
6.548,-1.91,-1.29,0.03,9.37,11.93,-1.97,-2.24,-1.83,-4.63,928.63
6.549,-1.91,-1.29,0.03,10.06,8.31,-2.07,-2.24,-1.83,-4.63,928.63
6.598,-1.91,-1.29,0.03,10.06,8.31,-2.07,-1.48,-2.24,-3.07,928.63
6.615,-1.91,-1.29,0.03,10.06,8.31,-2.07,-1.48,-2.24,-3.07,928.63
6.616,-1.77,-0.99,0.20,10.06,8.31,-2.07,-1.48,-2.24,-3.07,928.63
6.617,-1.77,-0.99,0.20,9.32,4.05,-2.89,-1.48,-2.24,-3.07,928.63
6.659,-1.77,-0.99,0.20,9.32,4.05,-2.89,-0.55,-1.54,-1.78,928.63
6.671,-1.77,-0.99,0.20,9.32,4.05,-2.89,-0.55,-1.54,-1.78,928.63
6.675,-1.77,-0.99,0.20,8.90,0.52,-2.43,-0.55,-1.54,-1.78,928.63
6.676,-1.67,-0.71,0.20,8.90,0.52,-2.43,-0.55,-1.54,-1.78,928.63
6.724,-1.67,-0.71,0.20,8.90,0.52,-2.43,-0.01,-0.46,-0.70,928.63
6.739,-1.67,-0.71,0.20,9.97,-1.81,-0.55,-0.01,-0.46,-0.70,928.63
6.74,-1.76,-0.50,0.03,9.97,-1.81,-0.55,-0.01,-0.46,-0.70,928.63
6.74,-1.76,-0.50,0.03,9.97,-1.81,-0.55,-0.01,-0.46,-0.70,928.67
6.786,-1.76,-0.50,0.03,9.97,-1.81,-0.55,-0.03,-0.37,0.28,928.67
6.801,-1.76,-0.50,0.03,8.78,-2.71,0.20,-0.03,-0.37,0.28,928.67
6.802,-1.66,-0.38,-0.03,8.78,-2.71,0.20,-0.03,-0.37,0.28,928.67
6.805,-1.66,-0.38,-0.03,8.78,-2.71,0.20,-0.03,-0.37,0.28,928.67
6.851,-1.66,-0.38,-0.03,8.78,-2.71,0.20,-0.31,-0.14,1.24,928.67
6.871,-1.66,-0.38,-0.03,5.82,-1.96,0.23,-0.31,-0.14,1.24,928.67
6.872,-1.41,-0.39,-0.04,5.82,-1.96,0.23,-0.31,-0.14,1.24,928.67
6.872,-1.41,-0.39,-0.04,5.82,-1.96,0.23,-0.31,-0.14,1.24,928.66
6.913,-1.41,-0.39,-0.04,5.82,-1.96,0.23,-0.44,0.35,1.85,928.66
6.928,-1.50,-0.34,-0.15,5.82,-1.96,0.23,-0.44,0.35,1.85,928.66
6.928,-1.50,-0.34,-0.15,6.07,-1.42,0.96,-0.44,0.35,1.85,928.66
6.94,-1.50,-0.34,-0.15,6.07,-1.42,0.96,-0.44,0.35,1.85,928.66
6.98,-1.50,-0.34,-0.15,6.07,-1.42,0.96,-0.83,0.45,2.53,928.66
7.004,-1.50,-0.34,-0.15,16.21,1.57,2.96,-0.83,0.45,2.53,928.66
7.005,-2.60,-0.48,-0.40,16.21,1.57,2.96,-0.83,0.45,2.53,928.66
7.006,-2.60,-0.48,-0.40,16.21,1.57,2.96,-0.83,0.45,2.53,928.61
7.039,-2.60,-0.48,-0.40,16.21,1.57,2.96,-1.23,-1.81,4.51,928.61
7.055,-3.09,-1.79,0.47,16.21,1.57,2.96,-1.23,-1.81,4.51,928.61
7.056,-3.09,-1.79,0.47,20.41,17.40,-4.41,-1.23,-1.81,4.51,928.61
7.072,-3.09,-1.79,0.47,20.41,17.40,-4.41,-1.23,-1.81,4.51,928.61
7.104,-3.09,-1.79,0.47,20.41,17.40,-4.41,2.34,-2.15,5.30,928.61
7.118,-1.57,-1.35,0.91,20.41,17.40,-4.41,2.34,-2.15,5.30,928.61
7.119,-1.57,-1.35,0.91,6.09,16.36,-7.97,2.34,-2.15,5.30,928.61
7.149,-1.57,-1.35,0.91,6.09,16.36,-7.97,2.34,-2.15,5.30,928.73
7.18,-1.57,-1.35,0.91,6.09,16.36,-7.97,4.00,1.71,4.47,928.73
7.183,-1.57,-1.35,0.91,2.89,9.43,-3.15,4.00,1.71,4.47,928.73
7.183,-1.11,-0.40,0.20,2.89,9.43,-3.15,4.00,1.71,4.47,928.73
7.205,-1.11,-0.40,0.20,2.89,9.43,-3.15,4.00,1.71,4.47,928.73
7.229,-1.11,-0.40,0.20,2.89,9.43,-3.15,3.01,1.52,5.13,928.73
7.244,-1.11,-0.40,0.20,3.82,18.12,-4.31,3.01,1.52,5.13,928.73
7.244,-0.97,-1.10,0.14,3.82,18.12,-4.31,3.01,1.52,5.13,928.73
7.272,-0.97,-1.10,0.14,3.82,18.12,-4.31,3.01,1.52,5.13,928.73
7.296,-0.97,-1.10,0.14,3.82,18.12,-4.31,2.37,-1.39,6.16,928.73
7.307,-0.97,-1.10,0.14,3.31,22.98,-7.60,2.37,-1.39,6.16,928.73
7.308,-0.64,-1.48,0.40,3.31,22.98,-7.60,2.37,-1.39,6.16,928.73
7.339,-0.64,-1.48,0.40,3.31,22.98,-7.60,2.37,-1.39,6.16,928.75
7.356,-0.64,-1.48,0.40,3.31,22.98,-7.60,2.68,-2.72,6.24,928.75
7.372,-0.64,-1.48,0.40,-0.09,22.59,-7.32,2.68,-2.72,6.24,928.75
7.373,-0.02,-1.45,0.24,-0.09,22.59,-7.32,2.68,-2.72,6.24,928.75
7.415,-0.02,-1.45,0.24,-0.09,22.59,-7.32,2.68,-2.72,6.24,928.75
7.444,-0.02,-1.45,0.24,-0.09,22.59,-7.32,3.42,-1.70,4.67,928.75
7.445,0.51,-1.10,-0.07,-0.09,22.59,-7.32,3.42,-1.70,4.67,928.75
7.445,0.51,-1.10,-0.07,-3.78,17.66,-6.11,3.42,-1.70,4.67,928.75
7.472,0.51,-1.10,-0.07,-3.78,17.66,-6.11,3.42,-1.70,4.67,928.68
7.482,0.51,-1.10,-0.07,-3.78,17.66,-6.11,1.07,-5.04,1.54,928.68
7.497,1.93,-1.93,-4.26,-3.78,17.66,-6.11,1.07,-5.04,1.54,928.68
7.498,1.93,-1.93,-4.26,-19.10,25.64,34.67,1.07,-5.04,1.54,928.68
7.54,1.93,-1.93,-4.26,-19.10,25.64,34.67,1.07,-5.04,1.54,928.68
7.546,1.93,-1.93,-4.26,-19.10,25.64,34.67,-0.55,6.63,-1.90,928.68
7.562,1.15,-0.15,-2.74,-19.10,25.64,34.67,-0.55,6.63,-1.90,928.68
7.563,1.15,-0.15,-2.74,-9.98,8.55,20.34,-0.55,6.63,-1.90,928.68
7.606,1.15,-0.15,-2.74,-9.98,8.55,20.34,-0.55,6.63,-1.90,928.29
7.609,1.15,-0.15,-2.74,-9.98,8.55,20.34,-2.17,1.65,-3.78,928.29
7.624,1.15,-0.15,-2.74,-19.81,15.44,16.01,-2.17,1.65,-3.78,928.29
7.626,2.02,-0.74,-2.16,-19.81,15.44,16.01,-2.17,1.65,-3.78,928.29
7.685,2.02,-0.74,-2.16,-19.81,15.44,16.01,-2.17,1.65,-3.78,928.29
7.687,2.02,-0.74,-2.16,-19.81,15.44,16.01,-4.69,-0.22,-8.97,928.29
7.71,-0.53,-2.65,0.41,-19.81,15.44,16.01,-4.69,-0.22,-8.97,928.29
7.711,-0.53,-2.65,0.41,-0.22,33.79,-6.26,-4.69,-0.22,-8.97,928.29
7.735,-0.53,-2.65,0.41,-0.22,33.79,-6.26,-6.13,-0.70,-9.15,928.29
7.738,-0.53,-2.65,0.41,-0.22,33.79,-6.26,-6.13,-0.70,-9.15,928.29
7.751,-0.75,-3.50,1.02,-0.22,33.79,-6.26,-6.13,-0.70,-9.15,928.29
7.752,-0.75,-3.50,1.02,-1.52,38.50,-10.24,-6.13,-0.70,-9.15,928.29
7.799,-0.75,-3.50,1.02,-1.52,38.50,-10.24,-3.74,3.67,-5.09,928.29
7.816,-0.75,-3.50,1.02,-1.52,38.50,-10.24,-3.74,3.67,-5.09,928.40
7.817,-1.55,-2.30,0.56,-1.52,38.50,-10.24,-3.74,3.67,-5.09,928.40
7.818,-1.55,-2.30,0.56,5.52,24.06,-6.78,-3.74,3.67,-5.09,928.40
7.862,-1.55,-2.30,0.56,5.52,24.06,-6.78,-1.99,-0.59,-4.86,928.40
7.873,-1.55,-2.30,0.56,5.52,24.06,-6.78,-1.99,-0.59,-4.86,928.40
7.878,-1.83,-1.10,0.57,5.52,24.06,-6.78,-1.99,-0.59,-4.86,928.40
7.879,-1.83,-1.10,0.57,8.22,9.48,-6.29,-1.99,-0.59,-4.86,928.40
7.926,-1.83,-1.10,0.57,8.22,9.48,-6.29,-0.80,-0.89,-3.18,928.40
7.939,-1.83,-1.10,0.57,8.22,9.48,-6.29,-0.80,-0.89,-3.18,928.37
7.941,-3.17,0.45,0.36,8.22,9.48,-6.29,-0.80,-0.89,-3.18,928.37
7.941,-3.17,0.45,0.36,21.60,-7.35,-3.99,-0.80,-0.89,-3.18,928.37
7.992,-3.17,0.45,0.36,21.60,-7.35,-3.99,-1.25,0.44,-0.44,928.37
8.004,-4.31,-0.45,0.61,21.60,-7.35,-3.99,-1.25,0.44,-0.44,928.37
8.005,-4.31,-0.45,0.61,32.82,1.54,-6.87,-1.25,0.44,-0.44,928.37
8.007,-4.31,-0.45,0.61,32.82,1.54,-6.87,-1.25,0.44,-0.44,928.37
8.053,-4.31,-0.45,0.61,32.82,1.54,-6.87,1.28,-1.05,0.54,928.37
8.067,-4.60,-1.43,0.85,32.82,1.54,-6.87,1.28,-1.05,0.54,928.37
8.069,-4.60,-1.43,0.85,35.53,11.44,-7.94,1.28,-1.05,0.54,928.37
8.073,-4.60,-1.43,0.85,35.53,11.44,-7.94,1.28,-1.05,0.54,928.58
8.118,-4.60,-1.43,0.85,35.53,11.44,-7.94,4.89,-2.45,1.89,928.58
8.141,-3.39,-0.68,0.69,35.53,11.44,-7.94,4.89,-2.45,1.89,928.58
8.142,-3.39,-0.68,0.69,23.58,5.91,-4.69,4.89,-2.45,1.89,928.58
8.143,-3.39,-0.68,0.69,23.58,5.91,-4.69,4.89,-2.45,1.89,928.58
8.179,-3.39,-0.68,0.69,23.58,5.91,-4.69,5.76,2.02,5.40,928.58
8.195,-1.81,-1.05,0.49,23.58,5.91,-4.69,5.76,2.02,5.40,928.58
8.196,-1.81,-1.05,0.49,8.48,13.55,-4.58,5.76,2.02,5.40,928.58
8.206,-1.81,-1.05,0.49,8.48,13.55,-4.58,5.76,2.02,5.40,928.58
8.248,-1.81,-1.05,0.49,8.48,13.55,-4.58,4.40,3.68,7.60,928.58
8.276,-1.11,-1.73,0.91,8.48,13.55,-4.58,4.40,3.68,7.60,928.58
8.277,-1.11,-1.73,0.91,4.48,23.76,-11.88,4.40,3.68,7.60,928.58
8.277,-1.11,-1.73,0.91,4.48,23.76,-11.88,4.40,3.68,7.60,928.53
8.305,-1.11,-1.73,0.91,4.48,23.76,-11.88,3.05,0.73,7.95,928.53
8.32,-1.01,-1.68,0.93,4.48,23.76,-11.88,3.05,0.73,7.95,928.53
8.321,-1.01,-1.68,0.93,7.37,24.70,-13.69,3.05,0.73,7.95,928.53
8.339,-1.01,-1.68,0.93,7.37,24.70,-13.69,3.05,0.73,7.95,928.53
8.37,-1.01,-1.68,0.93,7.37,24.70,-13.69,2.57,-1.05,7.13,928.53
8.385,-1.01,-1.68,0.93,6.39,22.71,-11.60,2.57,-1.05,7.13,928.53
8.387,-0.58,-1.53,0.59,6.39,22.71,-11.60,2.57,-1.05,7.13,928.53
8.414,-0.58,-1.53,0.59,6.39,22.71,-11.60,2.57,-1.05,7.13,928.61
8.432,-0.58,-1.53,0.59,6.39,22.71,-11.60,2.43,-1.85,4.86,928.61
8.446,0.45,-1.17,-1.09,6.39,22.71,-11.60,2.43,-1.85,4.86,928.61
8.446,0.45,-1.17,-1.09,-2.47,17.82,3.58,2.43,-1.85,4.86,928.61
8.472,0.45,-1.17,-1.09,-2.47,17.82,3.58,2.43,-1.85,4.86,928.61
8.497,0.45,-1.17,-1.09,-2.47,17.82,3.58,0.34,-3.69,1.40,928.61
8.518,2.25,-2.37,-4.66,-2.47,17.82,3.58,0.34,-3.69,1.40,928.61
8.519,2.25,-2.37,-4.66,-21.44,29.34,38.14,0.34,-3.69,1.40,928.61
8.546,2.25,-2.37,-4.66,-21.44,29.34,38.14,0.34,-3.69,1.40,928.39
8.559,2.25,-2.37,-4.66,-21.44,29.34,38.14,1.07,6.55,-2.17,928.39
8.573,1.65,-1.48,-1.93,-21.44,29.34,38.14,1.07,6.55,-2.17,928.39
8.574,1.65,-1.48,-1.93,-13.23,20.64,12.00,1.07,6.55,-2.17,928.39
8.605,1.65,-1.48,-1.93,-13.23,20.64,12.00,1.07,6.55,-2.17,928.39
8.623,1.65,-1.48,-1.93,-13.23,20.64,12.00,-2.93,-0.68,-6.77,928.39
8.637,0.56,-2.50,-0.12,-13.23,20.64,12.00,-2.93,-0.68,-6.77,928.39
8.638,0.56,-2.50,-0.12,-6.51,32.56,-4.12,-2.93,-0.68,-6.77,928.39
8.675,0.56,-2.50,-0.12,-6.51,32.56,-4.12,-2.93,-0.68,-6.77,928.39
8.686,0.56,-2.50,-0.12,-6.51,32.56,-4.12,-5.70,-2.63,-8.57,928.39
8.7,0.56,-2.50,-0.12,-1.45,35.16,-12.69,-5.70,-2.63,-8.57,928.39
8.701,-0.48,-2.83,1.12,-1.45,35.16,-12.69,-5.70,-2.63,-8.57,928.39
8.739,-0.48,-2.83,1.12,-1.45,35.16,-12.69,-5.70,-2.63,-8.57,928.39
8.749,-0.48,-2.83,1.12,-1.45,35.16,-12.69,-6.57,-0.65,-7.88,928.39
8.764,-0.73,-3.27,1.21,-1.45,35.16,-12.69,-6.57,-0.65,-7.88,928.39
8.765,-0.73,-3.27,1.21,-1.89,35.77,-11.14,-6.57,-0.65,-7.88,928.39
8.806,-0.73,-3.27,1.21,-1.89,35.77,-11.14,-6.57,-0.65,-7.88,928.39
8.813,-0.73,-3.27,1.21,-1.89,35.77,-11.14,-5.71,2.21,-7.23,928.39
8.828,-0.73,-3.27,1.21,5.61,30.37,-7.02,-5.71,2.21,-7.23,928.39
8.829,-1.57,-3.18,0.72,5.61,30.37,-7.02,-5.71,2.21,-7.23,928.39
8.872,-1.57,-3.18,0.72,5.61,30.37,-7.02,-5.71,2.21,-7.23,928.33
8.875,-1.57,-3.18,0.72,5.61,30.37,-7.02,-3.62,0.75,-5.97,928.33
8.891,-3.32,-1.11,0.33,5.61,30.37,-7.02,-3.62,0.75,-5.97,928.33
8.892,-3.32,-1.11,0.33,23.56,6.99,-4.03,-3.62,0.75,-5.97,928.33
8.94,-3.32,-1.11,0.33,23.56,6.99,-4.03,-2.34,-1.75,-2.17,928.33
8.943,-3.32,-1.11,0.33,23.56,6.99,-4.03,-2.34,-1.75,-2.17,928.33
8.956,-3.32,-1.11,0.33,39.77,5.12,-6.87,-2.34,-1.75,-2.17,928.33
8.956,-4.94,-1.01,0.67,39.77,5.12,-6.87,-2.34,-1.75,-2.17,928.33
9.003,-4.94,-1.01,0.67,39.77,5.12,-6.87,0.66,0.22,-0.03,928.33
9.006,-4.94,-1.01,0.67,39.77,5.12,-6.87,0.66,0.22,-0.03,928.22
9.017,-4.56,-1.89,0.91,39.77,5.12,-6.87,0.66,0.22,-0.03,928.22
9.018,-4.56,-1.89,0.91,36.01,13.84,-9.39,0.66,0.22,-0.03,928.22
9.066,-4.56,-1.89,0.91,36.01,13.84,-9.39,2.81,2.38,1.91,928.22
9.072,-4.56,-1.89,0.91,36.01,13.84,-9.39,2.81,2.38,1.91,928.22
9.08,-4.10,-0.32,-0.22,36.01,13.84,-9.39,2.81,2.38,1.91,928.22
9.081,-4.10,-0.32,-0.22,30.95,-0.31,1.32,2.81,2.38,1.91,928.22
9.129,-4.10,-0.32,-0.22,30.95,-0.31,1.32,1.55,-1.46,5.07,928.22
9.138,-4.10,-0.32,-0.22,30.95,-0.31,1.32,1.55,-1.46,5.07,928.13
9.143,-2.54,-0.62,0.16,30.95,-0.31,1.32,1.55,-1.46,5.07,928.13
9.144,-2.54,-0.62,0.16,15.07,5.92,-1.02,1.55,-1.46,5.07,928.13
9.193,-2.54,-0.62,0.16,15.07,5.92,-1.02,2.45,-2.32,7.19,928.13
9.206,-2.54,-0.62,0.16,15.07,5.92,-1.02,2.45,-2.32,7.19,928.13
9.207,-1.38,-2.49,0.88,15.07,5.92,-1.02,2.45,-2.32,7.19,928.13
9.209,-1.38,-2.49,0.88,4.85,28.74,-7.14,2.45,-2.32,7.19,928.13
9.256,-1.38,-2.49,0.88,4.85,28.74,-7.14,4.40,-1.81,7.16,928.13
9.272,-1.38,-2.49,0.88,3.04,34.44,-8.73,4.40,-1.81,7.16,928.13
9.273,-0.90,-2.71,0.94,3.04,34.44,-8.73,4.40,-1.81,7.16,928.13
9.274,-0.90,-2.71,0.94,3.04,34.44,-8.73,4.40,-1.81,7.16,928.13
9.32,-0.90,-2.71,0.94,3.04,34.44,-8.73,5.19,-3.38,6.69,928.13
9.338,-0.90,-2.71,0.94,4.91,32.71,-10.36,5.19,-3.38,6.69,928.13
9.34,-0.73,-2.38,0.89,4.91,32.71,-10.36,5.19,-3.38,6.69,928.13
9.373,-0.73,-2.38,0.89,4.91,32.71,-10.36,5.19,-3.38,6.69,928.29
9.381,-0.73,-2.38,0.89,4.91,32.71,-10.36,5.88,-2.58,5.55,928.29
9.396,-0.34,-2.03,0.38,4.91,32.71,-10.36,5.88,-2.58,5.55,928.29
9.396,-0.34,-2.03,0.38,3.70,28.33,-8.68,5.88,-2.58,5.55,928.29
9.405,-0.34,-2.03,0.38,3.70,28.33,-8.68,5.88,-2.58,5.55,928.29
9.446,-0.34,-2.03,0.38,3.70,28.33,-8.68,5.28,-1.63,3.15,928.29
9.46,-0.34,-2.03,0.38,-8.05,19.37,40.95,5.28,-1.63,3.15,928.29
9.461,0.90,-1.30,-4.91,-8.05,19.37,40.95,5.28,-1.63,3.15,928.29
9.472,0.90,-1.30,-4.91,-8.05,19.37,40.95,5.28,-1.63,3.15,928.12
9.509,0.90,-1.30,-4.91,-8.05,19.37,40.95,-1.70,0.69,0.12,928.12
9.523,2.25,-1.46,-4.76,-8.05,19.37,40.95,-1.70,0.69,0.12,928.12
9.523,2.25,-1.46,-4.76,-20.19,21.63,40.53,-1.70,0.69,0.12,928.12
9.539,2.25,-1.46,-4.76,-20.19,21.63,40.53,-1.70,0.69,0.12,928.12
9.572,2.25,-1.46,-4.76,-20.19,21.63,40.53,-2.72,3.40,-5.00,928.12
9.587,2.25,-1.46,-4.76,-11.06,25.34,10.83,-2.72,3.40,-5.00,928.12
9.589,1.06,-1.69,-1.53,-11.06,25.34,10.83,-2.72,3.40,-5.00,928.12
9.606,1.06,-1.69,-1.53,-11.06,25.34,10.83,-2.72,3.40,-5.00,928.11
9.636,1.06,-1.69,-1.53,-11.06,25.34,10.83,-5.75,0.22,-8.35,928.11
9.649,-0.22,-3.46,0.45,-11.06,25.34,10.83,-5.75,0.22,-8.35,928.11
9.65,-0.22,-3.46,0.45,-3.10,42.05,-5.56,-5.75,0.22,-8.35,928.11
9.671,-0.22,-3.46,0.45,-3.10,42.05,-5.56,-5.75,0.22,-8.35,928.11
9.698,-0.22,-3.46,0.45,-3.10,42.05,-5.56,-4.35,3.22,-7.37,928.11
9.715,-0.22,-3.46,0.45,1.19,34.94,-6.83,-4.35,3.22,-7.37,928.11
9.717,-0.96,-3.03,0.61,1.19,34.94,-6.83,-4.35,3.22,-7.37,928.11
9.739,-0.96,-3.03,0.61,1.19,34.94,-6.83,-4.35,3.22,-7.37,928.11
9.763,-0.96,-3.03,0.61,1.19,34.94,-6.83,-3.87,1.42,-6.83,928.11
9.778,-0.96,-3.03,0.61,1.59,29.35,-6.55,-3.87,1.42,-6.83,928.11
9.779,-1.15,-2.84,0.63,1.59,29.35,-6.55,-3.87,1.42,-6.83,928.11
9.806,-1.15,-2.84,0.63,1.59,29.35,-6.55,-3.87,1.42,-6.83,928.21
9.825,-1.15,-2.84,0.63,1.59,29.35,-6.55,-3.80,-1.41,-6.31,928.21
9.84,-1.15,-2.84,0.63,0.95,20.51,-6.85,-3.80,-1.41,-6.31,928.21
9.841,-1.07,-2.33,0.74,0.95,20.51,-6.85,-3.80,-1.41,-6.31,928.21
9.872,-1.07,-2.33,0.74,0.95,20.51,-6.85,-3.80,-1.41,-6.31,928.21
9.89,-1.07,-2.33,0.74,0.95,20.51,-6.85,-1.88,0.47,-4.90,928.21
9.904,-2.52,-1.03,0.35,0.95,20.51,-6.85,-1.88,0.47,-4.90,928.21
9.905,-2.52,-1.03,0.35,16.18,5.16,-3.77,-1.88,0.47,-4.90,928.21
9.939,-2.52,-1.03,0.35,16.18,5.16,-3.77,-1.88,0.47,-4.90,928.29
9.952,-2.52,-1.03,0.35,16.18,5.16,-3.77,-1.45,1.15,-2.42,928.29
9.967,-5.17,-0.70,-0.05,16.18,5.16,-3.77,-1.45,1.15,-2.42,928.29
9.968,-5.17,-0.70,-0.05,42.84,1.07,-0.85,-1.45,1.15,-2.42,928.29
10.007,-5.17,-0.70,-0.05,42.84,1.07,-0.85,-1.45,1.15,-2.42,928.29
10.015,-5.17,-0.70,-0.05,42.84,1.07,-0.85,-1.73,-2.27,0.43,928.29
10.031,-5.29,-1.92,0.77,42.84,1.07,-0.85,-1.73,-2.27,0.43,928.29
10.032,-5.29,-1.92,0.77,43.52,13.44,-8.04,-1.73,-2.27,0.43,928.29
10.073,-5.29,-1.92,0.77,43.52,13.44,-8.04,-1.73,-2.27,0.43,928.54
10.08,-5.29,-1.92,0.77,43.52,13.44,-8.04,1.71,-1.79,1.95,928.54
10.093,-3.65,-1.47,1.05,43.52,13.44,-8.04,1.71,-1.79,1.95,928.54
10.094,-3.65,-1.47,1.05,26.80,10.34,-9.36,1.71,-1.79,1.95,928.54
10.139,-3.65,-1.47,1.05,26.80,10.34,-9.36,1.71,-1.79,1.95,928.54
10.152,-3.65,-1.47,1.05,26.80,10.34,-9.36,3.38,-1.41,3.83,928.54
10.156,-2.27,-0.98,0.92,26.80,10.34,-9.36,3.38,-1.41,3.83,928.54
10.156,-2.27,-0.98,0.92,12.83,8.31,-6.51,3.38,-1.41,3.83,928.54
10.205,-2.27,-0.98,0.92,12.83,8.31,-6.51,5.22,-1.59,5.52,928.54
10.206,-2.27,-0.98,0.92,12.83,8.31,-6.51,5.22,-1.59,5.52,928.60
10.219,-1.00,-2.23,1.02,12.83,8.31,-6.51,5.22,-1.59,5.52,928.60
10.221,-1.00,-2.23,1.02,0.89,24.79,-7.12,5.22,-1.59,5.52,928.60
10.268,-1.00,-2.23,1.02,0.89,24.79,-7.12,5.96,0.58,6.36,928.60
10.272,-1.00,-2.23,1.02,0.89,24.79,-7.12,5.96,0.58,6.36,928.60
10.283,-0.85,-2.51,0.92,0.89,24.79,-7.12,5.96,0.58,6.36,928.60
10.284,-0.85,-2.51,0.92,1.38,31.50,-8.31,5.96,0.58,6.36,928.60
10.331,-0.85,-2.51,0.92,1.38,31.50,-8.31,5.96,-1.17,6.59,928.60
10.338,-0.85,-2.51,0.92,1.38,31.50,-8.31,5.96,-1.17,6.59,928.60
10.345,-0.76,-2.18,0.70,1.38,31.50,-8.31,5.96,-1.17,6.59,928.60
10.346,-0.76,-2.18,0.70,3.81,30.25,-8.77,5.96,-1.17,6.59,928.60
10.397,-0.76,-2.18,0.70,3.81,30.25,-8.77,5.50,-1.85,5.94,928.60
10.411,-0.76,-2.18,0.70,3.81,30.25,-8.77,5.50,-1.85,5.94,928.69
10.412,-0.58,-1.97,0.44,3.81,30.25,-8.77,5.50,-1.85,5.94,928.69
10.412,-0.58,-1.97,0.44,4.86,27.77,-8.98,5.50,-1.85,5.94,928.69
10.458,-0.58,-1.97,0.44,4.86,27.77,-8.98,4.97,0.15,4.49,928.69
10.472,-0.58,-1.97,0.44,4.86,27.77,-8.98,4.97,0.15,4.49,928.69
10.472,0.30,-1.72,0.06,4.86,27.77,-8.98,4.97,0.15,4.49,928.69
10.473,0.30,-1.72,0.06,-1.32,23.40,-7.56,4.97,0.15,4.49,928.69
10.522,0.30,-1.72,0.06,-1.32,23.40,-7.56,0.48,-4.44,1.42,928.69
10.543,2.13,-2.59,-6.27,-1.32,23.40,-7.56,0.48,-4.44,1.42,928.69
10.544,2.13,-2.59,-6.27,-20.58,31.94,54.23,0.48,-4.44,1.42,928.69
10.545,2.13,-2.59,-6.27,-20.58,31.94,54.23,0.48,-4.44,1.42,928.61
10.585,2.13,-2.59,-6.27,-20.58,31.94,54.23,0.50,9.89,-0.66,928.61
10.599,2.58,-0.38,-1.95,-20.58,31.94,54.23,0.50,9.89,-0.66,928.61
10.601,2.58,-0.38,-1.95,-21.39,10.45,13.22,0.50,9.89,-0.66,928.61
10.605,2.58,-0.38,-1.95,-21.39,10.45,13.22,0.50,9.89,-0.66,928.61
10.648,2.58,-0.38,-1.95,-21.39,10.45,13.22,-1.93,-0.88,-6.43,928.61
10.663,0.57,-1.93,-0.57,-21.39,10.45,13.22,-1.93,-0.88,-6.43,928.61
10.664,0.57,-1.93,-0.57,-6.18,27.27,0.72,-1.93,-0.88,-6.43,928.61
10.672,0.57,-1.93,-0.57,-6.18,27.27,0.72,-1.93,-0.88,-6.43,928.50
10.711,0.57,-1.93,-0.57,-6.18,27.27,0.72,-5.08,-5.80,-9.73,928.50
10.727,-0.35,-2.81,1.47,-6.18,27.27,0.72,-5.08,-5.80,-9.73,928.50
10.728,-0.35,-2.81,1.47,-3.29,34.62,-15.28,-5.08,-5.80,-9.73,928.50
10.739,-0.35,-2.81,1.47,-3.29,34.62,-15.28,-5.08,-5.80,-9.73,928.50
10.774,-0.35,-2.81,1.47,-3.29,34.62,-15.28,-4.68,2.92,-7.06,928.50
10.789,-0.76,-2.74,0.69,-3.29,34.62,-15.28,-4.68,2.92,-7.06,928.50
10.789,-0.76,-2.74,0.69,-1.41,30.73,-8.28,-4.68,2.92,-7.06,928.50
10.805,-0.76,-2.74,0.69,-1.41,30.73,-8.28,-4.68,2.92,-7.06,928.50
10.837,-0.76,-2.74,0.69,-1.41,30.73,-8.28,-3.19,3.36,-6.81,928.50
10.852,-1.42,-2.43,0.42,-1.41,30.73,-8.28,-3.19,3.36,-6.81,928.50
10.852,-1.42,-2.43,0.42,4.30,24.11,-6.36,-3.19,3.36,-6.81,928.50
10.872,-1.42,-2.43,0.42,4.30,24.11,-6.36,-3.19,3.36,-6.81,928.44
10.901,-1.42,-2.43,0.42,4.30,24.11,-6.36,-3.46,-4.07,-6.60,928.44
10.915,-1.62,-1.61,0.44,4.30,24.11,-6.36,-3.46,-4.07,-6.60,928.44
10.915,-1.62,-1.61,0.44,6.56,12.54,-4.36,-3.46,-4.07,-6.60,928.44
10.939,-1.62,-1.61,0.44,6.56,12.54,-4.36,-3.46,-4.07,-6.60,928.44
10.965,-1.62,-1.61,0.44,6.56,12.54,-4.36,-2.13,-1.16,-3.43,928.44
10.979,-4.33,-0.90,0.58,6.56,12.54,-4.36,-2.13,-1.16,-3.43,928.44
10.98,-4.33,-0.90,0.58,33.90,3.92,-5.66,-2.13,-1.16,-3.43,928.44
11.006,-4.33,-0.90,0.58,33.90,3.92,-5.66,-2.13,-1.16,-3.43,928.43
11.028,-4.33,-0.90,0.58,33.90,3.92,-5.66,0.19,0.06,-1.13,928.43
11.043,-4.52,-1.93,0.94,33.90,3.92,-5.66,0.19,0.06,-1.13,928.43
11.044,-4.52,-1.93,0.94,36.01,13.54,-9.24,0.19,0.06,-1.13,928.43
11.072,-4.52,-1.93,0.94,36.01,13.54,-9.24,0.19,0.06,-1.13,928.43
11.091,-4.52,-1.93,0.94,36.01,13.54,-9.24,3.07,1.44,0.34,928.43
11.106,-4.36,-1.05,0.42,36.01,13.54,-9.24,3.07,1.44,0.34,928.43
11.106,-4.36,-1.05,0.42,34.14,5.29,-3.66,3.07,1.44,0.34,928.43
11.139,-4.36,-1.05,0.42,34.14,5.29,-3.66,3.07,1.44,0.34,928.41
11.164,-4.36,-1.05,0.42,34.14,5.29,-3.66,3.04,-1.55,3.78,928.41
11.169,-3.07,-0.26,0.38,34.14,5.29,-3.66,3.04,-1.55,3.78,928.41
11.169,-3.07,-0.26,0.38,20.73,0.29,-1.45,3.04,-1.55,3.78,928.41
11.206,-3.07,-0.26,0.38,20.73,0.29,-1.45,3.04,-1.55,3.78,928.41
11.217,-3.07,-0.26,0.38,20.73,0.29,-1.45,4.15,0.25,6.12,928.41
11.232,-1.08,-1.21,1.13,20.73,0.29,-1.45,4.15,0.25,6.12,928.41
11.233,-1.08,-1.21,1.13,1.09,14.00,-9.46,4.15,0.25,6.12,928.41
11.272,-1.08,-1.21,1.13,1.09,14.00,-9.46,4.15,0.25,6.12,928.41
11.281,-1.08,-1.21,1.13,1.09,14.00,-9.46,4.21,2.93,7.17,928.41
11.295,-1.06,-1.80,1.15,1.09,14.00,-9.46,4.21,2.93,7.17,928.41
11.295,-1.06,-1.80,1.15,2.82,23.80,-12.19,4.21,2.93,7.17,928.41
11.339,-1.06,-1.80,1.15,2.82,23.80,-12.19,4.21,2.93,7.17,928.50
11.344,-1.06,-1.80,1.15,2.82,23.80,-12.19,3.86,0.73,7.34,928.50
11.36,-0.90,-1.81,1.17,2.82,23.80,-12.19,3.86,0.73,7.34,928.50
11.36,-0.90,-1.81,1.17,4.70,26.11,-14.43,3.86,0.73,7.34,928.50
11.405,-0.90,-1.81,1.17,4.70,26.11,-14.43,3.86,0.73,7.34,928.50
11.407,-0.90,-1.81,1.17,4.70,26.11,-14.43,3.43,0.25,6.99,928.50
11.422,-0.68,-1.65,0.87,4.70,26.11,-14.43,3.43,0.25,6.99,928.50
11.422,-0.68,-1.65,0.87,6.37,24.62,-13.31,3.43,0.25,6.99,928.50
11.47,-0.68,-1.65,0.87,6.37,24.62,-13.31,2.87,-0.62,4.96,928.50
11.472,-0.68,-1.65,0.87,6.37,24.62,-13.31,2.87,-0.62,4.96,928.61
11.485,0.55,-1.19,-0.71,6.37,24.62,-13.31,2.87,-0.62,4.96,928.61
11.487,0.55,-1.19,-0.71,-3.83,18.84,0.60,2.87,-0.62,4.96,928.61
11.534,0.55,-1.19,-0.71,-3.83,18.84,0.60,2.23,-0.86,-0.04,928.61
11.539,0.55,-1.19,-0.71,-3.83,18.84,0.60,2.23,-0.86,-0.04,928.61
11.549,3.29,-1.84,-4.86,-3.83,18.84,0.60,2.23,-0.86,-0.04,928.61
11.549,3.29,-1.84,-4.86,-31.33,24.34,40.33,2.23,-0.86,-0.04,928.61
11.598,3.29,-1.84,-4.86,-31.33,24.34,40.33,0.33,3.92,-3.46,928.61
11.606,3.29,-1.84,-4.86,-31.33,24.34,40.33,0.33,3.92,-3.46,928.33
11.612,3.29,-1.84,-4.86,-18.91,18.09,16.12,0.33,3.92,-3.46,928.33
11.614,2.08,-1.16,-2.35,-18.91,18.09,16.12,0.33,3.92,-3.46,928.33
11.663,2.08,-1.16,-2.35,-18.91,18.09,16.12,-2.78,-0.26,-7.22,928.33
11.674,2.08,-1.16,-2.35,-18.91,18.09,16.12,-2.78,-0.26,-7.22,928.33
11.676,2.08,-1.16,-2.35,-5.38,25.18,-0.98,-2.78,-0.26,-7.22,928.33
11.676,0.28,-1.77,-0.42,-5.38,25.18,-0.98,-2.78,-0.26,-7.22,928.33
11.725,0.28,-1.77,-0.42,-5.38,25.18,-0.98,-6.07,-2.49,-7.93,928.33
11.74,-0.41,-2.77,0.73,-5.38,25.18,-0.98,-6.07,-2.49,-7.93,928.33
11.741,-0.41,-2.77,0.73,-2.81,34.03,-8.68,-6.07,-2.49,-7.93,928.33
11.742,-0.41,-2.77,0.73,-2.81,34.03,-8.68,-6.07,-2.49,-7.93,928.49
11.788,-0.41,-2.77,0.73,-2.81,34.03,-8.68,-5.26,1.26,-5.89,928.49
11.815,-0.75,-2.67,0.80,-2.81,34.03,-8.68,-5.26,1.26,-5.89,928.49
11.816,-0.75,-2.67,0.80,-1.51,30.36,-8.45,-5.26,1.26,-5.89,928.49
11.816,-0.75,-2.67,0.80,-1.51,30.36,-8.45,-5.26,1.26,-5.89,928.49
11.851,-0.75,-2.67,0.80,-1.51,30.36,-8.45,-3.83,0.41,-5.48,928.49
11.868,-0.75,-2.67,0.80,-0.72,21.46,-6.37,-3.83,0.41,-5.48,928.49
11.869,-0.93,-2.08,0.68,-0.72,21.46,-6.37,-3.83,0.41,-5.48,928.49
11.872,-0.93,-2.08,0.68,-0.72,21.46,-6.37,-3.83,0.41,-5.48,928.49
11.914,-0.93,-2.08,0.68,-0.72,21.46,-6.37,-2.73,-2.71,-4.99,928.49
11.942,-0.93,-2.08,0.68,-2.15,11.85,-6.77,-2.73,-2.71,-4.99,928.49
11.944,-0.75,-1.43,0.86,-2.15,11.85,-6.77,-2.73,-2.71,-4.99,928.49
11.944,-0.75,-1.43,0.86,-2.15,11.85,-6.77,-2.73,-2.71,-4.99,928.51
11.98,-0.75,-1.43,0.86,-2.15,11.85,-6.77,-1.30,2.23,-3.71,928.51
11.992,-3.59,-0.09,0.25,-2.15,11.85,-6.77,-1.30,2.23,-3.71,928.51
11.992,-3.59,-0.09,0.25,26.19,-3.30,-2.44,-1.30,2.23,-3.71,928.51
12.006,-3.59,-0.09,0.25,26.19,-3.30,-2.44,-1.30,2.23,-3.71,928.51
12.041,-3.59,-0.09,0.25,26.19,-3.30,-2.44,-1.99,-1.91,-0.94,928.51
12.056,-4.76,-1.16,0.87,26.19,-3.30,-2.44,-1.99,-1.91,-0.94,928.51
12.057,-4.76,-1.16,0.87,37.84,6.92,-7.57,-1.99,-1.91,-0.94,928.51
12.073,-4.76,-1.16,0.87,37.84,6.92,-7.57,-1.99,-1.91,-0.94,928.55
12.104,-4.76,-1.16,0.87,37.84,6.92,-7.57,1.75,0.12,0.07,928.55
12.119,-3.73,-1.79,1.16,37.84,6.92,-7.57,1.75,0.12,0.07,928.55
12.119,-3.73,-1.79,1.16,27.67,13.31,-10.36,1.75,0.12,0.07,928.55
12.14,-3.73,-1.79,1.16,27.67,13.31,-10.36,1.75,0.12,0.07,928.55
12.168,-3.73,-1.79,1.16,27.67,13.31,-10.36,2.63,0.13,1.61,928.55
12.183,-3.86,0.05,0.49,27.67,13.31,-10.36,2.63,0.13,1.61,928.55
12.184,-3.86,0.05,0.49,28.57,-3.37,-2.71,2.63,0.13,1.61,928.55
12.207,-3.86,0.05,0.49,28.57,-3.37,-2.71,2.63,0.13,1.61,928.53
12.232,-3.86,0.05,0.49,28.57,-3.37,-2.71,3.49,-3.38,4.29,928.53
12.247,-3.86,0.05,0.49,8.66,10.26,-6.50,3.49,-3.38,4.29,928.53
12.248,-1.80,-0.98,1.08,8.66,10.26,-6.50,3.49,-3.38,4.29,928.53
12.273,-1.80,-0.98,1.08,8.66,10.26,-6.50,3.49,-3.38,4.29,928.53
12.295,-1.80,-0.98,1.08,8.66,10.26,-6.50,5.73,0.89,5.73,928.53
12.309,-1.80,-0.98,1.08,1.01,24.95,-8.37,5.73,0.89,5.73,928.53
12.31,-0.93,-2.03,1.09,1.01,24.95,-8.37,5.73,0.89,5.73,928.53
12.34,-0.93,-2.03,1.09,1.01,24.95,-8.37,5.73,0.89,5.73,928.53
12.36,-0.93,-2.03,1.09,1.01,24.95,-8.37,5.62,0.44,6.40,928.53
12.373,-0.85,-2.08,0.88,1.01,24.95,-8.37,5.62,0.44,6.40,928.53
12.373,-0.85,-2.08,0.88,2.88,28.57,-8.74,5.62,0.44,6.40,928.53
12.407,-0.85,-2.08,0.88,2.88,28.57,-8.74,5.62,0.44,6.40,928.60
12.421,-0.85,-2.08,0.88,2.88,28.57,-8.74,5.00,-0.44,6.38,928.60
12.435,-0.78,-1.91,0.71,2.88,28.57,-8.74,5.00,-0.44,6.38,928.60
12.437,-0.78,-1.91,0.71,5.74,27.84,-9.72,5.00,-0.44,6.38,928.60
12.474,-0.78,-1.91,0.71,5.74,27.84,-9.72,5.00,-0.44,6.38,928.60
12.489,-0.78,-1.91,0.71,5.74,27.84,-9.72,4.15,-1.29,6.15,928.60
12.513,-0.46,-1.64,0.28,5.74,27.84,-9.72,4.15,-1.29,6.15,928.60
12.514,-0.46,-1.64,0.28,5.59,24.30,-7.76,4.15,-1.29,6.15,928.60
12.539,-0.46,-1.64,0.28,5.59,24.30,-7.76,4.15,-1.29,6.15,928.58
12.547,-0.46,-1.64,0.28,5.59,24.30,-7.76,3.20,-2.09,3.56,928.58
12.563,-0.46,-1.64,0.28,-12.19,20.96,42.60,3.20,-2.09,3.56,928.58
12.564,1.36,-1.39,-4.99,-12.19,20.96,42.60,3.20,-2.09,3.56,928.58
12.606,1.36,-1.39,-4.99,-12.19,20.96,42.60,3.20,-2.09,3.56,928.58
12.611,1.36,-1.39,-4.99,-12.19,20.96,42.60,-1.19,2.10,0.23,928.58
12.629,2.10,-1.19,-2.95,-12.19,20.96,42.60,-1.19,2.10,0.23,928.58
12.63,2.10,-1.19,-2.95,-17.67,19.06,23.23,-1.19,2.10,0.23,928.58
12.674,2.10,-1.19,-2.95,-17.67,19.06,23.23,-1.19,2.10,0.23,928.33
12.675,2.10,-1.19,-2.95,-17.67,19.06,23.23,-0.78,3.41,-4.07,928.33
12.688,2.04,-0.51,-2.10,-17.67,19.06,23.23,-0.78,3.41,-4.07,928.33
12.689,2.04,-0.51,-2.10,-18.82,13.60,16.14,-0.78,3.41,-4.07,928.33
12.737,2.04,-0.51,-2.10,-18.82,13.60,16.14,-4.75,0.21,-8.84,928.33
12.739,2.04,-0.51,-2.10,-18.82,13.60,16.14,-4.75,0.21,-8.84,928.33
12.752,0.24,-2.75,0.25,-18.82,13.60,16.14,-4.75,0.21,-8.84,928.33
12.754,0.24,-2.75,0.25,-6.43,35.69,-4.28,-4.75,0.21,-8.84,928.33
12.806,0.24,-2.75,0.25,-6.43,35.69,-4.28,-4.48,2.88,-9.12,928.33
12.807,0.24,-2.75,0.25,-6.43,35.69,-4.28,-4.48,2.88,-9.12,928.33
12.834,0.24,-2.75,0.25,2.42,39.35,-4.26,-4.48,2.88,-9.12,928.33
12.835,-1.05,-3.43,0.34,2.42,39.35,-4.26,-4.48,2.88,-9.12,928.33
12.864,-1.05,-3.43,0.34,2.42,39.35,-4.26,-3.14,1.16,-5.80,928.33
12.873,-1.05,-3.43,0.34,2.42,39.35,-4.26,-3.14,1.16,-5.80,928.41
12.879,-1.17,-2.42,0.41,2.42,39.35,-4.26,-3.14,1.16,-5.80,928.41
12.88,-1.17,-2.42,0.41,2.03,26.53,-4.29,-3.14,1.16,-5.80,928.41
12.928,-1.17,-2.42,0.41,2.03,26.53,-4.29,-2.89,-3.19,-4.95,928.41
12.94,-1.17,-2.42,0.41,2.03,26.53,-4.29,-2.89,-3.19,-4.95,928.41
12.942,-1.17,-2.42,0.41,-2.84,16.74,-3.99,-2.89,-3.19,-4.95,928.41
12.944,-0.70,-1.75,0.61,-2.84,16.74,-3.99,-2.89,-3.19,-4.95,928.41
12.992,-0.70,-1.75,0.61,-2.84,16.74,-3.99,-1.89,-0.24,-4.60,928.41
13.006,-1.93,-0.80,0.30,-2.84,16.74,-3.99,-1.89,-0.24,-4.60,928.41
13.006,-1.93,-0.80,0.30,9.74,4.66,-1.33,-1.89,-0.24,-4.60,928.41
13.007,-1.93,-0.80,0.30,9.74,4.66,-1.33,-1.89,-0.24,-4.60,928.46
13.054,-1.93,-0.80,0.30,9.74,4.66,-1.33,-2.19,1.59,-2.89,928.46
13.069,-1.93,-0.80,0.30,29.60,2.08,-3.77,-2.19,1.59,-2.89,928.46
13.071,-3.90,-0.70,0.40,29.60,2.08,-3.77,-2.19,1.59,-2.89,928.46
13.073,-3.90,-0.70,0.40,29.60,2.08,-3.77,-2.19,1.59,-2.89,928.46
13.118,-3.90,-0.70,0.40,29.60,2.08,-3.77,-2.19,-1.94,-1.02,928.46
13.133,-3.90,-0.70,0.40,41.82,13.49,-10.71,-2.19,-1.94,-1.02,928.46
13.133,-5.12,-1.91,1.17,41.82,13.49,-10.71,-2.19,-1.94,-1.02,928.46
13.14,-5.12,-1.91,1.17,41.82,13.49,-10.71,-2.19,-1.94,-1.02,928.53
13.181,-5.12,-1.91,1.17,41.82,13.49,-10.71,0.65,-0.18,0.64,928.53
13.195,-4.27,-0.76,1.52,41.82,13.49,-10.71,0.65,-0.18,0.64,928.53
13.196,-4.27,-0.76,1.52,33.19,2.80,-13.83,0.65,-0.18,0.64,928.53
13.206,-4.27,-0.76,1.52,33.19,2.80,-13.83,0.65,-0.18,0.64,928.53
13.244,-4.27,-0.76,1.52,33.19,2.80,-13.83,1.85,-2.11,3.19,928.53
13.26,-4.27,-0.76,1.52,17.92,3.71,-9.58,1.85,-2.11,3.19,928.53
13.261,-2.76,-0.62,1.28,17.92,3.71,-9.58,1.85,-2.11,3.19,928.53
13.274,-2.76,-0.62,1.28,17.92,3.71,-9.58,1.85,-2.11,3.19,928.56
13.307,-2.76,-0.62,1.28,17.92,3.71,-9.58,4.92,-1.57,5.25,928.56
13.322,-1.20,-2.33,1.24,17.92,3.71,-9.58,4.92,-1.57,5.25,928.56
13.322,-1.20,-2.33,1.24,2.80,24.74,-8.46,4.92,-1.57,5.25,928.56
13.34,-1.20,-2.33,1.24,2.80,24.74,-8.46,4.92,-1.57,5.25,928.56
13.37,-1.20,-2.33,1.24,2.80,24.74,-8.46,6.47,-0.79,6.18,928.56
13.384,-0.91,-2.87,0.91,2.80,24.74,-8.46,6.47,-0.79,6.18,928.56
13.385,-0.91,-2.87,0.91,1.82,34.54,-6.59,6.47,-0.79,6.18,928.56
13.406,-0.91,-2.87,0.91,1.82,34.54,-6.59,6.47,-0.79,6.18,928.56
13.433,-0.91,-2.87,0.91,1.82,34.54,-6.59,6.41,-1.64,6.12,928.56
13.45,-0.78,-2.49,0.67,1.82,34.54,-6.59,6.41,-1.64,6.12,928.56
13.451,-0.78,-2.49,0.67,3.67,33.38,-6.74,6.41,-1.64,6.12,928.56
13.474,-0.78,-2.49,0.67,3.67,33.38,-6.74,6.41,-1.64,6.12,928.61
13.498,-0.78,-2.49,0.67,3.67,33.38,-6.74,5.65,-1.83,5.43,928.61
13.512,-0.78,-2.49,0.67,5.86,30.38,-6.98,5.65,-1.83,5.43,928.61
13.513,-0.71,-2.17,0.39,5.86,30.38,-6.98,5.65,-1.83,5.43,928.61
13.539,-0.71,-2.17,0.39,5.86,30.38,-6.98,5.65,-1.83,5.43,928.61
13.56,-0.71,-2.17,0.39,5.86,30.38,-6.98,4.86,-1.70,3.78,928.61
13.575,0.07,-1.78,-1.20,5.86,30.38,-6.98,4.86,-1.70,3.78,928.61
13.575,0.07,-1.78,-1.20,-0.20,25.26,5.97,4.86,-1.70,3.78,928.61
13.607,0.07,-1.78,-1.20,-0.20,25.26,5.97,4.86,-1.70,3.78,928.45
13.628,0.07,-1.78,-1.20,-0.20,25.26,5.97,1.41,-0.48,1.53,928.45
13.655,2.68,-1.53,-6.01,-0.20,25.26,5.97,1.41,-0.48,1.53,928.45
13.655,2.68,-1.53,-6.01,-25.23,22.40,52.66,1.41,-0.48,1.53,928.45
13.673,2.68,-1.53,-6.01,-25.23,22.40,52.66,1.41,-0.48,1.53,928.45
13.687,2.68,-1.53,-6.01,-25.23,22.40,52.66,-1.26,5.50,-0.08,928.45
13.704,2.74,-0.21,-2.51,-25.23,22.40,52.66,-1.26,5.50,-0.08,928.45
13.705,2.74,-0.21,-2.51,-24.22,10.16,19.87,-1.26,5.50,-0.08,928.45
13.74,2.74,-0.21,-2.51,-24.22,10.16,19.87,-1.26,5.50,-0.08,928.30
13.762,2.74,-0.21,-2.51,-24.22,10.16,19.87,-2.59,1.18,-6.96,928.30
13.765,1.35,-2.14,-0.65,-24.22,10.16,19.87,-2.59,1.18,-6.96,928.30
13.765,1.35,-2.14,-0.65,-14.88,30.06,3.34,-2.59,1.18,-6.96,928.30
13.807,1.35,-2.14,-0.65,-14.88,30.06,3.34,-2.59,1.18,-6.96,928.30
13.815,1.35,-2.14,-0.65,-14.88,30.06,3.34,-3.29,4.04,-10.79,928.30
13.828,1.35,-2.14,-0.65,-1.61,44.55,-8.01,-3.29,4.04,-10.79,928.30
13.83,-0.50,-3.86,0.53,-1.61,44.55,-8.01,-3.29,4.04,-10.79,928.30
13.874,-0.50,-3.86,0.53,-1.61,44.55,-8.01,-3.29,4.04,-10.79,928.30
13.878,-0.50,-3.86,0.53,-1.61,44.55,-8.01,-1.05,5.00,-8.60,928.30
13.892,-1.72,-3.25,-0.06,-1.61,44.55,-8.01,-1.05,5.00,-8.60,928.30
13.892,-1.72,-3.25,-0.06,8.67,35.05,-3.88,-1.05,5.00,-8.60,928.30
13.94,-1.72,-3.25,-0.06,8.67,35.05,-3.88,-1.05,5.00,-8.60,928.34
13.941,-1.72,-3.25,-0.06,8.67,35.05,-3.88,-1.99,-4.08,-5.90,928.34
13.954,-1.72,-3.25,-0.06,0.27,21.28,-6.07,-1.99,-4.08,-5.90,928.34
13.956,-1.02,-2.15,0.50,0.27,21.28,-6.07,-1.99,-4.08,-5.90,928.34
14.009,-1.02,-2.15,0.50,0.27,21.28,-6.07,-2.63,-5.12,-5.68,928.34
14.01,-1.02,-2.15,0.50,0.27,21.28,-6.07,-2.63,-5.12,-5.68,928.34
14.037,-1.02,-2.15,0.50,0.69,12.68,-4.93,-2.63,-5.12,-5.68,928.34
14.038,-1.01,-1.63,0.62,0.69,12.68,-4.93,-2.63,-5.12,-5.68,928.34
14.066,-1.01,-1.63,0.62,0.69,12.68,-4.93,-1.59,1.41,-3.98,928.34
14.073,-1.01,-1.63,0.62,0.69,12.68,-4.93,-1.59,1.41,-3.98,928.44
14.081,-3.70,-0.43,0.36,0.69,12.68,-4.93,-1.59,1.41,-3.98,928.44
14.082,-3.70,-0.43,0.36,27.91,-1.02,-3.73,-1.59,1.41,-3.98,928.44
14.146,-3.70,-0.43,0.36,27.91,-1.02,-3.73,-1.66,-1.21,-1.01,928.44
14.147,-3.70,-0.43,0.36,45.28,5.07,-8.43,-1.66,-1.21,-1.01,928.44
14.148,-3.70,-0.43,0.36,45.28,5.07,-8.43,-1.66,-1.21,-1.01,928.44
14.148,-5.46,-1.08,0.89,45.28,5.07,-8.43,-1.66,-1.21,-1.01,928.44
14.194,-5.46,-1.08,0.89,45.28,5.07,-8.43,0.78,-1.80,0.88,928.44
14.207,-5.46,-1.08,0.89,45.28,5.07,-8.43,0.78,-1.80,0.88,928.70
14.208,-5.46,-1.08,0.89,32.75,15.02,-12.34,0.78,-1.80,0.88,928.70
14.208,-4.21,-2.03,1.40,32.75,15.02,-12.34,0.78,-1.80,0.88,928.70
14.257,-4.21,-2.03,1.40,32.75,15.02,-12.34,2.74,-0.97,2.33,928.70
14.273,-3.34,-0.68,0.82,32.75,15.02,-12.34,2.74,-0.97,2.33,928.70
14.274,-3.34,-0.68,0.82,23.75,3.60,-5.24,2.74,-0.97,2.33,928.70
14.275,-3.34,-0.68,0.82,23.75,3.60,-5.24,2.74,-0.97,2.33,928.70
14.321,-3.34,-0.68,0.82,23.75,3.60,-5.24,3.76,-2.45,4.26,928.70
14.336,-1.47,-1.61,0.85,23.75,3.60,-5.24,3.76,-2.45,4.26,928.70
14.339,-1.47,-1.61,0.85,5.61,16.18,-3.96,3.76,-2.45,4.26,928.70
14.34,-1.47,-1.61,0.85,5.61,16.18,-3.96,3.76,-2.45,4.26,928.70
14.384,-1.47,-1.61,0.85,5.61,16.18,-3.96,6.03,0.30,5.51,928.70
14.399,-1.47,-1.61,0.85,-0.37,31.19,-5.26,6.03,0.30,5.51,928.70
14.401,-0.77,-2.68,0.84,-0.37,31.19,-5.26,6.03,0.30,5.51,928.70
14.431,-0.77,-2.68,0.84,-0.37,31.19,-5.26,6.03,0.30,5.51,928.74
14.447,-0.77,-2.68,0.84,-0.37,31.19,-5.26,6.14,0.45,6.41,928.74
14.463,-0.75,-2.51,0.68,-0.37,31.19,-5.26,6.14,0.45,6.41,928.74
14.464,-0.75,-2.51,0.68,2.09,32.85,-6.36,6.14,0.45,6.41,928.74
14.474,-0.75,-2.51,0.68,2.09,32.85,-6.36,6.14,0.45,6.41,928.74
14.51,-0.75,-2.51,0.68,2.09,32.85,-6.36,5.34,-1.01,6.37,928.74
14.525,-0.75,-2.51,0.68,4.69,30.16,-7.48,5.34,-1.01,6.37,928.74
14.526,-0.66,-2.13,0.51,4.69,30.16,-7.48,5.34,-1.01,6.37,928.74
14.54,-0.66,-2.13,0.51,4.69,30.16,-7.48,5.34,-1.01,6.37,928.74
14.573,-0.66,-2.13,0.51,4.69,30.16,-7.48,4.62,-1.93,5.29,928.74
14.602,-0.66,-2.13,0.51,2.87,25.53,-3.72,4.62,-1.93,5.29,928.74
14.603,-0.23,-1.75,-0.13,2.87,25.53,-3.72,4.62,-1.93,5.29,928.74
14.607,-0.23,-1.75,-0.13,2.87,25.53,-3.72,4.62,-1.93,5.29,928.74
14.637,-0.23,-1.75,-0.13,2.87,25.53,-3.72,3.81,-0.94,3.20,928.74
14.651,1.94,-0.90,-4.80,2.87,25.53,-3.72,3.81,-0.94,3.20,928.74
14.652,1.94,-0.90,-4.80,-17.36,15.71,40.33,3.81,-0.94,3.20,928.74
14.673,1.94,-0.90,-4.80,-17.36,15.71,40.33,3.81,-0.94,3.20,928.46
14.708,1.94,-0.90,-4.80,-17.36,15.71,40.33,-1.77,0.79,0.59,928.46
14.736,2.10,-1.00,-3.83,-17.36,15.71,40.33,-1.77,0.79,0.59,928.46
14.737,2.10,-1.00,-3.83,-18.07,17.40,32.06,-1.77,0.79,0.59,928.46
14.74,2.10,-1.00,-3.83,-18.07,17.40,32.06,-1.77,0.79,0.59,928.46
14.763,2.10,-1.00,-3.83,-18.07,17.40,32.06,-1.10,3.00,-3.81,928.46
14.778,1.57,-0.83,-1.45,-18.07,17.40,32.06,-1.10,3.00,-3.81,928.46
14.779,1.57,-0.83,-1.45,-14.67,16.70,9.73,-1.10,3.00,-3.81,928.46
14.806,1.57,-0.83,-1.45,-14.67,16.70,9.73,-1.10,3.00,-3.81,928.31
14.826,1.57,-0.83,-1.45,-14.67,16.70,9.73,-3.43,1.54,-8.46,928.31
14.842,0.16,-2.63,-0.05,-14.67,16.70,9.73,-3.43,1.54,-8.46,928.31
14.843,0.16,-2.63,-0.05,-5.39,34.35,-2.21,-3.43,1.54,-8.46,928.31
14.873,0.16,-2.63,-0.05,-5.39,34.35,-2.21,-3.43,1.54,-8.46,928.31
14.889,0.16,-2.63,-0.05,-5.39,34.35,-2.21,-3.49,2.71,-8.56,928.31
14.905,-0.81,-2.93,0.38,-5.39,34.35,-2.21,-3.49,2.71,-8.56,928.31
14.905,-0.81,-2.93,0.38,0.52,34.80,-5.72,-3.49,2.71,-8.56,928.31
14.94,-0.81,-2.93,0.38,0.52,34.80,-5.72,-3.49,2.71,-8.56,928.31
14.953,-0.81,-2.93,0.38,0.52,34.80,-5.72,-3.11,1.06,-6.60,928.31
14.969,-0.81,-2.93,0.38,0.55,27.20,-5.34,-3.11,1.06,-6.60,928.31
14.971,-1.00,-2.46,0.41,0.55,27.20,-5.34,-3.11,1.06,-6.60,928.31
15.008,-1.00,-2.46,0.41,0.55,27.20,-5.34,-3.11,1.06,-6.60,928.37
15.017,-1.00,-2.46,0.41,0.55,27.20,-5.34,-3.49,-2.30,-5.60,928.37
15.03,-0.78,-2.10,0.69,0.55,27.20,-5.34,-3.49,-2.30,-5.60,928.37
15.031,-0.78,-2.10,0.69,-2.19,20.27,-6.18,-3.49,-2.30,-5.60,928.37
15.074,-0.78,-2.10,0.69,-2.19,20.27,-6.18,-3.49,-2.30,-5.60,928.37
15.08,-0.78,-2.10,0.69,-2.19,20.27,-6.18,-2.54,-1.07,-5.00,928.37
15.094,-2.20,-0.88,0.64,-2.19,20.27,-6.18,-2.54,-1.07,-5.00,928.37
15.095,-2.20,-0.88,0.64,12.24,5.35,-5.64,-2.54,-1.07,-5.00,928.37
15.144,-2.20,-0.88,0.64,12.24,5.35,-5.64,-2.54,-1.07,-5.00,928.43
15.145,-2.20,-0.88,0.64,12.24,5.35,-5.64,-1.72,0.05,-2.37,928.43
15.157,-4.38,-0.36,0.89,12.24,5.35,-5.64,-1.72,0.05,-2.37,928.43
15.158,-4.38,-0.36,0.89,34.09,-0.80,-8.26,-1.72,0.05,-2.37,928.43
15.207,-4.38,-0.36,0.89,34.09,-0.80,-8.26,0.49,-0.25,-0.25,928.43
15.208,-4.38,-0.36,0.89,34.09,-0.80,-8.26,0.49,-0.25,-0.25,928.43
15.229,-4.48,-1.45,1.27,34.09,-0.80,-8.26,0.49,-0.25,-0.25,928.43
15.23,-4.48,-1.45,1.27,35.06,9.81,-11.83,0.49,-0.25,-0.25,928.43
15.269,-4.48,-1.45,1.27,35.06,9.81,-11.83,2.61,1.24,0.97,928.43
15.273,-4.48,-1.45,1.27,35.06,9.81,-11.83,2.61,1.24,0.97,928.44
15.283,-4.91,-0.71,0.59,35.06,9.81,-11.83,2.61,1.24,0.97,928.44
15.284,-4.91,-0.71,0.59,38.92,3.48,-4.87,2.61,1.24,0.97,928.44
15.334,-4.91,-0.71,0.59,38.92,3.48,-4.87,3.06,-2.97,3.70,928.44
15.341,-4.91,-0.71,0.59,38.92,3.48,-4.87,3.06,-2.97,3.70,928.44
15.348,-2.90,-0.77,0.85,38.92,3.48,-4.87,3.06,-2.97,3.70,928.44
15.349,-2.90,-0.77,0.85,19.11,6.88,-5.18,3.06,-2.97,3.70,928.44
15.398,-2.90,-0.77,0.85,19.11,6.88,-5.18,5.57,-0.04,5.41,928.44
15.408,-2.90,-0.77,0.85,19.11,6.88,-5.18,5.57,-0.04,5.41,928.44
15.411,-0.85,-1.87,1.02,19.11,6.88,-5.18,5.57,-0.04,5.41,928.44
15.411,-0.85,-1.87,1.02,-0.53,21.89,-7.80,5.57,-0.04,5.41,928.44
15.459,-0.85,-1.87,1.02,-0.53,21.89,-7.80,5.38,1.92,6.55,928.44
15.474,-0.85,-1.87,1.02,-0.53,21.89,-7.80,5.38,1.92,6.55,928.52
15.475,-0.85,-1.87,1.02,1.36,28.28,-9.54,5.38,1.92,6.55,928.52
15.476,-0.82,-2.16,0.93,1.36,28.28,-9.54,5.38,1.92,6.55,928.52
15.523,-0.82,-2.16,0.93,1.36,28.28,-9.54,4.67,-0.87,6.61,928.52
15.539,-0.82,-2.16,0.93,1.14,27.63,-10.16,4.67,-0.87,6.61,928.52
15.541,-0.47,-1.92,0.78,1.14,27.63,-10.16,4.67,-0.87,6.61,928.52
15.541,-0.47,-1.92,0.78,1.14,27.63,-10.16,4.67,-0.87,6.61,928.52
15.586,-0.47,-1.92,0.78,1.14,27.63,-10.16,4.27,-0.73,5.66,928.52
15.601,-0.29,-1.69,0.52,1.14,27.63,-10.16,4.27,-0.73,5.66,928.52
15.603,-0.29,-1.69,0.52,2.31,25.00,-9.86,4.27,-0.73,5.66,928.52
15.607,-0.29,-1.69,0.52,2.31,25.00,-9.86,4.27,-0.73,5.66,928.60
15.65,-0.29,-1.69,0.52,2.31,25.00,-9.86,3.65,-0.88,3.92,928.60
15.665,-0.29,-1.69,0.52,-4.91,20.11,2.42,3.65,-0.88,3.92,928.60
15.666,0.60,-1.33,-0.92,-4.91,20.11,2.42,3.65,-0.88,3.92,928.60
15.674,0.60,-1.33,-0.92,-4.91,20.11,2.42,3.65,-0.88,3.92,928.60
15.713,0.60,-1.33,-0.92,-4.91,20.11,2.42,0.76,-0.64,1.07,928.60
15.727,2.10,-1.48,-5.46,-4.91,20.11,2.42,0.76,-0.64,1.07,928.60
15.728,2.10,-1.48,-5.46,-19.59,21.43,46.76,0.76,-0.64,1.07,928.60
15.74,2.10,-1.48,-5.46,-19.59,21.43,46.76,0.76,-0.64,1.07,928.37
15.778,2.10,-1.48,-5.46,-19.59,21.43,46.76,-1.17,3.21,-0.32,928.37
15.801,2.10,-1.48,-5.46,-19.47,13.65,15.53,-1.17,3.21,-0.32,928.37
15.803,2.20,-0.62,-2.17,-19.47,13.65,15.53,-1.17,3.21,-0.32,928.37
15.806,2.20,-0.62,-2.17,-19.47,13.65,15.53,-1.17,3.21,-0.32,928.37
15.839,2.20,-0.62,-2.17,-19.47,13.65,15.53,-2.91,1.08,-5.84,928.37
15.854,0.96,-1.69,-0.55,-19.47,13.65,15.53,-2.91,1.08,-5.84,928.37
15.855,0.96,-1.69,-0.55,-10.64,25.43,1.47,-2.91,1.08,-5.84,928.37
15.875,0.96,-1.69,-0.55,-10.64,25.43,1.47,-2.91,1.08,-5.84,928.41
15.903,0.96,-1.69,-0.55,-10.64,25.43,1.47,-4.87,-0.50,-9.38,928.41
15.928,-0.34,-2.92,0.79,-10.64,25.43,1.47,-4.87,-0.50,-9.38,928.41
15.929,-0.34,-2.92,0.79,-3.10,35.97,-8.87,-4.87,-0.50,-9.38,928.41
15.956,-0.34,-2.92,0.79,-3.10,35.97,-8.87,-4.87,-0.50,-9.38,928.41
15.966,-0.34,-2.92,0.79,-3.10,35.97,-8.87,-4.17,2.77,-7.87,928.41
15.981,-0.86,-2.98,0.50,-3.10,35.97,-8.87,-4.17,2.77,-7.87,928.41
15.982,-0.86,-2.98,0.50,-0.54,33.04,-6.25,-4.17,2.77,-7.87,928.41
16.007,-0.86,-2.98,0.50,-0.54,33.04,-6.25,-4.17,2.77,-7.87,928.41
16.029,-0.86,-2.98,0.50,-0.54,33.04,-6.25,-3.18,1.66,-5.97,928.41
16.044,-0.86,-2.98,0.50,5.09,22.56,-5.37,-3.18,1.66,-5.97,928.41
16.046,-1.51,-2.23,0.42,5.09,22.56,-5.37,-3.18,1.66,-5.97,928.41
16.075,-1.51,-2.23,0.42,5.09,22.56,-5.37,-3.18,1.66,-5.97,928.41
16.093,-1.51,-2.23,0.42,5.09,22.56,-5.37,-3.21,-1.99,-5.13,928.41
16.106,-3.49,-0.36,0.19,5.09,22.56,-5.37,-3.21,-1.99,-5.13,928.41
16.107,-3.49,-0.36,0.19,24.53,1.50,-2.16,-3.21,-1.99,-5.13,928.41
16.14,-3.49,-0.36,0.19,24.53,1.50,-2.16,-3.21,-1.99,-5.13,928.41
16.157,-3.49,-0.36,0.19,24.53,1.50,-2.16,-3.48,-4.35,-0.66,928.41
16.171,-3.49,-0.36,0.19,32.81,-2.84,-12.65,-3.48,-4.35,-0.66,928.41
16.172,-4.31,0.07,1.51,32.81,-2.84,-12.65,-3.48,-4.35,-0.66,928.41
16.208,-4.31,0.07,1.51,32.81,-2.84,-12.65,-3.48,-4.35,-0.66,928.46
16.223,-4.31,0.07,1.51,32.81,-2.84,-12.65,0.49,-1.34,1.15,928.46
16.234,-3.51,-0.58,2.09,32.81,-2.84,-12.65,0.49,-1.34,1.15,928.46
16.235,-3.51,-0.58,2.09,24.93,4.34,-17.88,0.49,-1.34,1.15,928.46
16.274,-3.51,-0.58,2.09,24.93,4.34,-17.88,0.49,-1.34,1.15,928.46
16.282,-3.51,-0.58,2.09,24.93,4.34,-17.88,2.36,0.01,1.42,928.46
16.297,-3.51,-0.58,2.09,28.50,-0.96,-9.04,2.36,0.01,1.42,928.46
16.299,-3.87,0.10,1.23,28.50,-0.96,-9.04,2.36,0.01,1.42,928.46
16.341,-3.87,0.10,1.23,28.50,-0.96,-9.04,2.36,0.01,1.42,928.38
16.346,-3.87,0.10,1.23,28.50,-0.96,-9.04,3.35,-2.70,3.06,928.38
16.36,-2.21,-0.74,1.24,28.50,-0.96,-9.04,3.35,-2.70,3.06,928.38
16.361,-2.21,-0.74,1.24,13.16,10.03,-8.04,3.35,-2.70,3.06,928.38
16.407,-2.21,-0.74,1.24,13.16,10.03,-8.04,3.35,-2.70,3.06,928.38
16.409,-2.21,-0.74,1.24,13.16,10.03,-8.04,5.76,0.56,5.09,928.38
16.424,-0.87,-1.83,0.91,13.16,10.03,-8.04,5.76,0.56,5.09,928.38
16.425,-0.87,-1.83,0.91,1.48,24.50,-7.12,5.76,0.56,5.09,928.38
16.473,-0.87,-1.83,0.91,1.48,24.50,-7.12,5.60,0.62,6.20,928.38
16.474,-0.87,-1.83,0.91,1.48,24.50,-7.12,5.60,0.62,6.20,928.38
16.487,-0.62,-1.82,0.48,1.48,24.50,-7.12,5.60,0.62,6.20,928.38
16.488,-0.62,-1.82,0.48,2.07,26.63,-5.73,5.60,0.62,6.20,928.38
16.536,-0.62,-1.82,0.48,2.07,26.63,-5.73,4.72,-1.51,5.65,928.38
16.54,-0.62,-1.82,0.48,2.07,26.63,-5.73,4.72,-1.51,5.65,928.40
16.55,-0.25,-1.49,0.12,2.07,26.63,-5.73,4.72,-1.51,5.65,928.40
16.552,-0.25,-1.49,0.12,1.33,23.64,-4.65,4.72,-1.51,5.65,928.40
16.601,-0.25,-1.49,0.12,1.33,23.64,-4.65,3.74,-2.57,4.35,928.40
16.608,-0.25,-1.49,0.12,1.33,23.64,-4.65,3.74,-2.57,4.35,928.40
16.614,-0.01,-1.32,-0.17,1.33,23.64,-4.65,3.74,-2.57,4.35,928.40
16.615,-0.01,-1.32,-0.17,0.49,20.96,-3.79,3.74,-2.57,4.35,928.40
16.663,-0.01,-1.32,-0.17,0.49,20.96,-3.79,2.89,-0.99,2.07,928.40
16.674,-0.01,-1.32,-0.17,0.49,20.96,-3.79,2.89,-0.99,2.07,928.41
16.676,1.23,-1.40,-3.70,0.49,20.96,-3.79,2.89,-0.99,2.07,928.41
16.677,1.23,-1.40,-3.70,-11.87,21.21,30.05,2.89,-0.99,2.07,928.41
16.727,1.23,-1.40,-3.70,-11.87,21.21,30.05,-2.54,2.46,-0.51,928.41
16.743,1.23,-1.40,-3.70,-12.50,9.29,33.01,-2.54,2.46,-0.51,928.41
16.744,1.46,-0.12,-3.89,-12.50,9.29,33.01,-2.54,2.46,-0.51,928.41
16.745,1.46,-0.12,-3.89,-12.50,9.29,33.01,-2.54,2.46,-0.51,928.41
16.789,1.46,-0.12,-3.89,-12.50,9.29,33.01,-3.25,3.27,-2.86,928.41
16.804,1.46,-0.12,-3.89,-19.47,8.28,14.96,-3.25,3.27,-2.86,928.41
16.805,2.04,0.10,-1.83,-19.47,8.28,14.96,-3.25,3.27,-2.86,928.41
16.807,2.04,0.10,-1.83,-19.47,8.28,14.96,-3.25,3.27,-2.86,928.23
16.866,2.04,0.10,-1.83,-19.47,8.28,14.96,-4.28,1.53,-6.54,928.23
16.895,2.04,0.10,-1.83,-6.97,31.47,-0.44,-4.28,1.53,-6.54,928.23
16.896,0.34,-2.29,-0.02,-6.97,31.47,-0.44,-4.28,1.53,-6.54,928.23
16.897,0.34,-2.29,-0.02,-6.97,31.47,-0.44,-4.28,1.53,-6.54,928.23
16.915,0.34,-2.29,-0.02,-6.97,31.47,-0.44,-3.14,5.40,-8.53,928.23
16.93,-0.81,-3.06,0.20,-6.97,31.47,-0.44,-3.14,5.40,-8.53,928.23
16.931,-0.81,-3.06,0.20,0.53,36.31,-3.28,-3.14,5.40,-8.53,928.23
16.941,-0.81,-3.06,0.20,0.53,36.31,-3.28,-3.14,5.40,-8.53,928.23
16.979,-0.81,-3.06,0.20,0.53,36.31,-3.28,-1.13,1.94,-5.27,928.23
16.999,-0.97,-2.04,0.07,0.53,36.31,-3.28,-1.13,1.94,-5.27,928.23
17.001,-0.97,-2.04,0.07,0.54,23.73,-2.00,-1.13,1.94,-5.27,928.23
17.03,-0.97,-2.04,0.07,0.54,23.73,-2.00,-1.13,1.94,-5.27,928.34
17.045,-0.97,-2.04,0.07,0.54,23.73,-2.00,-1.75,-2.36,-5.48,928.34
17.057,-0.97,-2.04,0.07,-0.63,16.85,-4.09,-1.75,-2.36,-5.48,928.34
17.057,-0.94,-1.68,0.45,-0.63,16.85,-4.09,-1.75,-2.36,-5.48,928.34
17.074,-0.94,-1.68,0.45,-0.63,16.85,-4.09,-1.75,-2.36,-5.48,928.34
17.105,-0.94,-1.68,0.45,-0.63,16.85,-4.09,-2.40,-0.13,-4.95,928.34
17.12,-0.94,-1.68,0.45,14.33,1.32,-3.08,-2.40,-0.13,-4.95,928.34
17.121,-2.44,-0.39,0.32,14.33,1.32,-3.08,-2.40,-0.13,-4.95,928.34
17.146,-2.44,-0.39,0.32,14.33,1.32,-3.08,-2.40,-0.13,-4.95,928.38
17.172,-2.44,-0.39,0.32,14.33,1.32,-3.08,-2.86,-1.30,-1.63,928.38
17.183,-3.99,0.08,1.20,14.33,1.32,-3.08,-2.86,-1.30,-1.63,928.38
17.183,-3.99,0.08,1.20,29.78,-3.94,-11.02,-2.86,-1.30,-1.63,928.38
17.207,-3.99,0.08,1.20,29.78,-3.94,-11.02,-2.86,-1.30,-1.63,928.38
17.232,-3.99,0.08,1.20,29.78,-3.94,-11.02,1.00,-1.83,-0.01,928.38
17.247,-3.27,-1.30,1.97,29.78,-3.94,-11.02,1.00,-1.83,-0.01,928.38
17.249,-3.27,-1.30,1.97,22.78,9.74,-17.69,1.00,-1.83,-0.01,928.38
17.279,-3.27,-1.30,1.97,22.78,9.74,-17.69,1.00,-1.83,-0.01,928.51
17.306,-3.27,-1.30,1.97,22.78,9.74,-17.69,4.30,1.64,0.28,928.51
17.311,-4.59,-0.41,0.49,22.78,9.74,-17.69,4.30,1.64,0.28,928.51
17.311,-4.59,-0.41,0.49,35.51,1.74,-3.15,4.30,1.64,0.28,928.51
17.341,-4.59,-0.41,0.49,35.51,1.74,-3.15,4.30,1.64,0.28,928.51
17.359,-4.59,-0.41,0.49,35.51,1.74,-3.15,2.59,-2.91,2.22,928.51
17.375,-3.32,-0.17,0.57,35.51,1.74,-3.15,2.59,-2.91,2.22,928.51
17.376,-3.32,-0.17,0.57,23.44,1.31,-1.77,2.59,-2.91,2.22,928.51
17.411,-3.32,-0.17,0.57,23.44,1.31,-1.77,2.59,-2.91,2.22,928.60
17.44,-3.32,-0.17,0.57,23.44,1.31,-1.77,4.31,-1.82,4.14,928.60
17.441,-1.16,-1.50,0.93,23.44,1.31,-1.77,4.31,-1.82,4.14,928.60
17.441,-1.16,-1.50,0.93,2.98,18.00,-5.14,4.31,-1.82,4.14,928.60
17.474,-1.16,-1.50,0.93,2.98,18.00,-5.14,4.31,-1.82,4.14,928.60
17.485,-1.16,-1.50,0.93,2.98,18.00,-5.14,5.35,3.00,5.73,928.60
17.5,-0.66,-1.96,0.74,2.98,18.00,-5.14,5.35,3.00,5.73,928.60
17.501,-0.66,-1.96,0.74,-0.43,26.21,-6.55,5.35,3.00,5.73,928.60
17.542,-0.66,-1.96,0.74,-0.43,26.21,-6.55,5.35,3.00,5.73,928.60
17.549,-0.66,-1.96,0.74,-0.43,26.21,-6.55,4.19,0.58,6.84,928.60
17.564,-0.57,-1.74,0.53,-0.43,26.21,-6.55,4.19,0.58,6.84,928.60
17.564,-0.57,-1.74,0.53,2.22,26.13,-6.68,4.19,0.58,6.84,928.60
17.609,-0.57,-1.74,0.53,2.22,26.13,-6.68,4.19,0.58,6.84,928.67
17.612,-0.57,-1.74,0.53,2.22,26.13,-6.68,3.62,-2.06,5.73,928.67
17.627,-0.57,-1.74,0.53,1.02,22.62,-6.54,3.62,-2.06,5.73,928.67
17.628,-0.16,-1.38,0.33,1.02,22.62,-6.54,3.62,-2.06,5.73,928.67
17.675,-0.16,-1.38,0.33,1.02,22.62,-6.54,3.62,-2.06,5.73,928.67
17.676,-0.16,-1.38,0.33,1.02,22.62,-6.54,3.46,-1.62,3.84,928.67
17.69,-0.16,-1.38,0.33,-1.49,17.87,-3.84,3.46,-1.62,3.84,928.67
17.691,0.26,-1.00,-0.15,-1.49,17.87,-3.84,3.46,-1.62,3.84,928.67
17.738,0.26,-1.00,-0.15,-1.49,17.87,-3.84,3.55,0.67,1.05,928.67
17.741,0.26,-1.00,-0.15,-1.49,17.87,-3.84,3.55,0.67,1.05,928.47
17.754,1.70,0.37,-4.55,-1.49,17.87,-3.84,3.55,0.67,1.05,928.47
17.755,1.70,0.37,-4.55,-15.19,3.54,38.19,3.55,0.67,1.05,928.47
17.804,1.70,0.37,-4.55,-15.19,3.54,38.19,-1.33,-0.32,0.40,928.47
17.807,1.70,0.37,-4.55,-15.19,3.54,38.19,-1.33,-0.32,0.40,928.47
17.816,2.11,-0.83,-2.96,-15.19,3.54,38.19,-1.33,-0.32,0.40,928.47
17.817,2.11,-0.83,-2.96,-18.63,15.43,22.95,-1.33,-0.32,0.40,928.47
17.866,2.11,-0.83,-2.96,-18.63,15.43,22.95,-0.78,3.53,-2.92,928.47
17.875,2.11,-0.83,-2.96,-18.63,15.43,22.95,-0.78,3.53,-2.92,928.34
17.88,1.20,-1.26,-1.82,-18.63,15.43,22.95,-0.78,3.53,-2.92,928.34
17.881,1.20,-1.26,-1.82,-10.52,20.57,12.77,-0.78,3.53,-2.92,928.34
17.929,1.20,-1.26,-1.82,-10.52,20.57,12.77,-4.37,-0.45,-5.69,928.34
17.941,1.20,-1.26,-1.82,-10.52,20.57,12.77,-4.37,-0.45,-5.69,928.34
17.946,0.23,-2.35,0.07,-10.52,20.57,12.77,-4.37,-0.45,-5.69,928.34
17.947,0.23,-2.35,0.07,-4.33,32.25,-3.16,-4.37,-0.45,-5.69,928.34
17.992,0.23,-2.35,0.07,-4.33,32.25,-3.16,-5.09,0.19,-6.08,928.34
18.006,-0.13,-2.37,0.74,-4.33,32.25,-3.16,-5.09,0.19,-6.08,928.34
18.008,-0.13,-2.37,0.74,-4.32,31.23,-7.02,-5.09,0.19,-6.08,928.34
18.009,-0.13,-2.37,0.74,-4.32,31.23,-7.02,-5.09,0.19,-6.08,928.34
18.056,-0.13,-2.37,0.74,-4.32,31.23,-7.02,-4.49,2.38,-6.86,928.34
18.075,-0.76,-2.84,0.66,-4.32,31.23,-7.02,-4.49,2.38,-6.86,928.34
18.076,-0.76,-2.84,0.66,-1.12,32.50,-5.47,-4.49,2.38,-6.86,928.34
18.076,-0.76,-2.84,0.66,-1.12,32.50,-5.47,-4.49,2.38,-6.86,928.46
18.118,-0.76,-2.84,0.66,-1.12,32.50,-5.47,-3.40,2.11,-6.85,928.46
18.133,-1.74,-2.01,0.44,-1.12,32.50,-5.47,-3.40,2.11,-6.85,928.46
18.134,-1.74,-2.01,0.44,7.22,20.25,-4.02,-3.40,2.11,-6.85,928.46
18.141,-1.74,-2.01,0.44,7.22,20.25,-4.02,-3.40,2.11,-6.85,928.46
18.182,-1.74,-2.01,0.44,7.22,20.25,-4.02,-2.84,1.46,-4.25,928.46
18.2,-3.93,-0.11,0.04,7.22,20.25,-4.02,-2.84,1.46,-4.25,928.46
18.201,-3.93,-0.11,0.04,28.77,-0.55,-0.73,-2.84,1.46,-4.25,928.46
18.231,-3.93,-0.11,0.04,28.77,-0.55,-0.73,-2.84,1.46,-4.25,928.46
18.246,-3.93,-0.11,0.04,28.77,-0.55,-0.73,-2.33,-2.95,-1.36,928.46
18.259,-3.93,-0.11,0.04,26.76,2.49,-6.42,-2.33,-2.95,-1.36,928.46
18.26,-3.70,-0.50,0.77,26.76,2.49,-6.42,-2.33,-2.95,-1.36,928.46
18.289,-3.70,-0.50,0.77,26.76,2.49,-6.42,-2.33,-2.95,-1.36,928.46
18.308,-3.70,-0.50,0.77,26.76,2.49,-6.42,0.39,0.53,-0.97,928.46
18.323,-4.42,-0.70,1.02,26.76,2.49,-6.42,0.39,0.53,-0.97,928.46
18.324,-4.42,-0.70,1.02,33.93,3.99,-9.27,0.39,0.53,-0.97,928.46
18.347,-4.42,-0.70,1.02,33.93,3.99,-9.27,0.39,0.53,-0.97,928.52
18.374,-4.42,-0.70,1.02,33.93,3.99,-9.27,0.80,-1.56,0.65,928.52
18.386,-3.95,0.16,0.79,33.93,3.99,-9.27,0.80,-1.56,0.65,928.52
18.387,-3.95,0.16,0.79,29.30,-3.75,-5.55,0.80,-1.56,0.65,928.52
18.407,-3.95,0.16,0.79,29.30,-3.75,-5.55,0.80,-1.56,0.65,928.52
18.435,-3.95,0.16,0.79,29.30,-3.75,-5.55,2.22,-2.20,2.97,928.52
18.45,-3.95,0.16,0.79,11.66,5.95,-5.81,2.22,-2.20,2.97,928.52
18.452,-2.14,-0.58,0.94,11.66,5.95,-5.81,2.22,-2.20,2.97,928.52
18.481,-2.14,-0.58,0.94,11.66,5.95,-5.81,2.22,-2.20,2.97,928.52
18.511,-2.14,-0.58,0.94,11.66,5.95,-5.81,4.07,0.53,5.27,928.52
18.514,-2.14,-0.58,0.94,1.57,22.36,-5.43,4.07,0.53,5.27,928.52
18.515,-1.04,-1.86,0.80,1.57,22.36,-5.43,4.07,0.53,5.27,928.52
18.54,-1.04,-1.86,0.80,1.57,22.36,-5.43,4.07,0.53,5.27,928.53
18.561,-1.04,-1.86,0.80,1.57,22.36,-5.43,4.53,-1.07,6.28,928.53
18.576,-1.04,-1.86,0.80,0.68,28.69,-4.77,4.53,-1.07,6.28,928.53
18.578,-0.69,-2.15,0.62,0.68,28.69,-4.77,4.53,-1.07,6.28,928.53
18.609,-0.69,-2.15,0.62,0.68,28.69,-4.77,4.53,-1.07,6.28,928.53
18.627,-0.69,-2.15,0.62,0.68,28.69,-4.77,5.06,-4.40,5.83,928.53
18.639,-0.65,-2.32,0.54,0.68,28.69,-4.77,5.06,-4.40,5.83,928.53
18.639,-0.65,-2.32,0.54,3.46,32.04,-5.54,5.06,-4.40,5.83,928.53
18.674,-0.65,-2.32,0.54,3.46,32.04,-5.54,5.06,-4.40,5.83,928.66
18.689,-0.65,-2.32,0.54,3.46,32.04,-5.54,6.61,-4.44,3.97,928.66
18.702,0.29,-1.91,0.35,3.46,32.04,-5.54,6.61,-4.44,3.97,928.66
18.703,0.29,-1.91,0.35,-3.76,27.66,-7.23,6.61,-4.44,3.97,928.66
18.742,0.29,-1.91,0.35,-3.76,27.66,-7.23,6.61,-4.44,3.97,928.66
18.754,0.29,-1.91,0.35,-3.76,27.66,-7.23,6.55,1.64,2.71,928.66
18.766,1.01,-0.89,-2.29,-3.76,27.66,-7.23,6.55,1.64,2.71,928.66
18.767,1.01,-0.89,-2.29,-8.67,15.40,15.42,6.55,1.64,2.71,928.66
18.807,1.01,-0.89,-2.29,-8.67,15.40,15.42,6.55,1.64,2.71,928.38
18.816,1.01,-0.89,-2.29,-8.67,15.40,15.42,2.24,0.10,0.81,928.38
18.829,2.57,-1.69,-5.92,-8.67,15.40,15.42,2.24,0.10,0.81,928.38
18.831,2.57,-1.69,-5.92,-24.10,22.48,50.34,2.24,0.10,0.81,928.38
18.875,2.57,-1.69,-5.92,-24.10,22.48,50.34,2.24,0.10,0.81,928.38
18.878,2.57,-1.69,-5.92,-24.10,22.48,50.34,-0.87,2.29,-2.78,928.38
18.893,2.57,-1.69,-5.92,-16.49,18.78,17.07,-0.87,2.29,-2.78,928.38
18.893,1.76,-1.21,-2.44,-16.49,18.78,17.07,-0.87,2.29,-2.78,928.38
18.941,1.76,-1.21,-2.44,-16.49,18.78,17.07,-0.87,2.29,-2.78,928.28
18.943,1.76,-1.21,-2.44,-16.49,18.78,17.07,-6.10,-0.68,-8.53,928.28
18.956,0.62,-3.14,-0.74,-16.49,18.78,17.07,-6.10,-0.68,-8.53,928.28
18.958,0.62,-3.14,-0.74,-10.05,39.01,3.83,-6.10,-0.68,-8.53,928.28
19.02,0.62,-3.14,-0.74,-10.05,39.01,3.83,-7.94,1.34,-8.70,928.28
19.022,0.62,-3.14,-0.74,-10.05,39.01,3.83,-7.94,1.34,-8.70,928.28
19.024,0.62,-3.14,-0.74,-4.61,45.50,-7.39,-7.94,1.34,-8.70,928.28
19.025,-0.33,-4.05,0.68,-4.61,45.50,-7.39,-7.94,1.34,-8.70,928.28
19.068,-0.33,-4.05,0.68,-4.61,45.50,-7.39,-5.58,3.41,-6.91,928.28
19.074,-0.33,-4.05,0.68,-4.61,45.50,-7.39,-5.58,3.41,-6.91,928.28
19.082,-1.60,-3.63,0.39,-4.61,45.50,-7.39,-5.58,3.41,-6.91,928.28
19.082,-1.60,-3.63,0.39,6.20,38.05,-4.41,-5.58,3.41,-6.91,928.28
19.132,-1.60,-3.63,0.39,6.20,38.05,-4.41,-4.71,-2.36,-5.56,928.28
19.152,-1.60,-3.63,0.39,6.20,38.05,-4.41,-4.71,-2.36,-5.56,928.34
19.153,-1.16,-2.05,0.99,6.20,38.05,-4.41,-4.71,-2.36,-5.56,928.34
19.153,-1.16,-2.05,0.99,1.62,19.08,-8.52,-4.71,-2.36,-5.56,928.34
19.197,-1.16,-2.05,0.99,1.62,19.08,-8.52,-2.24,0.31,-4.11,928.34
19.207,-1.16,-2.05,0.99,1.62,19.08,-8.52,-2.24,0.31,-4.11,928.34
19.209,-2.47,-0.55,1.12,1.62,19.08,-8.52,-2.24,0.31,-4.11,928.34
19.21,-2.47,-0.55,1.12,14.98,2.02,-10.57,-2.24,0.31,-4.11,928.34
19.258,-2.47,-0.55,1.12,14.98,2.02,-10.57,-0.80,0.59,-1.30,928.34
19.273,-3.73,-0.09,1.12,14.98,2.02,-10.57,-0.80,0.59,-1.30,928.34
19.274,-3.73,-0.09,1.12,27.48,-3.00,-10.85,-0.80,0.59,-1.30,928.34
19.275,-3.73,-0.09,1.12,27.48,-3.00,-10.85,-0.80,0.59,-1.30,928.41
19.322,-3.73,-0.09,1.12,27.48,-3.00,-10.85,1.08,0.73,0.18,928.41
19.336,-3.73,-0.09,1.12,29.57,9.33,-11.71,1.08,0.73,0.18,928.41
19.338,-3.95,-1.33,1.19,29.57,9.33,-11.71,1.08,0.73,0.18,928.41
19.341,-3.95,-1.33,1.19,29.57,9.33,-11.71,1.08,0.73,0.18,928.41
19.386,-3.95,-1.33,1.19,29.57,9.33,-11.71,3.03,1.47,0.56,928.41
19.404,-4.01,-0.90,0.59,29.57,9.33,-11.71,3.03,1.47,0.56,928.41
19.405,-4.01,-0.90,0.59,30.06,5.49,-5.82,3.03,1.47,0.56,928.41
19.433,-4.01,-0.90,0.59,30.06,5.49,-5.82,3.03,1.47,0.56,928.45
19.449,-4.01,-0.90,0.59,30.06,5.49,-5.82,3.65,-1.64,2.48,928.45
19.462,-3.07,-0.45,0.30,30.06,5.49,-5.82,3.65,-1.64,2.48,928.45
19.464,-3.07,-0.45,0.30,20.48,2.99,-1.22,3.65,-1.64,2.48,928.45
19.474,-3.07,-0.45,0.30,20.48,2.99,-1.22,3.65,-1.64,2.48,928.45
19.511,-3.07,-0.45,0.30,20.48,2.99,-1.22,4.57,-0.45,5.01,928.45
19.526,-1.28,-1.55,0.60,20.48,2.99,-1.22,4.57,-0.45,5.01,928.45
19.526,-1.28,-1.55,0.60,3.08,17.42,-4.34,4.57,-0.45,5.01,928.45
19.549,-1.28,-1.55,0.60,3.08,17.42,-4.34,4.57,-0.45,5.01,928.45
19.58,-1.28,-1.55,0.60,3.08,17.42,-4.34,4.71,1.05,6.49,928.45
19.59,-0.98,-2.22,0.69,3.08,17.42,-4.34,4.71,1.05,6.49,928.45
19.59,-0.98,-2.22,0.69,1.91,27.87,-6.92,4.71,1.05,6.49,928.45
19.607,-0.98,-2.22,0.69,1.91,27.87,-6.92,4.71,1.05,6.49,928.50
19.638,-0.98,-2.22,0.69,1.91,27.87,-6.92,4.41,-1.38,6.77,928.50
19.653,-0.98,-2.22,0.69,1.68,29.71,-8.74,4.41,-1.38,6.77,928.50
19.654,-0.65,-2.17,0.73,1.68,29.71,-8.74,4.41,-1.38,6.77,928.50
19.684,-0.65,-2.17,0.73,1.68,29.71,-8.74,4.41,-1.38,6.77,928.50
19.711,-0.65,-2.17,0.73,1.68,29.71,-8.74,4.36,-0.97,5.98,928.50
19.716,-0.43,-1.83,0.58,1.68,29.71,-8.74,4.36,-0.97,5.98,928.50
19.716,-0.43,-1.83,0.58,2.68,26.74,-9.59,4.36,-0.97,5.98,928.50
19.742,-0.43,-1.83,0.58,2.68,26.74,-9.59,4.36,-0.97,5.98,928.56
19.764,-0.43,-1.83,0.58,2.68,26.74,-9.59,4.34,-1.20,4.61,928.56
19.781,0.64,-1.15,-1.16,2.68,26.74,-9.59,4.34,-1.20,4.61,928.56
19.782,0.64,-1.15,-1.16,-5.95,18.82,5.17,4.34,-1.20,4.61,928.56
19.809,0.64,-1.15,-1.16,-5.95,18.82,5.17,4.34,-1.20,4.61,928.56
19.833,0.64,-1.15,-1.16,-5.95,18.82,5.17,1.46,-1.61,1.29,928.56
19.842,2.92,-0.90,-5.91,-5.95,18.82,5.17,1.46,-1.61,1.29,928.56
19.842,2.92,-0.90,-5.91,-28.49,15.92,51.25,1.46,-1.61,1.29,928.56
19.874,2.92,-0.90,-5.91,-28.49,15.92,51.25,1.46,-1.61,1.29,928.30
19.892,2.92,-0.90,-5.91,-28.49,15.92,51.25,-0.34,4.57,-1.31,928.30
19.908,1.42,-0.96,-2.07,-28.49,15.92,51.25,-0.34,4.57,-1.31,928.30
19.908,1.42,-0.96,-2.07,-12.90,16.83,14.14,-0.34,4.57,-1.31,928.30
19.95,1.42,-0.96,-2.07,-12.90,16.83,14.14,-0.34,4.57,-1.31,928.30
19.955,1.42,-0.96,-2.07,-12.90,16.83,14.14,-2.82,-0.89,-6.06,928.30
19.98,1.17,-1.95,-0.74,-12.90,16.83,14.14,-2.82,-0.89,-6.06,928.30
19.981,1.17,-1.95,-0.74,-14.00,27.45,2.83,-2.82,-0.89,-6.06,928.30
20.007,1.17,-1.95,-0.74,-14.00,27.45,2.83,-2.82,-0.89,-6.06,928.30
20.018,1.17,-1.95,-0.74,-14.00,27.45,2.83,-4.93,1.11,-7.38,928.30
20.032,-0.23,-2.89,0.62,-14.00,27.45,2.83,-4.93,1.11,-7.38,928.30
20.033,-0.23,-2.89,0.62,-3.92,35.61,-8.30,-4.93,1.11,-7.38,928.30
20.075,-0.23,-2.89,0.62,-3.92,35.61,-8.30,-4.93,1.11,-7.38,928.32
20.081,-0.23,-2.89,0.62,-3.92,35.61,-8.30,-4.92,0.30,-7.48,928.32
20.098,-0.23,-2.89,0.62,1.21,36.44,-5.86,-4.92,0.30,-7.48,928.32
20.098,-1.03,-3.29,0.55,1.21,36.44,-5.86,-4.92,0.30,-7.48,928.32
20.143,-1.03,-3.29,0.55,1.21,36.44,-5.86,-4.92,0.30,-7.48,928.32
20.145,-1.03,-3.29,0.55,1.21,36.44,-5.86,-4.31,0.11,-5.88,928.32
20.16,-1.03,-3.29,0.55,6.28,21.98,-4.77,-4.31,0.11,-5.88,928.32
20.161,-1.64,-2.16,0.51,6.28,21.98,-4.77,-4.31,0.11,-5.88,928.32
20.208,-1.64,-2.16,0.51,6.28,21.98,-4.77,-2.94,-0.40,-4.19,928.32
20.209,-1.64,-2.16,0.51,6.28,21.98,-4.77,-2.94,-0.40,-4.19,928.40
20.222,-2.55,-0.46,0.40,6.28,21.98,-4.77,-2.94,-0.40,-4.19,928.40
20.222,-2.55,-0.46,0.40,15.29,2.85,-3.59,-2.94,-0.40,-4.19,928.40
20.271,-2.55,-0.46,0.40,15.29,2.85,-3.59,-2.53,0.50,-1.77,928.40
20.274,-2.55,-0.46,0.40,15.29,2.85,-3.59,-2.53,0.50,-1.77,928.40
20.285,-3.60,-0.06,0.60,15.29,2.85,-3.59,-2.53,0.50,-1.77,928.40
20.286,-3.60,-0.06,0.60,25.76,-1.96,-6.17,-2.53,0.50,-1.77,928.40
20.335,-3.60,-0.06,0.60,25.76,-1.96,-6.17,-2.13,-0.88,-0.65,928.40
20.362,-3.60,-0.06,0.60,25.76,-1.96,-6.17,-2.13,-0.88,-0.65,928.47
20.363,-3.89,-1.01,1.36,25.76,-1.96,-6.17,-2.13,-0.88,-0.65,928.47
20.364,-3.89,-1.01,1.36,28.66,7.00,-13.24,-2.13,-0.88,-0.65,928.47
20.397,-3.89,-1.01,1.36,28.66,7.00,-13.24,0.67,-0.88,-0.54,928.47
20.408,-3.89,-1.01,1.36,28.66,7.00,-13.24,0.67,-0.88,-0.54,928.47
20.412,-4.23,-0.11,1.28,28.66,7.00,-13.24,0.67,-0.88,-0.54,928.47
20.413,-4.23,-0.11,1.28,32.05,-1.99,-11.78,0.67,-0.88,-0.54,928.47
20.469,-4.23,-0.11,1.28,32.05,-1.99,-11.78,1.82,-1.83,1.86,928.47
20.5,-4.23,-0.11,1.28,32.05,-1.99,-11.78,1.82,-1.83,1.86,928.58
20.501,-2.79,-0.07,1.01,32.05,-1.99,-11.78,1.82,-1.83,1.86,928.58
20.501,-2.79,-0.07,1.01,17.87,-0.82,-7.67,1.82,-1.83,1.86,928.58
20.524,-2.79,-0.07,1.01,17.87,-0.82,-7.67,4.20,-1.16,3.94,928.58
20.538,-1.33,-1.51,0.80,17.87,-0.82,-7.67,4.20,-1.16,3.94,928.58
20.538,-1.33,-1.51,0.80,3.79,16.56,-5.00,4.20,-1.16,3.94,928.58
20.544,-1.33,-1.51,0.80,3.79,16.56,-5.00,4.20,-1.16,3.94,928.58
20.588,-1.33,-1.51,0.80,3.79,16.56,-5.00,5.67,-0.53,5.31,928.58
20.603,-1.33,-1.51,0.80,0.36,27.48,-3.99,5.67,-0.53,5.31,928.58
20.604,-0.85,-2.24,0.58,0.36,27.48,-3.99,5.67,-0.53,5.31,928.58
20.619,-0.85,-2.24,0.58,0.36,27.48,-3.99,5.67,-0.53,5.31,928.58
20.656,-0.85,-2.24,0.58,0.36,27.48,-3.99,5.76,-1.71,6.01,928.58
20.669,-0.76,-2.30,0.56,0.36,27.48,-3.99,5.76,-1.71,6.01,928.58
20.669,-0.76,-2.30,0.56,2.29,30.81,-5.52,5.76,-1.71,6.01,928.58
20.675,-0.76,-2.30,0.56,2.29,30.81,-5.52,5.76,-1.71,6.01,928.60
20.718,-0.76,-2.30,0.56,2.29,30.81,-5.52,5.88,-3.06,5.61,928.60
20.746,-0.76,-2.30,0.56,5.69,31.02,-10.25,5.88,-3.06,5.61,928.60
20.747,-0.83,-2.24,0.77,5.69,31.02,-10.25,5.88,-3.06,5.61,928.60
20.747,-0.83,-2.24,0.77,5.69,31.02,-10.25,5.88,-3.06,5.61,928.60
20.777,-0.83,-2.24,0.77,5.69,31.02,-10.25,7.27,-2.63,3.69,928.60
20.793,0.83,-1.63,-0.98,5.69,31.02,-10.25,7.27,-2.63,3.69,928.60
20.794,0.83,-1.63,-0.98,-8.90,23.18,3.12,7.27,-2.63,3.69,928.60
20.808,0.83,-1.63,-0.98,-8.90,23.18,3.12,7.27,-2.63,3.69,928.54
20.841,0.83,-1.63,-0.98,-8.90,23.18,3.12,3.28,1.86,2.03,928.54
20.855,2.02,-1.53,-6.73,-8.90,23.18,3.12,3.28,1.86,2.03,928.54
20.856,2.02,-1.53,-6.73,-19.87,21.21,58.52,3.28,1.86,2.03,928.54
20.884,2.02,-1.53,-6.73,-19.87,21.21,58.52,3.28,1.86,2.03,928.54
20.912,2.02,-1.53,-6.73,-19.87,21.21,58.52,-1.33,2.81,-0.30,928.54
20.919,1.79,-1.28,-2.37,-19.87,21.21,58.52,-1.33,2.81,-0.30,928.54
20.919,1.79,-1.28,-2.37,-16.06,19.57,16.66,-1.33,2.81,-0.30,928.54
20.941,1.79,-1.28,-2.37,-16.06,19.57,16.66,-1.33,2.81,-0.30,928.31
20.967,1.79,-1.28,-2.37,-16.06,19.57,16.66,-4.33,-0.41,-5.96,928.31
20.982,1.08,-1.70,-0.96,-16.06,19.57,16.66,-4.33,-0.41,-5.96,928.31
20.983,1.08,-1.70,-0.96,-12.76,25.21,5.35,-4.33,-0.41,-5.96,928.31
21.018,1.08,-1.70,-0.96,-12.76,25.21,5.35,-4.33,-0.41,-5.96,928.31
21.046,1.08,-1.70,-0.96,-12.76,25.21,5.35,-6.61,-0.15,-8.42,928.31
21.046,-0.15,-2.99,0.76,-12.76,25.21,5.35,-6.61,-0.15,-8.42,928.31
21.046,-0.15,-2.99,0.76,-5.19,36.43,-8.26,-6.61,-0.15,-8.42,928.31
21.074,-0.15,-2.99,0.76,-5.19,36.43,-8.26,-6.61,-0.15,-8.42,928.31
21.094,-0.15,-2.99,0.76,-5.19,36.43,-8.26,-4.91,3.83,-7.28,928.31
21.109,-1.25,-2.90,0.39,-5.19,36.43,-8.26,-4.91,3.83,-7.28,928.31
21.11,-1.25,-2.90,0.39,3.30,32.36,-4.94,-4.91,3.83,-7.28,928.31
21.151,-1.25,-2.90,0.39,3.30,32.36,-4.94,-4.91,3.83,-7.28,928.41
21.181,-1.25,-2.90,0.39,3.30,32.36,-4.94,-4.09,0.91,-5.43,928.41
21.182,-1.18,-1.99,0.51,3.30,32.36,-4.94,-4.09,0.91,-5.43,928.41
21.182,-1.18,-1.99,0.51,1.80,20.45,-5.58,-4.09,0.91,-5.43,928.41
21.208,-1.18,-1.99,0.51,1.80,20.45,-5.58,-4.09,0.91,-5.43,928.41
21.22,-1.18,-1.99,0.51,1.80,20.45,-5.58,-3.57,-1.57,-4.83,928.41
21.235,-1.65,-0.99,0.52,1.80,20.45,-5.58,-3.57,-1.57,-4.83,928.41
21.236,-1.65,-0.99,0.52,6.51,7.87,-4.75,-3.57,-1.57,-4.83,928.41
21.286,-1.65,-0.99,0.52,6.51,7.87,-4.75,-3.57,-1.57,-4.83,928.40
21.287,-1.65,-0.99,0.52,6.51,7.87,-4.75,-2.29,-1.06,-2.46,928.40
21.316,-2.92,0.06,0.82,6.51,7.87,-4.75,-2.29,-1.06,-2.46,928.40
21.317,-2.92,0.06,0.82,19.30,-3.72,-7.53,-2.29,-1.06,-2.46,928.40
21.341,-2.92,0.06,0.82,19.30,-3.72,-7.53,-2.29,-1.06,-2.46,928.40
21.347,-2.92,0.06,0.82,19.30,-3.72,-7.53,-1.54,-0.60,-0.22,928.40
21.361,-3.71,-0.58,1.22,19.30,-3.72,-7.53,-1.54,-0.60,-0.22,928.40
21.362,-3.71,-0.58,1.22,27.05,2.48,-11.34,-1.54,-0.60,-0.22,928.40
21.426,-3.71,-0.58,1.22,27.05,2.48,-11.34,-1.54,-0.60,-0.22,928.51
21.428,-3.71,-0.58,1.22,27.05,2.48,-11.34,0.87,0.44,0.02,928.51
21.428,-3.76,-1.01,1.14,27.05,2.48,-11.34,0.87,0.44,0.02,928.51
21.429,-3.76,-1.01,1.14,27.55,6.70,-10.62,0.87,0.44,0.02,928.51
21.474,-3.76,-1.01,1.14,27.55,6.70,-10.62,1.83,-2.86,0.57,928.51
21.475,-3.76,-1.01,1.14,27.55,6.70,-10.62,1.83,-2.86,0.57,928.51
21.488,-3.71,-0.06,0.86,27.55,6.70,-10.62,1.83,-2.86,0.57,928.51
21.488,-3.71,-0.06,0.86,27.24,-1.83,-5.44,1.83,-2.86,0.57,928.51
21.538,-3.71,-0.06,0.86,27.24,-1.83,-5.44,3.91,-3.22,2.89,928.51
21.544,-3.71,-0.06,0.86,27.24,-1.83,-5.44,3.91,-3.22,2.89,928.51
21.552,-2.03,-0.75,1.05,27.24,-1.83,-5.44,3.91,-3.22,2.89,928.51
21.553,-2.03,-0.75,1.05,11.25,7.84,-5.61,3.91,-3.22,2.89,928.51
21.602,-2.03,-0.75,1.05,11.25,7.84,-5.61,5.93,0.72,5.11,928.51
21.608,-2.03,-0.75,1.05,11.25,7.84,-5.61,5.93,0.72,5.11,928.50
21.618,-0.87,-1.82,0.93,11.25,7.84,-5.61,5.93,0.72,5.11,928.50
21.618,-0.87,-1.82,0.93,0.53,22.66,-5.90,5.93,0.72,5.11,928.50
21.664,-0.87,-1.82,0.93,0.53,22.66,-5.90,5.92,-0.26,5.84,928.50
21.675,-0.87,-1.82,0.93,0.53,22.66,-5.90,5.92,-0.26,5.84,928.50
21.678,-0.65,-1.89,0.80,0.53,22.66,-5.90,5.92,-0.26,5.84,928.50
21.68,-0.65,-1.89,0.80,0.86,26.56,-6.85,5.92,-0.26,5.84,928.50
21.728,-0.65,-1.89,0.80,0.86,26.56,-6.85,5.83,-1.79,5.40,928.50
21.742,-0.65,-1.89,0.80,0.86,26.56,-6.85,5.83,-1.79,5.40,928.55
21.746,-0.36,-1.69,0.63,0.86,26.56,-6.85,5.83,-1.79,5.40,928.55
21.747,-0.36,-1.69,0.63,0.95,25.83,-8.05,5.83,-1.79,5.40,928.55
21.79,-0.36,-1.69,0.63,0.95,25.83,-8.05,5.25,-0.62,4.75,928.55
21.805,-0.23,-1.49,0.39,0.95,25.83,-8.05,5.25,-0.62,4.75,928.55
21.806,-0.23,-1.49,0.39,2.15,23.08,-8.58,5.25,-0.62,4.75,928.55
21.808,-0.23,-1.49,0.39,2.15,23.08,-8.58,5.25,-0.62,4.75,928.55
21.854,-0.23,-1.49,0.39,2.15,23.08,-8.58,4.51,0.47,1.81,928.55
21.869,-0.23,-1.49,0.39,-17.71,15.13,30.08,4.51,0.47,1.81,928.55
21.87,1.91,-0.85,-3.77,-17.71,15.13,30.08,4.51,0.47,1.81,928.55
21.874,1.91,-0.85,-3.77,-17.71,15.13,30.08,4.51,0.47,1.81,928.26
21.919,1.91,-0.85,-3.77,-17.71,15.13,30.08,-0.48,1.59,-1.09,928.26
21.933,2.56,-1.62,-4.53,-17.71,15.13,30.08,-0.48,1.59,-1.09,928.26
21.934,2.56,-1.62,-4.53,-23.79,23.24,38.22,-0.48,1.59,-1.09,928.26
21.942,2.56,-1.62,-4.53,-23.79,23.24,38.22,-0.48,1.59,-1.09,928.26
21.981,2.56,-1.62,-4.53,-23.79,23.24,38.22,-2.11,3.58,-4.62,928.26
22.0,1.21,-1.21,-1.45,-23.79,23.24,38.22,-2.11,3.58,-4.62,928.26
22.002,1.21,-1.21,-1.45,-12.43,20.44,9.59,-2.11,3.58,-4.62,928.26
22.008,1.21,-1.21,-1.45,-12.43,20.44,9.59,-2.11,3.58,-4.62,928.15
22.05,1.21,-1.21,-1.45,-12.43,20.44,9.59,-5.40,-0.54,-8.06,928.15
22.077,0.18,-2.64,0.43,-12.43,20.44,9.59,-5.40,-0.54,-8.06,928.15
22.078,0.18,-2.64,0.43,-6.95,33.96,-5.87,-5.40,-0.54,-8.06,928.15
22.078,0.18,-2.64,0.43,-6.95,33.96,-5.87,-5.40,-0.54,-8.06,928.15
22.107,0.18,-2.64,0.43,-6.95,33.96,-5.87,-4.84,2.97,-8.11,928.15
22.122,-0.90,-3.19,0.50,-6.95,33.96,-5.87,-4.84,2.97,-8.11,928.15
22.124,-0.90,-3.19,0.50,0.45,36.23,-6.08,-4.84,2.97,-8.11,928.15
22.142,-0.90,-3.19,0.50,0.45,36.23,-6.08,-4.84,2.97,-8.11,928.15
22.17,-0.90,-3.19,0.50,0.45,36.23,-6.08,-3.19,1.71,-6.22,928.15
22.185,-0.90,-3.19,0.50,3.28,25.74,-5.36,-3.19,1.71,-6.22,928.15
22.187,-1.32,-2.44,0.45,3.28,25.74,-5.36,-3.19,1.71,-6.22,928.15
22.209,-1.32,-2.44,0.45,3.28,25.74,-5.36,-3.19,1.71,-6.22,928.22
22.24,-1.32,-2.44,0.45,3.28,25.74,-5.36,-2.73,-2.08,-5.22,928.22
22.25,-1.32,-2.44,0.45,2.64,11.35,-5.79,-2.73,-2.08,-5.22,928.22
22.251,-1.27,-1.29,0.62,2.64,11.35,-5.79,-2.73,-2.08,-5.22,928.22
22.275,-1.27,-1.29,0.62,2.64,11.35,-5.79,-2.73,-2.08,-5.22,928.22
22.296,-1.27,-1.29,0.62,2.64,11.35,-5.79,-1.17,0.20,-3.57,928.22
22.312,-1.27,-1.29,0.62,18.00,-2.11,-4.68,-1.17,0.20,-3.57,928.22
22.313,-2.79,-0.11,0.48,18.00,-2.11,-4.68,-1.17,0.20,-3.57,928.22
22.343,-2.79,-0.11,0.48,18.00,-2.11,-4.68,-1.17,0.20,-3.57,928.28
22.361,-2.79,-0.11,0.48,18.00,-2.11,-4.68,-1.00,-0.48,-1.23,928.28
22.376,-2.79,-0.11,0.48,27.17,1.99,-6.92,-1.00,-0.48,-1.23,928.28
22.378,-3.70,-0.59,0.72,27.17,1.99,-6.92,-1.00,-0.48,-1.23,928.28
22.409,-3.70,-0.59,0.72,27.17,1.99,-6.92,-1.00,-0.48,-1.23,928.28
22.423,-3.70,-0.59,0.72,27.17,1.99,-6.92,0.48,-0.40,-0.68,928.28
22.438,-3.70,-0.59,0.72,35.05,8.13,-7.97,0.48,-0.40,-0.68,928.28
22.44,-4.49,-1.25,0.87,35.05,8.13,-7.97,0.48,-0.40,-0.68,928.28
22.475,-4.49,-1.25,0.87,35.05,8.13,-7.97,0.48,-0.40,-0.68,928.34
22.487,-4.49,-1.25,0.87,35.05,8.13,-7.97,1.44,-0.63,0.67,928.34
22.502,-4.49,-1.25,0.87,32.08,-3.17,-5.57,1.44,-0.63,0.67,928.34
22.503,-4.21,-0.03,0.71,32.08,-3.17,-5.57,1.44,-0.63,0.67,928.34
22.542,-4.21,-0.03,0.71,32.08,-3.17,-5.57,1.44,-0.63,0.67,928.34
22.55,-4.21,-0.03,0.71,32.08,-3.17,-5.57,1.81,-1.39,3.14,928.34
22.565,-4.21,-0.03,0.71,15.02,3.15,-5.87,1.81,-1.39,3.14,928.34
22.566,-2.50,-0.43,0.84,15.02,3.15,-5.87,1.81,-1.39,3.14,928.34
22.609,-2.50,-0.43,0.84,15.02,3.15,-5.87,1.81,-1.39,3.14,928.34
22.614,-2.50,-0.43,0.84,15.02,3.15,-5.87,3.78,0.56,5.62,928.34
22.629,-1.35,-2.13,0.70,15.02,3.15,-5.87,3.78,0.56,5.62,928.34
22.629,-1.35,-2.13,0.70,3.98,23.85,-5.20,3.78,0.56,5.62,928.34
22.675,-1.35,-2.13,0.70,3.98,23.85,-5.20,3.78,0.56,5.62,928.35
22.677,-1.35,-2.13,0.70,3.98,23.85,-5.20,4.31,0.19,7.14,928.35
22.691,-0.91,-2.66,0.65,3.98,23.85,-5.20,4.31,0.19,7.14,928.35
22.692,-0.91,-2.66,0.65,1.99,33.04,-6.05,4.31,0.19,7.14,928.35
22.742,-0.91,-2.66,0.65,1.99,33.04,-6.05,4.16,-1.28,7.32,928.35
22.777,-0.91,-2.66,0.65,1.99,33.04,-6.05,4.16,-1.28,7.32,928.35
22.778,-0.64,-2.29,0.50,1.99,33.04,-6.05,4.16,-1.28,7.32,928.35
22.778,-0.64,-2.29,0.50,3.06,31.55,-6.29,4.16,-1.28,7.32,928.35
22.803,-0.64,-2.29,0.50,3.06,31.55,-6.29,3.90,-2.41,6.34,928.35
22.808,-0.64,-2.29,0.50,3.06,31.55,-6.29,3.90,-2.41,6.34,928.45
22.818,-0.26,-1.92,0.25,3.06,31.55,-6.29,3.90,-2.41,6.34,928.45
22.819,-0.26,-1.92,0.25,2.45,27.89,-5.94,3.90,-2.41,6.34,928.45
22.872,-0.26,-1.92,0.25,2.45,27.89,-5.94,4.11,-2.32,3.97,928.45
22.875,-0.26,-1.92,0.25,2.45,27.89,-5.94,4.11,-2.32,3.97,928.45
22.905,-0.26,-1.92,0.25,-9.31,18.66,6.13,4.11,-2.32,3.97,928.45
22.906,1.08,-1.12,-1.22,-9.31,18.66,6.13,4.11,-2.32,3.97,928.45
22.93,1.08,-1.12,-1.22,-9.31,18.66,6.13,0.45,-1.55,0.66,928.45
22.942,1.08,-1.12,-1.22,-9.31,18.66,6.13,0.45,-1.55,0.66,928.19
22.945,1.08,-1.12,-1.22,-27.18,17.16,62.21,0.45,-1.55,0.66,928.19
22.945,2.93,-0.97,-6.94,-27.18,17.16,62.21,0.45,-1.55,0.66,928.19
22.994,2.93,-0.97,-6.94,-27.18,17.16,62.21,-0.20,5.57,-2.12,928.19
23.008,2.93,-0.97,-6.94,-13.11,11.62,12.98,-0.20,5.57,-2.12,928.19
23.01,1.47,-0.34,-1.83,-13.11,11.62,12.98,-0.20,5.57,-2.12,928.19
23.039,1.47,-0.34,-1.83,-13.11,11.62,12.98,-0.20,5.57,-2.12,928.19
23.056,1.47,-0.34,-1.83,-13.11,11.62,12.98,-3.27,0.50,-7.72,928.19
23.072,0.68,-2.31,-0.53,-13.11,11.62,12.98,-3.27,0.50,-7.72,928.19
23.073,0.68,-2.31,-0.53,-9.53,31.41,1.99,-3.27,0.50,-7.72,928.19
23.075,0.68,-2.31,-0.53,-9.53,31.41,1.99,-3.27,0.50,-7.72,928.18
23.12,0.68,-2.31,-0.53,-9.53,31.41,1.99,-3.92,3.53,-8.48,928.18
23.135,0.68,-2.31,-0.53,1.85,34.96,-3.67,-3.92,3.53,-8.48,928.18
23.136,-0.86,-2.86,0.16,1.85,34.96,-3.67,-3.92,3.53,-8.48,928.18
23.142,-0.86,-2.86,0.16,1.85,34.96,-3.67,-3.92,3.53,-8.48,928.18
23.184,-0.86,-2.86,0.16,1.85,34.96,-3.67,-4.54,-0.60,-6.37,928.18
23.199,-0.86,-2.55,0.37,1.85,34.96,-3.67,-4.54,-0.60,-6.37,928.18
23.202,-0.86,-2.55,0.37,-0.43,29.22,-3.47,-4.54,-0.60,-6.37,928.18
23.208,-0.86,-2.55,0.37,-0.43,29.22,-3.47,-4.54,-0.60,-6.37,928.18
23.258,-0.86,-2.55,0.37,-0.43,29.22,-3.47,-4.54,-0.86,-5.47,928.18
23.295,-1.16,-1.86,0.73,-0.43,29.22,-3.47,-4.54,-0.86,-5.47,928.18
23.296,-1.16,-1.86,0.73,1.60,19.04,-5.88,-4.54,-0.86,-5.47,928.18
23.297,-1.16,-1.86,0.73,1.60,19.04,-5.88,-4.54,-0.86,-5.47,928.27
23.31,-1.16,-1.86,0.73,1.60,19.04,-5.88,-2.15,0.04,-3.79,928.27
23.326,-2.01,-0.56,0.94,1.60,19.04,-5.88,-2.15,0.04,-3.79,928.27
23.327,-2.01,-0.56,0.94,9.96,3.96,-8.12,-2.15,0.04,-3.79,928.27
23.343,-2.01,-0.56,0.94,9.96,3.96,-8.12,-2.15,0.04,-3.79,928.27
23.374,-2.01,-0.56,0.94,9.96,3.96,-8.12,-0.10,1.99,-1.61,928.27
23.388,-3.75,0.13,0.59,9.96,3.96,-8.12,-0.10,1.99,-1.61,928.27
23.388,-3.75,0.13,0.59,27.15,-3.50,-5.84,-0.10,1.99,-1.61,928.27
23.409,-3.75,0.13,0.59,27.15,-3.50,-5.84,-0.10,1.99,-1.61,928.37
23.437,-3.75,0.13,0.59,27.15,-3.50,-5.84,-0.14,-0.75,-0.25,928.37
23.453,-3.75,0.13,0.59,28.47,3.53,-8.41,-0.14,-0.75,-0.25,928.37
23.454,-3.88,-0.60,0.91,28.47,3.53,-8.41,-0.14,-0.75,-0.25,928.37
23.476,-3.88,-0.60,0.91,28.47,3.53,-8.41,-0.14,-0.75,-0.25,928.37
23.499,-3.88,-0.60,0.91,28.47,3.53,-8.41,1.75,0.24,-0.51,928.37
23.514,-3.88,-0.60,0.91,24.95,2.28,-7.48,1.75,0.24,-0.51,928.37
23.515,-3.51,-0.50,0.83,24.95,2.28,-7.48,1.75,0.24,-0.51,928.37
23.545,-3.51,-0.50,0.83,24.95,2.28,-7.48,1.75,0.24,-0.51,928.39
23.576,-3.51,-0.50,0.83,24.95,2.28,-7.48,2.12,-1.48,0.84,928.39
23.579,-3.51,-0.50,0.83,23.42,-5.52,-5.08,2.12,-1.48,0.84,928.39
23.58,-3.36,0.39,0.73,23.42,-5.52,-5.08,2.12,-1.48,0.84,928.39
23.609,-3.36,0.39,0.73,23.42,-5.52,-5.08,2.12,-1.48,0.84,928.39
23.626,-3.36,0.39,0.73,23.42,-5.52,-5.08,3.04,-2.31,3.71,928.39
23.641,-1.83,-1.07,0.84,23.42,-5.52,-5.08,3.04,-2.31,3.71,928.39
23.642,-1.83,-1.07,0.84,8.75,11.79,-4.90,3.04,-2.31,3.71,928.39
23.677,-1.83,-1.07,0.84,8.75,11.79,-4.90,3.04,-2.31,3.71,928.39
23.689,-1.83,-1.07,0.84,8.75,11.79,-4.90,5.17,-0.17,5.12,928.39
23.703,-0.80,-1.78,0.82,8.75,11.79,-4.90,5.17,-0.17,5.12,928.39
23.704,-0.80,-1.78,0.82,-0.32,22.53,-5.83,5.17,-0.17,5.12,928.39
23.742,-0.80,-1.78,0.82,-0.32,22.53,-5.83,5.17,-0.17,5.12,928.44
23.753,-0.80,-1.78,0.82,-0.32,22.53,-5.83,5.28,0.25,5.64,928.44
23.77,-0.69,-1.85,0.62,-0.32,22.53,-5.83,5.28,0.25,5.64,928.44
23.771,-0.69,-1.85,0.62,0.97,26.03,-6.17,5.28,0.25,5.64,928.44
23.809,-0.69,-1.85,0.62,0.97,26.03,-6.17,5.28,0.25,5.64,928.44
23.84,-0.69,-1.85,0.62,0.97,26.03,-6.17,4.97,-1.50,5.94,928.44
23.841,-0.76,-1.97,0.81,0.97,26.03,-6.17,4.97,-1.50,5.94,928.44
23.841,-0.76,-1.97,0.81,4.83,28.39,-10.35,4.97,-1.50,5.94,928.44
23.875,-0.76,-1.97,0.81,4.83,28.39,-10.35,4.97,-1.50,5.94,928.62
23.88,-0.76,-1.97,0.81,4.83,28.39,-10.35,5.33,-2.28,5.07,928.62
23.894,0.21,-1.50,-0.44,4.83,28.39,-10.35,5.33,-2.28,5.07,928.62
23.894,0.21,-1.50,-0.44,-2.54,22.94,-0.91,5.33,-2.28,5.07,928.62
23.945,0.21,-1.50,-0.44,-2.54,22.94,-0.91,5.33,-2.28,5.07,928.62
23.946,0.21,-1.50,-0.44,-2.54,22.94,-0.91,3.58,1.04,1.48,928.62
23.958,2.33,-0.74,-5.95,-2.54,22.94,-0.91,3.58,1.04,1.48,928.62
23.958,2.33,-0.74,-5.95,-22.32,14.49,51.76,3.58,1.04,1.48,928.62
24.007,2.33,-0.74,-5.95,-22.32,14.49,51.76,-0.98,2.20,0.11,928.62
24.009,2.33,-0.74,-5.95,-22.32,14.49,51.76,-0.98,2.20,0.11,928.34
24.021,2.33,-0.74,-5.95,-21.16,16.52,20.00,-0.98,2.20,0.11,928.34
24.025,2.30,-0.91,-2.64,-21.16,16.52,20.00,-0.98,2.20,0.11,928.34
24.074,2.30,-0.91,-2.64,-21.16,16.52,20.00,-3.43,1.68,-4.95,928.34
24.075,2.30,-0.91,-2.64,-21.16,16.52,20.00,-3.43,1.68,-4.95,928.34
24.103,1.31,-1.32,-1.14,-21.16,16.52,20.00,-3.43,1.68,-4.95,928.34
24.104,1.31,-1.32,-1.14,-14.05,21.89,7.42,-3.43,1.68,-4.95,928.34
24.132,1.31,-1.32,-1.14,-14.05,21.89,7.42,-5.40,2.47,-8.32,928.34
24.141,1.31,-1.32,-1.14,-14.05,21.89,7.42,-5.40,2.47,-8.32,928.34
24.148,-0.07,-2.85,0.33,-14.05,21.89,7.42,-5.40,2.47,-8.32,928.34
24.149,-0.07,-2.85,0.33,-4.81,35.86,-4.63,-5.40,2.47,-8.32,928.34
24.197,-0.07,-2.85,0.33,-4.81,35.86,-4.63,-3.94,2.99,-7.28,928.34
24.21,-0.07,-2.85,0.33,-4.81,35.86,-4.63,-3.94,2.99,-7.28,928.44
24.21,-1.05,-2.84,0.40,-4.81,35.86,-4.63,-3.94,2.99,-7.28,928.44
24.211,-1.05,-2.84,0.40,2.01,33.01,-4.93,-3.94,2.99,-7.28,928.44
24.26,-1.05,-2.84,0.40,2.01,33.01,-4.93,-2.87,-0.05,-4.97,928.44
24.275,-0.81,-1.87,0.54,2.01,33.01,-4.93,-2.87,-0.05,-4.97,928.44
24.276,-0.81,-1.87,0.54,-1.53,20.85,-5.14,-2.87,-0.05,-4.97,928.44
24.277,-0.81,-1.87,0.54,-1.53,20.85,-5.14,-2.87,-0.05,-4.97,928.44
24.324,-0.81,-1.87,0.54,-1.53,20.85,-5.14,-2.39,-1.80,-4.76,928.44
24.338,-0.81,-1.87,0.54,-4.09,13.20,-5.37,-2.39,-1.80,-4.76,928.44
24.339,-0.58,-1.40,0.67,-4.09,13.20,-5.37,-2.39,-1.80,-4.76,928.44
24.341,-0.58,-1.40,0.67,-4.09,13.20,-5.37,-2.39,-1.80,-4.76,928.47
24.386,-0.58,-1.40,0.67,-4.09,13.20,-5.37,-0.94,1.85,-4.30,928.47
24.401,-2.59,-0.32,0.13,-4.09,13.20,-5.37,-0.94,1.85,-4.30,928.47
24.401,-2.59,-0.32,0.13,15.96,0.19,-1.52,-0.94,1.85,-4.30,928.47
24.409,-2.59,-0.32,0.13,15.96,0.19,-1.52,-0.94,1.85,-4.30,928.47
24.449,-2.59,-0.32,0.13,15.96,0.19,-1.52,-1.20,0.23,-2.09,928.47
24.465,-2.59,-0.32,0.13,33.83,2.38,-2.10,-1.20,0.23,-2.09,928.47
24.466,-4.37,-0.65,0.18,33.83,2.38,-2.10,-1.20,0.23,-2.09,928.47
24.477,-4.37,-0.65,0.18,33.83,2.38,-2.10,-1.20,0.23,-2.09,928.46
24.513,-4.37,-0.65,0.18,33.83,2.38,-2.10,-0.34,-1.16,-1.11,928.46
24.527,-4.55,-1.56,1.08,33.83,2.38,-2.10,-0.34,-1.16,-1.11,928.46
24.529,-4.55,-1.56,1.08,35.80,10.69,-10.34,-0.34,-1.16,-1.11,928.46
24.543,-4.55,-1.56,1.08,35.80,10.69,-10.34,-0.34,-1.16,-1.11,928.46
24.577,-4.55,-1.56,1.08,35.80,10.69,-10.34,1.22,-2.22,0.07,928.46
24.591,-4.52,-0.17,1.16,35.80,10.69,-10.34,1.22,-2.22,0.07,928.46
24.592,-4.52,-0.17,1.16,35.59,-2.56,-9.23,1.22,-2.22,0.07,928.46
24.608,-4.52,-0.17,1.16,35.59,-2.56,-9.23,1.22,-2.22,0.07,928.58
24.638,-4.52,-0.17,1.16,35.59,-2.56,-9.23,3.11,-2.69,3.04,928.58
24.654,-2.60,-0.60,1.06,35.59,-2.56,-9.23,3.11,-2.69,3.04,928.58
24.655,-2.60,-0.60,1.06,16.56,4.34,-6.35,3.11,-2.69,3.04,928.58
24.676,-2.60,-0.60,1.06,16.56,4.34,-6.35,3.11,-2.69,3.04,928.58
24.703,-2.60,-0.60,1.06,16.56,4.34,-6.35,5.06,1.43,5.42,928.58
24.72,-0.91,-2.04,0.92,16.56,4.34,-6.35,5.06,1.43,5.42,928.58
24.721,-0.91,-2.04,0.92,-0.12,22.84,-6.37,5.06,1.43,5.42,928.58
24.742,-0.91,-2.04,0.92,-0.12,22.84,-6.37,5.06,1.43,5.42,928.58
24.765,-0.91,-2.04,0.92,-0.12,22.84,-6.37,4.74,1.64,6.74,928.58
24.781,-0.81,-2.24,0.78,-0.12,22.84,-6.37,4.74,1.64,6.74,928.58
24.782,-0.81,-2.24,0.78,0.84,28.74,-7.05,4.74,1.64,6.74,928.58
24.809,-0.81,-2.24,0.78,0.84,28.74,-7.05,4.74,1.64,6.74,928.56
24.829,-0.81,-2.24,0.78,0.84,28.74,-7.05,4.29,-1.32,6.71,928.56
24.844,-0.81,-2.24,0.78,2.53,30.42,-9.23,4.29,-1.32,6.71,928.56
24.846,-0.64,-2.19,0.83,2.53,30.42,-9.23,4.29,-1.32,6.71,928.56
24.878,-0.64,-2.19,0.83,2.53,30.42,-9.23,4.29,-1.32,6.71,928.56
24.892,-0.64,-2.19,0.83,2.53,30.42,-9.23,4.43,-3.58,6.29,928.56
24.906,-0.43,-2.27,0.80,2.53,30.42,-9.23,4.43,-3.58,6.29,928.56
24.906,-0.43,-2.27,0.80,3.47,31.34,-11.16,4.43,-3.58,6.29,928.56
24.942,-0.43,-2.27,0.80,3.47,31.34,-11.16,4.43,-3.58,6.29,928.63
24.955,-0.43,-2.27,0.80,3.47,31.34,-11.16,5.62,-1.49,3.01,928.63
24.975,-0.43,-2.27,0.80,-17.33,17.53,6.69,5.62,-1.49,3.01,928.63
24.976,1.84,-1.03,-1.32,-17.33,17.53,6.69,5.62,-1.49,3.01,928.63
25.01,1.84,-1.03,-1.32,-17.33,17.53,6.69,5.62,-1.49,3.01,928.63
25.018,1.84,-1.03,-1.32,-17.33,17.53,6.69,0.24,-0.65,-0.72,928.63
25.033,1.78,-1.46,-6.94,-17.33,17.53,6.69,0.24,-0.65,-0.72,928.63
25.034,1.78,-1.46,-6.94,-17.23,21.93,62.01,0.24,-0.65,-0.72,928.63
25.076,1.78,-1.46,-6.94,-17.23,21.93,62.01,0.24,-0.65,-0.72,928.31
25.088,1.78,-1.46,-6.94,-17.23,21.93,62.01,-0.67,5.49,-1.75,928.31
25.097,1.50,-0.06,-2.09,-17.23,21.93,62.01,-0.67,5.49,-1.75,928.31
25.097,1.50,-0.06,-2.09,-14.07,8.78,15.17,-0.67,5.49,-1.75,928.31
25.144,1.50,-0.06,-2.09,-14.07,8.78,15.17,-0.67,5.49,-1.75,928.31
25.146,1.50,-0.06,-2.09,-14.07,8.78,15.17,-3.80,0.02,-6.74,928.31
25.161,0.94,-1.95,-0.77,-14.07,8.78,15.17,-3.80,0.02,-6.74,928.31
25.162,0.94,-1.95,-0.77,-12.47,27.75,4.45,-3.80,0.02,-6.74,928.31
25.209,0.94,-1.95,-0.77,-12.47,27.75,4.45,-4.52,4.10,-8.70,928.31
25.211,0.94,-1.95,-0.77,-12.47,27.75,4.45,-4.52,4.10,-8.70,928.31
25.223,-0.73,-3.22,0.17,-12.47,27.75,4.45,-4.52,4.10,-8.70,928.31
25.224,-0.73,-3.22,0.17,0.22,38.09,-4.04,-4.52,4.10,-8.70,928.31
25.272,-0.73,-3.22,0.17,0.22,38.09,-4.04,-3.78,0.66,-6.64,928.31
25.275,-0.73,-3.22,0.17,0.22,38.09,-4.04,-3.78,0.66,-6.64,928.34
25.287,-1.16,-2.61,0.21,0.22,38.09,-4.04,-3.78,0.66,-6.64,928.34
25.289,-1.16,-2.61,0.21,2.31,29.37,-2.98,-3.78,0.66,-6.64,928.34
25.336,-1.16,-2.61,0.21,2.31,29.37,-2.98,-4.36,-2.93,-4.88,928.34
25.342,-1.16,-2.61,0.21,2.31,29.37,-2.98,-4.36,-2.93,-4.88,928.34
25.35,-0.54,-1.95,0.66,2.31,29.37,-2.98,-4.36,-2.93,-4.88,928.34
25.351,-0.54,-1.95,0.66,-4.46,19.89,-4.96,-4.36,-2.93,-4.88,928.34
25.399,-0.54,-1.95,0.66,-4.46,19.89,-4.96,-3.42,-0.25,-4.68,928.34
25.409,-0.54,-1.95,0.66,-4.46,19.89,-4.96,-3.42,-0.25,-4.68,928.38
25.414,-1.45,-1.26,0.83,-4.46,19.89,-4.96,-3.42,-0.25,-4.68,928.38
25.414,-1.45,-1.26,0.83,4.73,10.04,-6.81,-3.42,-0.25,-4.68,928.38
25.462,-1.45,-1.26,0.83,4.73,10.04,-6.81,-2.13,0.93,-2.79,928.38
25.477,-1.45,-1.26,0.83,4.73,10.04,-6.81,-2.13,0.93,-2.79,928.38
25.479,-1.45,-1.26,0.83,16.75,-0.91,-10.25,-2.13,0.93,-2.79,928.38
25.48,-2.64,-0.30,1.09,16.75,-0.91,-10.25,-2.13,0.93,-2.79,928.38
25.526,-2.64,-0.30,1.09,16.75,-0.91,-10.25,-0.16,0.73,-1.44,928.38
25.546,-3.62,-1.25,0.99,16.75,-0.91,-10.25,-0.16,0.73,-1.44,928.38
25.548,-3.62,-1.25,0.99,26.74,7.64,-9.68,-0.16,0.73,-1.44,928.38
25.549,-3.62,-1.25,0.99,26.74,7.64,-9.68,-0.16,0.73,-1.44,928.51
25.589,-3.62,-1.25,0.99,26.74,7.64,-9.68,0.89,-0.04,-1.05,928.51
25.604,-4.70,-1.31,0.90,26.74,7.64,-9.68,0.89,-0.04,-1.05,928.51
25.608,-4.70,-1.31,0.90,37.62,7.73,-8.31,0.89,-0.04,-1.05,928.51
25.608,-4.70,-1.31,0.90,37.62,7.73,-8.31,0.89,-0.04,-1.05,928.51
25.654,-4.70,-1.31,0.90,37.62,7.73,-8.31,0.99,-2.51,0.69,928.51
25.667,-4.15,-0.15,1.04,37.62,7.73,-8.31,0.99,-2.51,0.69,928.51
25.668,-4.15,-0.15,1.04,32.20,-2.96,-7.71,0.99,-2.51,0.69,928.51
25.676,-4.15,-0.15,1.04,32.20,-2.96,-7.71,0.99,-2.51,0.69,928.51
25.718,-4.15,-0.15,1.04,32.20,-2.96,-7.71,1.68,-7.53,2.77,928.51
25.73,-1.78,-0.82,1.66,32.20,-2.96,-7.71,1.68,-7.53,2.77,928.51
25.731,-1.78,-0.82,1.66,10.48,5.79,-9.66,1.68,-7.53,2.77,928.51
25.743,-1.78,-0.82,1.66,10.48,5.79,-9.66,1.68,-7.53,2.77,928.62
25.78,-1.78,-0.82,1.66,10.48,5.79,-9.66,6.34,-2.62,2.65,928.62
25.794,-0.66,-2.58,1.19,10.48,5.79,-9.66,6.34,-2.62,2.65,928.62
25.795,-0.66,-2.58,1.19,0.25,27.28,-4.22,6.34,-2.62,2.65,928.62
25.81,-0.66,-2.58,1.19,0.25,27.28,-4.22,6.34,-2.62,2.65,928.62
25.842,-0.66,-2.58,1.19,0.25,27.28,-4.22,8.24,0.90,3.48,928.62
25.856,-0.63,-2.71,0.59,0.25,27.28,-4.22,8.24,0.90,3.48,928.62
25.857,-0.63,-2.71,0.59,0.57,33.15,-1.08,8.24,0.90,3.48,928.62
25.875,-0.63,-2.71,0.59,0.57,33.15,-1.08,8.24,0.90,3.48,928.61
25.905,-0.63,-2.71,0.59,0.57,33.15,-1.08,7.31,0.16,4.41,928.61
25.922,-0.63,-2.71,0.59,2.67,30.74,-2.18,7.31,0.16,4.41,928.61
25.923,-0.61,-2.21,0.34,2.67,30.74,-2.18,7.31,0.16,4.41,928.61
25.943,-0.61,-2.21,0.34,2.67,30.74,-2.18,7.31,0.16,4.41,928.61
25.969,-0.61,-2.21,0.34,2.67,30.74,-2.18,6.08,-1.61,4.16,928.61
25.99,-0.49,-1.98,0.41,2.67,30.74,-2.18,6.08,-1.61,4.16,928.61
25.991,-0.49,-1.98,0.41,3.81,28.84,-6.22,6.08,-1.61,4.16,928.61
26.009,-0.49,-1.98,0.41,3.81,28.84,-6.22,6.08,-1.61,4.16,928.61
26.031,-0.49,-1.98,0.41,3.81,28.84,-6.22,5.94,-1.69,3.49,928.61
26.047,0.21,-1.08,-0.97,3.81,28.84,-6.22,5.94,-1.69,3.49,928.61
26.048,0.21,-1.08,-0.97,-1.54,18.53,3.90,5.94,-1.69,3.49,928.61
26.077,0.21,-1.08,-0.97,-1.54,18.53,3.90,5.94,-1.69,3.49,928.61
26.096,0.21,-1.08,-0.97,-1.54,18.53,3.90,2.44,-3.26,0.61,928.61
26.13,1.63,-1.10,-6.88,-1.54,18.53,3.90,2.44,-3.26,0.61,928.61
26.131,1.63,-1.10,-6.88,-16.56,18.08,61.00,2.44,-3.26,0.61,928.61
26.142,1.63,-1.10,-6.88,-16.56,18.08,61.00,2.44,-3.26,0.61,928.39
26.158,1.63,-1.10,-6.88,-16.56,18.08,61.00,0.73,6.31,-1.29,928.39
26.172,1.29,-0.27,-2.34,-16.56,18.08,61.00,0.73,6.31,-1.29,928.39
26.174,1.29,-0.27,-2.34,-11.06,9.71,16.43,0.73,6.31,-1.29,928.39
26.209,1.29,-0.27,-2.34,-11.06,9.71,16.43,0.73,6.31,-1.29,928.39
26.222,1.29,-0.27,-2.34,-11.06,9.71,16.43,-2.58,2.99,-5.32,928.39
26.243,0.20,-1.40,-1.70,-11.06,9.71,16.43,-2.58,2.99,-5.32,928.39
26.244,0.20,-1.40,-1.70,-2.60,22.29,12.15,-2.58,2.99,-5.32,928.39
26.276,0.20,-1.40,-1.70,-2.60,22.29,12.15,-2.58,2.99,-5.32,928.39
26.285,0.20,-1.40,-1.70,-2.60,22.29,12.15,-6.69,-1.84,-5.95,928.39
26.3,0.04,-2.13,0.29,-2.60,22.29,12.15,-6.69,-1.84,-5.95,928.39
26.301,0.04,-2.13,0.29,-4.67,29.69,-3.24,-6.69,-1.84,-5.95,928.39
26.342,0.04,-2.13,0.29,-4.67,29.69,-3.24,-6.69,-1.84,-5.95,928.37
26.348,0.04,-2.13,0.29,-4.67,29.69,-3.24,-6.77,1.30,-5.02,928.37
26.363,-0.54,-2.45,0.31,-4.67,29.69,-3.24,-6.77,1.30,-5.02,928.37
26.365,-0.54,-2.45,0.31,-1.57,30.61,-0.74,-6.77,1.30,-5.02,928.37
26.41,-0.54,-2.45,0.31,-1.57,30.61,-0.74,-6.77,1.30,-5.02,928.37
26.412,-0.54,-2.45,0.31,-1.57,30.61,-0.74,-5.56,2.75,-4.45,928.37
26.426,-1.09,-2.00,0.62,-1.57,30.61,-0.74,-5.56,2.75,-4.45,928.37
26.426,-1.09,-2.00,0.62,1.90,23.15,-3.34,-5.56,2.75,-4.45,928.37
26.476,-1.09,-2.00,0.62,1.90,23.15,-3.34,-3.87,1.21,-3.36,928.37
26.477,-1.09,-2.00,0.62,1.90,23.15,-3.34,-3.87,1.21,-3.36,928.38
26.491,-2.40,-0.42,1.23,1.90,23.15,-3.34,-3.87,1.21,-3.36,928.38
26.493,-2.40,-0.42,1.23,14.10,5.30,-9.18,-3.87,1.21,-3.36,928.38
26.539,-2.40,-0.42,1.23,14.10,5.30,-9.18,-1.52,-0.82,-0.68,928.38
26.542,-2.40,-0.42,1.23,14.10,5.30,-9.18,-1.52,-0.82,-0.68,928.38
26.555,-2.71,0.50,2.02,14.10,5.30,-9.18,-1.52,-0.82,-0.68,928.38
26.556,-2.71,0.50,2.02,17.26,-4.11,-16.51,-1.52,-0.82,-0.68,928.38
26.602,-2.71,0.50,2.02,17.26,-4.11,-16.51,1.41,1.52,0.88,928.38
26.609,-2.71,0.50,2.02,17.26,-4.11,-16.51,1.41,1.52,0.88,928.41
26.616,-2.70,0.58,1.62,17.26,-4.11,-16.51,1.41,1.52,0.88,928.41
26.618,-2.70,0.58,1.62,16.98,-4.04,-13.62,1.41,1.52,0.88,928.41
26.666,-2.70,0.58,1.62,16.98,-4.04,-13.62,1.82,-0.51,-0.13,928.41
26.677,-2.70,0.58,1.62,16.98,-4.04,-13.62,1.82,-0.51,-0.13,928.41
26.68,-3.67,0.96,1.46,16.98,-4.04,-13.62,1.82,-0.51,-0.13,928.41
26.681,-3.67,0.96,1.46,26.64,-7.71,-11.53,1.82,-0.51,-0.13,928.41
26.728,-3.67,0.96,1.46,26.64,-7.71,-11.53,1.82,-3.01,0.33,928.41
26.742,-3.67,0.96,1.46,26.64,-7.71,-11.53,1.82,-3.01,0.33,928.41
26.744,-3.02,0.67,1.90,26.64,-7.71,-11.53,1.82,-3.01,0.33,928.41
26.745,-3.02,0.67,1.90,21.03,-4.07,-14.55,1.82,-3.01,0.33,928.41
26.793,-3.02,0.67,1.90,21.03,-4.07,-14.55,4.82,-1.46,2.75,928.41
26.807,-3.02,0.67,1.90,10.65,18.36,-8.82,4.82,-1.46,2.75,928.41
26.808,-1.85,-1.33,1.25,10.65,18.36,-8.82,4.82,-1.46,2.75,928.41
26.81,-1.85,-1.33,1.25,10.65,18.36,-8.82,4.82,-1.46,2.75,928.41
26.856,-1.85,-1.33,1.25,10.65,18.36,-8.82,7.05,0.38,4.64,928.41
26.869,-0.78,-2.07,0.59,10.65,18.36,-8.82,7.05,0.38,4.64,928.41
26.871,-0.78,-2.07,0.59,2.22,28.45,-5.77,7.05,0.38,4.64,928.41
26.876,-0.78,-2.07,0.59,2.22,28.45,-5.77,7.05,0.38,4.64,928.41
26.919,-0.78,-2.07,0.59,2.22,28.45,-5.77,6.09,-0.08,5.87,928.41
26.939,-0.58,-1.90,0.19,2.22,28.45,-5.77,6.09,-0.08,5.87,928.41
26.941,-0.58,-1.90,0.19,3.37,27.61,-4.98,6.09,-0.08,5.87,928.41
26.944,-0.58,-1.90,0.19,3.37,27.61,-4.98,6.09,-0.08,5.87,928.41
26.982,-0.58,-1.90,0.19,3.37,27.61,-4.98,4.53,-1.81,5.04,928.41
26.996,-0.17,-1.47,-0.19,3.37,27.61,-4.98,4.53,-1.81,5.04,928.41
26.997,-0.17,-1.47,-0.19,1.49,22.47,-3.53,4.53,-1.81,5.04,928.41
27.01,-0.17,-1.47,-0.19,1.49,22.47,-3.53,4.53,-1.81,5.04,928.41
27.045,-0.17,-1.47,-0.19,1.49,22.47,-3.53,3.23,-1.73,3.10,928.41
27.074,0.45,-1.43,-1.31,1.49,22.47,-3.53,3.23,-1.73,3.10,928.41
27.075,0.45,-1.43,-1.31,-3.89,20.81,5.93,3.23,-1.73,3.10,928.41
27.077,0.45,-1.43,-1.31,-3.89,20.81,5.93,3.23,-1.73,3.10,928.35
27.108,0.45,-1.43,-1.31,-3.89,20.81,5.93,-1.58,0.10,0.43,928.35
27.123,1.86,-0.34,-3.78,-3.89,20.81,5.93,-1.58,0.10,0.43,928.35
27.124,1.86,-0.34,-3.78,-17.17,11.10,31.24,-1.58,0.10,0.43,928.35
27.143,1.86,-0.34,-3.78,-17.17,11.10,31.24,-1.58,0.10,0.43,928.35
27.172,1.86,-0.34,-3.78,-17.17,11.10,31.24,-1.80,2.06,-1.00,928.35
27.196,1.86,-0.34,-3.78,-19.07,-1.16,22.82,-1.80,2.06,-1.00,928.35
27.197,2.04,0.98,-2.82,-19.07,-1.16,22.82,-1.80,2.06,-1.00,928.35
27.235,2.04,0.98,-2.82,-19.07,-1.16,22.82,-1.80,2.06,-1.00,928.35
27.237,2.04,0.98,-2.82,-19.07,-1.16,22.82,-2.65,1.63,-3.64,928.35
27.25,2.04,0.98,-2.82,-14.61,14.14,12.40,-2.65,1.63,-3.64,928.35
27.251,1.38,-0.51,-1.59,-14.61,14.14,12.40,-2.65,1.63,-3.64,928.35
27.277,1.38,-0.51,-1.59,-14.61,14.14,12.40,-2.65,1.63,-3.64,928.10
27.3,1.38,-0.51,-1.59,-14.61,14.14,12.40,-4.07,2.57,-7.77,928.10
27.314,1.38,-0.51,-1.59,-3.92,32.24,-0.16,-4.07,2.57,-7.77,928.10
27.315,-0.14,-2.46,-0.14,-3.92,32.24,-0.16,-4.07,2.57,-7.77,928.10
27.346,-0.14,-2.46,-0.14,-3.92,32.24,-0.16,-4.07,2.57,-7.77,928.10
27.377,-0.14,-2.46,-0.14,-3.92,32.24,-0.16,-4.27,2.71,-7.17,928.10
27.378,-1.23,-2.66,-0.02,-3.92,32.24,-0.16,-4.27,2.71,-7.17,928.10
27.378,-1.23,-2.66,-0.02,3.92,31.65,-0.18,-4.27,2.71,-7.17,928.10
27.409,-1.23,-2.66,-0.02,3.92,31.65,-0.18,-4.27,2.71,-7.17,928.20
27.425,-1.23,-2.66,-0.02,3.92,31.65,-0.18,-5.11,-1.03,-4.79,928.20
27.439,-0.66,-2.21,0.48,3.92,31.65,-0.18,-5.11,-1.03,-4.79,928.20
27.441,-0.66,-2.21,0.48,-2.88,24.32,-3.17,-5.11,-1.03,-4.79,928.20
27.481,-0.66,-2.21,0.48,-2.88,24.32,-3.17,-5.11,-1.03,-4.79,928.20
27.514,-0.66,-2.21,0.48,-2.88,24.32,-3.17,-4.87,0.08,-4.76,928.20
27.515,-1.31,-1.60,0.63,-2.88,24.32,-3.17,-4.87,0.08,-4.76,928.20
27.515,-1.31,-1.60,0.63,3.20,15.04,-4.37,-4.87,0.08,-4.76,928.20
27.543,-1.31,-1.60,0.63,3.20,15.04,-4.37,-4.87,0.08,-4.76,928.32
27.552,-1.31,-1.60,0.63,3.20,15.04,-4.37,-3.74,-0.39,-3.03,928.32
27.566,-2.17,-0.28,1.40,3.20,15.04,-4.37,-3.74,-0.39,-3.03,928.32
27.567,-2.17,-0.28,1.40,11.89,0.13,-12.05,-3.74,-0.39,-3.03,928.32
27.612,-2.17,-0.28,1.40,11.89,0.13,-12.05,-3.74,-0.39,-3.03,928.32
27.616,-2.17,-0.28,1.40,11.89,0.13,-12.05,-1.47,0.17,-0.35,928.32
27.643,-3.10,0.17,1.81,11.89,0.13,-12.05,-1.47,0.17,-0.35,928.32
27.644,-3.10,0.17,1.81,20.98,-4.35,-16.34,-1.47,0.17,-0.35,928.32
27.676,-3.10,0.17,1.81,20.98,-4.35,-16.34,-1.47,0.17,-0.35,928.56
27.677,-3.10,0.17,1.81,20.98,-4.35,-16.34,1.14,0.38,1.03,928.56
27.693,-2.72,-0.87,1.90,20.98,-4.35,-16.34,1.14,0.38,1.03,928.56
27.693,-2.72,-0.87,1.90,17.09,6.50,-17.29,1.14,0.38,1.03,928.56
27.747,-2.72,-0.87,1.90,17.09,6.50,-17.29,3.12,0.92,-0.05,928.56
27.748,-2.72,-0.87,1.90,17.09,6.50,-17.29,3.12,0.92,-0.05,928.56
27.779,-3.68,-0.73,1.33,17.09,6.50,-17.29,3.12,0.92,-0.05,928.56
27.78,-3.68,-0.73,1.33,26.51,5.22,-11.55,3.12,0.92,-0.05,928.56
27.804,-3.68,-0.73,1.33,26.51,5.22,-11.55,3.88,-3.24,0.26,928.56
27.809,-3.68,-0.73,1.33,26.51,5.22,-11.55,3.88,-3.24,0.26,928.56
27.819,-3.39,-0.37,1.09,26.51,5.22,-11.55,3.88,-3.24,0.26,928.56
27.82,-3.39,-0.37,1.09,24.12,2.83,-6.88,3.88,-3.24,0.26,928.56
27.869,-3.39,-0.37,1.09,24.12,2.83,-6.88,6.31,-0.50,3.65,928.56
27.877,-3.39,-0.37,1.09,24.12,2.83,-6.88,6.31,-0.50,3.65,928.48
27.894,-3.39,-0.37,1.09,7.15,19.32,-4.12,6.31,-0.50,3.65,928.48
27.895,-1.63,-1.66,0.75,7.15,19.32,-4.12,6.31,-0.50,3.65,928.48
27.931,-1.63,-1.66,0.75,7.15,19.32,-4.12,6.67,2.31,5.75,928.48
27.943,-1.63,-1.66,0.75,7.15,19.32,-4.12,6.67,2.31,5.75,928.48
27.945,-0.82,-1.71,0.22,7.15,19.32,-4.12,6.67,2.31,5.75,928.48
27.946,-0.82,-1.71,0.22,0.88,23.49,-2.11,6.67,2.31,5.75,928.48
27.995,-0.82,-1.71,0.22,0.88,23.49,-2.11,4.72,-0.50,6.25,928.48
28.015,-0.82,-1.71,0.22,1.98,24.17,-4.96,4.72,-0.50,6.25,928.48
28.017,-0.62,-1.58,0.31,1.98,24.17,-4.96,4.72,-0.50,6.25,928.48
28.018,-0.62,-1.58,0.31,1.98,24.17,-4.96,4.72,-0.50,6.25,928.50
28.061,-0.62,-1.58,0.31,1.98,24.17,-4.96,3.90,-1.21,5.58,928.50
28.073,-0.29,-1.25,0.43,1.98,24.17,-4.96,3.90,-1.21,5.58,928.50
28.073,-0.29,-1.25,0.43,1.58,21.07,-8.08,3.90,-1.21,5.58,928.50
28.076,-0.29,-1.25,0.43,1.58,21.07,-8.08,3.90,-1.21,5.58,928.50
28.121,-0.29,-1.25,0.43,1.58,21.07,-8.08,3.40,-1.04,4.20,928.50
28.136,-0.29,-1.25,0.43,1.00,19.03,-5.41,3.40,-1.04,4.20,928.50
28.137,-0.05,-1.14,-0.03,1.00,19.03,-5.41,3.40,-1.04,4.20,928.50
28.144,-0.05,-1.14,-0.03,1.00,19.03,-5.41,3.40,-1.04,4.20,928.48
28.185,-0.05,-1.14,-0.03,1.00,19.03,-5.41,0.48,-0.92,-0.30,928.48
28.2,-0.05,-1.14,-0.03,-20.81,22.67,34.36,0.48,-0.92,-0.30,928.48
28.201,2.12,-1.53,-4.12,-20.81,22.67,34.36,0.48,-0.92,-0.30,928.48
28.21,2.12,-1.53,-4.12,-20.81,22.67,34.36,0.48,-0.92,-0.30,928.48
28.248,2.12,-1.53,-4.12,-20.81,22.67,34.36,-0.46,2.00,-0.36,928.48
28.263,2.12,-1.53,-4.12,-18.54,2.13,18.18,-0.46,2.00,-0.36,928.48
28.265,1.92,0.61,-2.40,-18.54,2.13,18.18,-0.46,2.00,-0.36,928.48
28.277,1.92,0.61,-2.40,-18.54,2.13,18.18,-0.46,2.00,-0.36,928.48
28.312,1.92,0.61,-2.40,-18.54,2.13,18.18,-1.57,1.25,-3.72,928.48
28.329,0.98,-0.69,-1.68,-18.54,2.13,18.18,-1.57,1.25,-3.72,928.48
28.331,0.98,-0.69,-1.68,-11.24,15.30,12.12,-1.57,1.25,-3.72,928.48
28.346,0.98,-0.69,-1.68,-11.24,15.30,12.12,-1.57,1.25,-3.72,928.19
28.375,0.98,-0.69,-1.68,-11.24,15.30,12.12,-4.56,1.11,-6.97,928.19
28.394,0.98,-0.69,-1.68,-4.85,26.11,-1.44,-4.56,1.11,-6.97,928.19
28.395,-0.04,-1.85,-0.06,-4.85,26.11,-1.44,-4.56,1.11,-6.97,928.19
28.411,-0.04,-1.85,-0.06,-4.85,26.11,-1.44,-4.56,1.11,-6.97,928.19
28.438,-0.04,-1.85,-0.06,-4.85,26.11,-1.44,-5.52,1.60,-6.46,928.19
28.464,-0.64,-2.46,0.11,-4.85,26.11,-1.44,-5.52,1.60,-6.46,928.19
28.465,-0.64,-2.46,0.11,-1.69,29.87,-1.29,-5.52,1.60,-6.46,928.19
28.479,-0.64,-2.46,0.11,-1.69,29.87,-1.29,-5.52,1.60,-6.46,928.29
28.501,-0.64,-2.46,0.11,-1.69,29.87,-1.29,-5.47,0.42,-4.78,928.29
28.516,-0.64,-2.46,0.11,-1.12,25.46,-2.24,-5.47,0.42,-4.78,928.29
28.517,-0.83,-2.29,0.37,-1.12,25.46,-2.24,-5.47,0.42,-4.78,928.29
28.544,-0.83,-2.29,0.37,-1.12,25.46,-2.24,-5.47,0.42,-4.78,928.29
28.565,-0.83,-2.29,0.37,-1.12,25.46,-2.24,-5.10,-0.81,-4.37,928.29
28.584,-1.05,-1.40,0.80,-1.12,25.46,-2.24,-5.10,-0.81,-4.37,928.29
28.585,-1.05,-1.40,0.80,0.73,13.59,-5.55,-5.10,-0.81,-4.37,928.29
28.616,-1.05,-1.40,0.80,0.73,13.59,-5.55,-5.10,-0.81,-4.37,928.44
28.627,-1.05,-1.40,0.80,0.73,13.59,-5.55,-3.06,-0.11,-2.70,928.44
28.642,-2.15,-0.30,1.33,0.73,13.59,-5.55,-3.06,-0.11,-2.70,928.44
28.642,-2.15,-0.30,1.33,11.63,1.00,-10.99,-3.06,-0.11,-2.70,928.44
28.676,-2.15,-0.30,1.33,11.63,1.00,-10.99,-3.06,-0.11,-2.70,928.44
28.692,-2.15,-0.30,1.33,11.63,1.00,-10.99,-0.89,0.78,-0.55,928.44
28.716,-2.15,-0.30,1.33,20.82,-1.31,-13.73,-0.89,0.78,-0.55,928.44
28.717,-3.09,-0.09,1.56,20.82,-1.31,-13.73,-0.89,0.78,-0.55,928.44
28.752,-3.09,-0.09,1.56,20.82,-1.31,-13.73,-0.89,0.78,-0.55,928.44
28.757,-3.09,-0.09,1.56,20.82,-1.31,-13.73,1.08,0.79,-0.27,928.44
28.769,-3.14,-0.92,1.37,20.82,-1.31,-13.73,1.08,0.79,-0.27,928.44
28.77,-3.14,-0.92,1.37,21.22,6.69,-12.31,1.08,0.79,-0.27,928.44
28.81,-3.14,-0.92,1.37,21.22,6.69,-12.31,1.08,0.79,-0.27,928.63
28.817,-3.14,-0.92,1.37,21.22,6.69,-12.31,2.17,0.86,-0.82,928.63
28.832,-4.00,-0.14,0.61,21.22,6.69,-12.31,2.17,0.86,-0.82,928.63
28.835,-4.00,-0.14,0.61,29.72,-1.22,-4.73,2.17,0.86,-0.82,928.63
28.878,-4.00,-0.14,0.61,29.72,-1.22,-4.73,2.17,0.86,-0.82,928.63
28.881,-4.00,-0.14,0.61,29.72,-1.22,-4.73,0.98,-4.03,1.00,928.63
28.897,-2.83,0.25,1.07,29.72,-1.22,-4.73,0.98,-4.03,1.00,928.63
28.898,-2.83,0.25,1.07,18.88,-4.08,-6.45,0.98,-4.03,1.00,928.63
28.944,-2.83,0.25,1.07,18.88,-4.08,-6.45,0.98,-4.03,1.00,928.70
28.945,-2.83,0.25,1.07,18.88,-4.08,-6.45,3.72,-2.96,2.79,928.70
28.959,-0.95,-1.28,1.26,18.88,-4.08,-6.45,3.72,-2.96,2.79,928.70
28.961,-0.95,-1.28,1.26,1.10,13.86,-6.99,3.72,-2.96,2.79,928.70
29.008,-0.95,-1.28,1.26,1.10,13.86,-6.99,6.26,-0.21,3.51,928.70
29.01,-0.95,-1.28,1.26,1.10,13.86,-6.99,6.26,-0.21,3.51,928.70
29.027,-0.43,-1.79,0.83,1.10,13.86,-6.99,6.26,-0.21,3.51,928.70
29.028,-0.43,-1.79,0.83,-3.20,22.50,-4.05,6.26,-0.21,3.51,928.70
29.071,-0.43,-1.79,0.83,-3.20,22.50,-4.05,6.38,-0.29,3.95,928.70
29.077,-0.43,-1.79,0.83,-3.20,22.50,-4.05,6.38,-0.29,3.95,928.65
29.085,-0.47,-1.61,0.46,-3.20,22.50,-4.05,6.38,-0.29,3.95,928.65
29.086,-0.47,-1.61,0.46,-1.14,23.53,-2.86,6.38,-0.29,3.95,928.65
29.135,-0.47,-1.61,0.46,-1.14,23.53,-2.86,5.57,-1.57,4.11,928.65
29.164,-0.47,-1.61,0.46,-1.14,23.53,-2.86,5.57,-1.57,4.11,928.65
29.165,-0.42,-1.50,0.34,-1.14,23.53,-2.86,5.57,-1.57,4.11,928.65
29.165,-0.42,-1.50,0.34,0.60,23.83,-4.10,5.57,-1.57,4.11,928.65
29.197,-0.42,-1.50,0.34,0.60,23.83,-4.10,4.98,-0.64,3.50,928.65
29.211,-0.42,-1.50,0.34,0.60,23.83,-4.10,4.98,-0.64,3.50,928.54
29.212,-0.15,-1.07,0.00,0.60,23.83,-4.10,4.98,-0.64,3.50,928.54
29.213,-0.15,-1.07,0.00,-0.14,19.38,-3.63,4.98,-0.64,3.50,928.54
29.268,-0.15,-1.07,0.00,-0.14,19.38,-3.63,4.68,1.16,1.49,928.54
29.299,1.26,0.75,-3.06,-0.14,19.38,-3.63,4.68,1.16,1.49,928.54
29.299,1.26,0.75,-3.06,-12.74,0.18,23.87,4.68,1.16,1.49,928.54
29.3,1.26,0.75,-3.06,-12.74,0.18,23.87,4.68,1.16,1.49,928.54
29.325,1.26,0.75,-3.06,-12.74,0.18,23.87,-0.79,0.95,-0.32,928.54
29.341,1.67,-0.21,-4.92,-12.74,0.18,23.87,-0.79,0.95,-0.32,928.54
29.341,1.67,-0.21,-4.92,-16.33,10.11,42.73,-0.79,0.95,-0.32,928.54
29.344,1.67,-0.21,-4.92,-16.33,10.11,42.73,-0.79,0.95,-0.32,928.54
29.394,1.67,-0.21,-4.92,-16.33,10.11,42.73,-0.80,3.25,-1.08,928.54
29.401,0.93,-0.95,-2.05,-16.33,10.11,42.73,-0.80,3.25,-1.08,928.54
29.402,0.93,-0.95,-2.05,-9.34,17.73,15.27,-0.80,3.25,-1.08,928.54
29.414,0.93,-0.95,-2.05,-9.34,17.73,15.27,-0.80,3.25,-1.08,928.25
29.45,0.93,-0.95,-2.05,-9.34,17.73,15.27,-4.44,0.12,-3.87,928.25
29.465,0.92,-1.67,-0.52,-9.34,17.73,15.27,-4.44,0.12,-3.87,928.25
29.465,0.92,-1.67,-0.52,-11.34,25.58,3.00,-4.44,0.12,-3.87,928.25
29.476,0.92,-1.67,-0.52,-11.34,25.58,3.00,-4.44,0.12,-3.87,928.25
29.514,0.92,-1.67,-0.52,-11.34,25.58,3.00,-6.20,1.33,-5.28,928.25
29.533,-0.07,-2.19,0.13,-11.34,25.58,3.00,-6.20,1.33,-5.28,928.25
29.534,-0.07,-2.19,0.13,-4.76,29.54,-0.13,-6.20,1.33,-5.28,928.25
29.569,-0.07,-2.19,0.13,-4.76,29.54,-0.13,-6.20,1.33,-5.28,928.28
29.577,-0.07,-2.19,0.13,-4.76,29.54,-0.13,-6.08,2.10,-5.60,928.28
29.592,-0.45,-2.85,0.50,-4.76,29.54,-0.13,-6.08,2.10,-5.60,928.28
29.593,-0.45,-2.85,0.50,-3.75,32.82,-2.31,-6.08,2.10,-5.60,928.28
29.61,-0.45,-2.85,0.50,-3.75,32.82,-2.31,-6.08,2.10,-5.60,928.28
29.646,-0.45,-2.85,0.50,-3.75,32.82,-2.31,-4.74,1.79,-5.26,928.28
29.676,-1.14,-2.52,0.57,-3.75,32.82,-2.31,-4.74,1.79,-5.26,928.28
29.677,-1.14,-2.52,0.57,1.76,25.82,-2.87,-4.74,1.79,-5.26,928.28
29.679,-1.14,-2.52,0.57,1.76,25.82,-2.87,-4.74,1.79,-5.26,928.34
29.703,-1.14,-2.52,0.57,1.76,25.82,-2.87,-3.21,1.55,-4.42,928.34
29.718,-2.24,-0.83,0.80,1.76,25.82,-2.87,-3.21,1.55,-4.42,928.34
29.719,-2.24,-0.83,0.80,12.34,6.39,-6.12,-3.21,1.55,-4.42,928.34
29.744,-2.24,-0.83,0.80,12.34,6.39,-6.12,-3.21,1.55,-4.42,928.34
29.767,-2.24,-0.83,0.80,12.34,6.39,-6.12,-2.26,-0.00,-2.01,928.34
29.784,-3.80,-0.08,1.15,12.34,6.39,-6.12,-2.26,-0.00,-2.01,928.34
29.785,-3.80,-0.08,1.15,27.98,-2.12,-9.67,-2.26,-0.00,-2.01,928.34
29.816,-3.80,-0.08,1.15,27.98,-2.12,-9.67,-2.26,-0.00,-2.01,928.34
29.83,-3.80,-0.08,1.15,27.98,-2.12,-9.67,-0.42,-0.08,-0.29,928.34
