time,gFx,gFy,gFz,ax,ay,az,wx,wy,wz,P
0.025,-0.85,0.33,0.49,0.49,0.10,0.07,0.01,-0.12,0.05,928.40
0.025,-0.73,0.35,0.49,0.49,0.10,0.07,0.01,-0.12,0.05,928.40
0.029,-0.73,0.35,0.49,-0.69,-0.07,0.08,0.01,-0.12,0.05,928.40
0.035,-0.73,0.35,0.49,-0.69,-0.07,0.08,0.01,-0.12,0.05,928.40
0.072,-0.73,0.35,0.49,-0.69,-0.07,0.08,-0.01,0.13,-0.02,928.40
0.087,-0.83,0.32,0.48,-0.69,-0.07,0.08,-0.01,0.13,-0.02,928.40
0.087,-0.83,0.32,0.48,0.27,0.23,0.19,-0.01,0.13,-0.02,928.40
0.102,-0.83,0.32,0.48,0.27,0.23,0.19,-0.01,0.13,-0.02,928.40
0.136,-0.83,0.32,0.48,0.27,0.23,0.19,-0.02,-0.05,0.02,928.40
0.151,-0.81,0.32,0.50,0.27,0.23,0.19,-0.02,-0.05,0.02,928.40
0.151,-0.81,0.32,0.50,0.06,0.20,-0.02,-0.02,-0.05,0.02,928.40
0.169,-0.81,0.32,0.50,0.06,0.20,-0.02,-0.02,-0.05,0.02,928.36
0.199,-0.81,0.32,0.50,0.06,0.20,-0.02,-0.02,-0.11,0.04,928.36
0.214,-0.79,0.34,0.51,0.06,0.20,-0.02,-0.02,-0.11,0.04,928.36
0.214,-0.79,0.34,0.51,-0.01,0.09,0.01,-0.02,-0.11,0.04,928.36
0.237,-0.79,0.34,0.51,-0.01,0.09,0.01,-0.02,-0.11,0.04,928.36
0.263,-0.79,0.34,0.51,-0.01,0.09,0.01,-0.02,-0.01,-0.00,928.36
0.277,-0.78,0.35,0.51,-0.01,0.09,0.01,-0.02,-0.01,-0.00,928.36
0.278,-0.78,0.35,0.51,-0.15,-0.05,-0.01,-0.02,-0.01,-0.00,928.36
0.302,-0.78,0.35,0.51,-0.15,-0.05,-0.01,-0.02,-0.01,-0.00,928.30
0.326,-0.78,0.35,0.51,-0.15,-0.05,-0.01,-0.02,0.00,-0.07,928.30
0.341,-0.77,0.35,0.50,-0.15,-0.05,-0.01,-0.02,0.00,-0.07,928.30
0.341,-0.77,0.35,0.50,-0.24,-0.08,0.08,-0.02,0.00,-0.07,928.30
0.371,-0.77,0.35,0.50,-0.24,-0.08,0.08,-0.02,0.00,-0.07,928.30
0.389,-0.77,0.35,0.50,-0.24,-0.08,0.08,-0.06,0.04,-0.02,928.30
0.404,-0.81,0.34,0.49,-0.24,-0.08,0.08,-0.06,0.04,-0.02,928.30
0.404,-0.81,0.34,0.49,0.14,-0.00,0.15,-0.06,0.04,-0.02,928.30
0.435,-0.81,0.34,0.49,0.14,-0.00,0.15,-0.06,0.04,-0.02,928.30
0.452,-0.81,0.34,0.49,0.14,-0.00,0.15,-0.07,0.04,-0.01,928.30
0.467,-0.79,0.33,0.51,0.14,-0.00,0.15,-0.07,0.04,-0.01,928.30
0.467,-0.79,0.33,0.51,-0.10,0.04,-0.00,-0.07,0.04,-0.01,928.30
0.502,-0.79,0.33,0.51,-0.10,0.04,-0.00,-0.07,0.04,-0.01,928.30
0.515,-0.79,0.33,0.51,-0.10,0.04,-0.00,-0.07,0.07,-0.03,928.30
0.53,-0.81,0.32,0.49,-0.10,0.04,-0.00,-0.07,0.07,-0.03,928.30
0.531,-0.81,0.32,0.49,0.07,0.07,0.14,-0.07,0.07,-0.03,928.30
0.569,-0.81,0.32,0.49,0.07,0.07,0.14,-0.07,0.07,-0.03,928.30
0.579,-0.81,0.32,0.49,0.07,0.07,0.14,-0.07,-0.16,-0.07,928.30
0.594,-0.77,0.33,0.49,0.07,0.07,0.14,-0.07,-0.16,-0.07,928.30
0.594,-0.77,0.33,0.49,-0.33,-0.10,0.24,-0.07,-0.16,-0.07,928.30
0.635,-0.77,0.33,0.49,-0.33,-0.10,0.24,-0.07,-0.16,-0.07,928.25
0.642,-0.77,0.33,0.49,-0.33,-0.10,0.24,-0.06,0.04,-0.27,928.25
0.659,-0.77,0.33,0.49,-0.00,0.21,-0.04,-0.06,0.04,-0.27,928.25
0.659,-0.81,0.29,0.52,-0.00,0.21,-0.04,-0.06,0.04,-0.27,928.25
0.703,-0.81,0.29,0.52,-0.00,0.21,-0.04,-0.06,0.04,-0.27,928.25
0.706,-0.81,0.29,0.52,-0.00,0.21,-0.04,-0.07,-0.06,-0.18,928.25
0.72,-0.80,0.29,0.52,-0.00,0.21,-0.04,-0.07,-0.06,-0.18,928.25
0.721,-0.80,0.29,0.52,-0.05,0.04,-0.05,-0.07,-0.06,-0.18,928.25
0.77,-0.80,0.29,0.52,-0.05,0.04,-0.05,-0.07,-0.06,-0.18,928.14
0.77,-0.80,0.29,0.52,-0.05,0.04,-0.05,-0.05,-0.17,-0.15,928.14
0.783,-0.83,0.20,0.54,-0.05,0.04,-0.05,-0.05,-0.17,-0.15,928.14
0.784,-0.83,0.20,0.54,0.29,0.86,-0.11,-0.05,-0.17,-0.15,928.14
0.833,-0.83,0.20,0.54,0.29,0.86,-0.11,-0.05,-0.44,-0.08,928.14
0.836,-0.83,0.20,0.54,0.29,0.86,-0.11,-0.05,-0.44,-0.08,928.14
0.847,-0.81,0.35,0.55,0.29,0.86,-0.11,-0.05,-0.44,-0.08,928.14
0.847,-0.81,0.35,0.55,0.19,-0.65,0.01,-0.05,-0.44,-0.08,928.14
0.896,-0.81,0.35,0.55,0.19,-0.65,0.01,0.04,-0.38,-0.11,928.14
0.902,-0.81,0.35,0.55,0.19,-0.65,0.01,0.04,-0.38,-0.11,928.04
0.91,-0.76,0.30,0.60,0.19,-0.65,0.01,0.04,-0.38,-0.11,928.04
0.911,-0.76,0.30,0.60,-0.22,-0.26,-0.25,0.04,-0.38,-0.11,928.04
0.96,-0.76,0.30,0.60,-0.22,-0.26,-0.25,0.16,-0.65,-0.21,928.04
0.969,-0.76,0.30,0.60,-0.22,-0.26,-0.25,0.16,-0.65,-0.21,928.04
0.974,-0.79,0.24,0.60,-0.22,-0.26,-0.25,0.16,-0.65,-0.21,928.04
0.974,-0.79,0.24,0.60,0.33,0.37,0.07,0.16,-0.65,-0.21,928.04
1.022,-0.79,0.24,0.60,0.33,0.37,0.07,0.06,-0.41,-0.11,928.04
1.035,-0.79,0.24,0.60,0.33,0.37,0.07,0.06,-0.41,-0.11,927.93
1.037,-0.73,0.23,0.58,0.33,0.37,0.07,0.06,-0.41,-0.11,927.93
1.037,-0.73,0.23,0.58,-0.16,0.38,0.36,0.06,-0.41,-0.11,927.93
1.086,-0.73,0.23,0.58,-0.16,0.38,0.36,-0.05,-0.18,-0.19,927.93
1.1,-0.80,0.23,0.63,-0.16,0.38,0.36,-0.05,-0.18,-0.19,927.93
1.101,-0.80,0.23,0.63,0.51,0.33,-0.04,-0.05,-0.18,-0.19,927.93
1.102,-0.80,0.23,0.63,0.51,0.33,-0.04,-0.05,-0.18,-0.19,927.93
1.149,-0.80,0.23,0.63,0.51,0.33,-0.04,-0.07,-0.06,0.17,927.93
1.164,-0.70,0.34,0.64,0.51,0.33,-0.04,-0.07,-0.06,0.17,927.93
1.164,-0.70,0.34,0.64,-0.38,-0.75,-0.11,-0.07,-0.06,0.17,927.93
1.169,-0.70,0.34,0.64,-0.38,-0.75,-0.11,-0.07,-0.06,0.17,927.93
1.212,-0.70,0.34,0.64,-0.38,-0.75,-0.11,-0.08,0.11,0.01,927.93
1.227,-0.74,0.28,0.63,-0.38,-0.75,-0.11,-0.08,0.11,0.01,927.93
1.227,-0.74,0.28,0.63,-0.02,-0.16,-0.03,-0.08,0.11,0.01,927.93
1.235,-0.74,0.28,0.63,-0.02,-0.16,-0.03,-0.08,0.11,0.01,927.96
1.276,-0.74,0.28,0.63,-0.02,-0.16,-0.03,0.02,-0.00,0.01,927.96
1.29,-0.74,0.25,0.66,-0.02,-0.16,-0.03,0.02,-0.00,0.01,927.96
1.291,-0.74,0.25,0.66,-0.06,0.12,-0.28,0.02,-0.00,0.01,927.96
1.302,-0.74,0.25,0.66,-0.06,0.12,-0.28,0.02,-0.00,0.01,927.96
1.339,-0.74,0.25,0.66,-0.06,0.12,-0.28,0.06,-0.07,0.03,927.96
1.354,-0.74,0.25,0.66,-0.33,0.07,0.10,0.06,-0.07,0.03,927.96
1.354,-0.70,0.26,0.62,-0.33,0.07,0.10,0.06,-0.07,0.03,927.96
1.369,-0.70,0.26,0.62,-0.33,0.07,0.10,0.06,-0.07,0.03,928.03
1.403,-0.70,0.26,0.62,-0.33,0.07,0.10,0.06,-0.07,-0.02,928.03
1.417,-0.74,0.25,0.61,-0.33,0.07,0.10,0.06,-0.07,-0.02,928.03
1.417,-0.74,0.25,0.61,0.02,0.22,0.17,0.06,-0.07,-0.02,928.03
1.436,-0.74,0.25,0.61,0.02,0.22,0.17,0.06,-0.07,-0.02,928.03
1.469,-0.74,0.25,0.61,0.02,0.22,0.17,0.02,-0.08,-0.05,928.03
1.481,-0.74,0.25,0.61,0.03,0.27,0.32,0.02,-0.08,-0.05,928.03
1.482,-0.74,0.24,0.60,0.03,0.27,0.32,0.02,-0.08,-0.05,928.03
1.503,-0.74,0.24,0.60,0.03,0.27,0.32,0.02,-0.08,-0.05,928.09
1.531,-0.74,0.24,0.60,0.03,0.27,0.32,0.00,-0.17,-0.05,928.09
1.548,-0.74,0.24,0.60,0.14,1.93,-0.29,0.00,-0.17,-0.05,928.09
1.549,-0.74,0.07,0.67,0.14,1.93,-0.29,0.00,-0.17,-0.05,928.09
1.57,-0.74,0.07,0.67,0.14,1.93,-0.29,0.00,-0.17,-0.05,928.09
1.594,-0.74,0.07,0.67,0.14,1.93,-0.29,-0.10,-0.06,0.10,928.09
1.608,-0.74,0.07,0.67,-0.41,-2.24,-0.35,-0.10,-0.06,0.10,928.09
1.61,-0.68,0.50,0.68,-0.41,-2.24,-0.35,-0.10,-0.06,0.10,928.09
1.637,-0.68,0.50,0.68,-0.41,-2.24,-0.35,-0.10,-0.06,0.10,928.09
1.657,-0.68,0.50,0.68,-0.41,-2.24,-0.35,0.13,0.10,-0.04,928.09
1.672,-0.75,0.28,0.62,-0.41,-2.24,-0.35,0.13,0.10,-0.04,928.09
1.673,-0.75,0.28,0.62,0.19,-0.13,0.21,0.13,0.10,-0.04,928.09
1.703,-0.75,0.28,0.62,0.19,-0.13,0.21,0.13,0.10,-0.04,928.20
1.72,-0.75,0.28,0.62,0.19,-0.13,0.21,0.09,0.08,-0.12,928.20
1.735,-0.75,0.28,0.62,-0.41,0.18,0.36,0.09,0.08,-0.12,928.20
1.736,-0.69,0.25,0.60,-0.41,0.18,0.36,0.09,0.08,-0.12,928.20
1.77,-0.69,0.25,0.60,-0.41,0.18,0.36,0.09,0.08,-0.12,928.20
1.783,-0.69,0.25,0.60,-0.41,0.18,0.36,-0.03,0.11,-0.26,928.20
1.799,-0.70,0.19,0.60,-0.41,0.18,0.36,-0.03,0.11,-0.26,928.20
1.8,-0.70,0.19,0.60,-0.38,0.63,0.25,-0.03,0.11,-0.26,928.20
1.836,-0.70,0.19,0.60,-0.38,0.63,0.25,-0.03,0.11,-0.26,928.30
1.846,-0.70,0.19,0.60,-0.38,0.63,0.25,-0.21,0.34,-0.23,928.30
1.861,-0.67,0.27,0.51,-0.38,0.63,0.25,-0.21,0.34,-0.23,928.30
1.862,-0.67,0.27,0.51,-0.91,-0.42,0.95,-0.21,0.34,-0.23,928.30
1.903,-0.67,0.27,0.51,-0.91,-0.42,0.95,-0.21,0.34,-0.23,928.30
1.91,-0.67,0.27,0.51,-0.91,-0.42,0.95,-0.48,0.94,-0.42,928.30
1.933,-0.66,0.22,0.46,-0.91,-0.42,0.95,-0.48,0.94,-0.42,928.30
1.934,-0.66,0.22,0.46,-1.42,-0.33,1.07,-0.48,0.94,-0.42,928.30
1.97,-0.66,0.22,0.46,-1.42,-0.33,1.07,-0.48,0.94,-0.42,928.39
1.974,-0.66,0.22,0.46,-1.42,-0.33,1.07,-0.86,2.00,-0.76,928.39
1.987,-0.47,0.22,0.44,-1.42,-0.33,1.07,-0.86,2.00,-0.76,928.39
1.988,-0.47,0.22,0.44,-4.14,-1.04,0.12,-0.86,2.00,-0.76,928.39
2.037,-0.47,0.22,0.44,-4.14,-1.04,0.12,-1.01,4.92,-0.96,928.39
2.038,-0.47,0.22,0.44,-4.14,-1.04,0.12,-1.01,4.92,-0.96,928.39
2.051,-0.94,0.00,0.23,-4.14,-1.04,0.12,-1.01,4.92,-0.96,928.39
2.052,-0.94,0.00,0.23,-0.54,0.34,-0.72,-1.01,4.92,-0.96,928.39
2.1,-0.94,0.00,0.23,-0.54,0.34,-0.72,-0.39,3.47,-1.32,928.39
2.102,-0.94,0.00,0.23,-0.54,0.34,-0.72,-0.39,3.47,-1.32,928.39
2.113,-0.93,-0.12,0.02,-0.54,0.34,-0.72,-0.39,3.47,-1.32,928.39
2.114,-0.93,-0.12,0.02,-0.73,0.69,-0.67,-0.39,3.47,-1.32,928.39
2.163,-0.93,-0.12,0.02,-0.73,0.69,-0.67,0.04,2.87,-1.35,928.39
2.17,-0.93,-0.12,0.02,-0.73,0.69,-0.67,0.04,2.87,-1.35,928.40
2.178,-1.20,-0.22,-0.24,-0.73,0.69,-0.67,0.04,2.87,-1.35,928.40
2.179,-1.20,-0.22,-0.24,2.20,0.86,0.19,0.04,2.87,-1.35,928.40
2.226,-1.20,-0.22,-0.24,2.20,0.86,0.19,0.22,1.47,-0.93,928.40
2.236,-1.20,-0.22,-0.24,2.20,0.86,0.19,0.22,1.47,-0.93,928.40
2.24,-1.26,-0.33,-0.37,2.20,0.86,0.19,0.22,1.47,-0.93,928.40
2.24,-1.26,-0.33,-0.37,3.15,1.37,0.72,0.22,1.47,-0.93,928.40
2.289,-1.26,-0.33,-0.37,3.15,1.37,0.72,0.11,0.74,-0.30,928.40
2.303,-1.26,-0.33,-0.37,3.15,1.37,0.72,0.11,0.74,-0.30,928.37
2.304,-0.97,-0.21,-0.35,3.15,1.37,0.72,0.11,0.74,-0.30,928.37
2.305,-0.97,-0.21,-0.35,0.43,0.08,0.12,0.11,0.74,-0.30,928.37
2.353,-0.97,-0.21,-0.35,0.43,0.08,0.12,0.18,0.60,-0.16,928.37
2.367,-0.98,-0.20,-0.38,0.43,0.08,0.12,0.18,0.60,-0.16,928.37
2.368,-0.98,-0.20,-0.38,0.67,-0.21,0.13,0.18,0.60,-0.16,928.37
2.369,-0.98,-0.20,-0.38,0.67,-0.21,0.13,0.18,0.60,-0.16,928.37
2.416,-0.98,-0.20,-0.38,0.67,-0.21,0.13,0.02,0.30,-0.09,928.37
2.431,-0.97,-0.30,-0.50,0.67,-0.21,0.13,0.02,0.30,-0.09,928.37
2.432,-0.97,-0.30,-0.50,0.67,0.77,1.20,0.02,0.30,-0.09,928.37
2.436,-0.97,-0.30,-0.50,0.67,0.77,1.20,0.02,0.30,-0.09,928.38
2.485,-0.97,-0.30,-0.50,0.67,0.77,1.20,-0.17,-0.07,0.15,928.38
2.504,-0.90,-0.30,-0.44,0.67,0.77,1.20,-0.17,-0.07,0.15,928.38
2.505,-0.90,-0.30,-0.44,-0.09,0.97,0.63,-0.17,-0.07,0.15,928.38
2.506,-0.90,-0.30,-0.44,-0.09,0.97,0.63,-0.17,-0.07,0.15,928.38
2.542,-0.90,-0.30,-0.44,-0.09,0.97,0.63,-0.07,-0.59,0.18,928.38
2.558,-0.82,-0.24,-0.34,-0.09,0.97,0.63,-0.07,-0.59,0.18,928.38
2.559,-0.82,-0.24,-0.34,-1.03,0.43,0.04,-0.07,-0.59,0.18,928.38
2.569,-0.82,-0.24,-0.34,-1.03,0.43,0.04,-0.07,-0.59,0.18,928.32
2.616,-0.82,-0.24,-0.34,-1.03,0.43,0.04,-0.10,-0.92,0.08,928.32
2.621,-0.85,-0.21,-0.32,-1.03,0.43,0.04,-0.10,-0.92,0.08,928.32
2.621,-0.85,-0.21,-0.32,-0.94,0.20,0.40,-0.10,-0.92,0.08,928.32
2.636,-0.85,-0.21,-0.32,-0.94,0.20,0.40,-0.10,-0.92,0.08,928.32
2.669,-0.85,-0.21,-0.32,-0.94,0.20,0.40,0.02,-1.23,-0.04,928.32
2.684,-0.96,-0.22,-0.25,-0.94,0.20,0.40,0.02,-1.23,-0.04,928.32
2.685,-0.96,-0.22,-0.25,-0.04,0.25,0.47,0.02,-1.23,-0.04,928.32
2.703,-0.96,-0.22,-0.25,-0.04,0.25,0.47,0.02,-1.23,-0.04,928.32
2.733,-0.96,-0.22,-0.25,-0.04,0.25,0.47,-0.00,-1.30,-0.18,928.32
2.747,-0.88,-0.22,-0.16,-0.04,0.25,0.47,-0.00,-1.30,-0.18,928.32
2.748,-0.88,-0.22,-0.16,-0.97,0.13,0.24,-0.00,-1.30,-0.18,928.32
2.77,-0.88,-0.22,-0.16,-0.97,0.13,0.24,-0.00,-1.30,-0.18,928.33
2.796,-0.88,-0.22,-0.16,-0.97,0.13,0.24,-0.07,-0.41,-0.01,928.33
2.811,-0.93,-0.21,-0.19,-0.97,0.13,0.24,-0.07,-0.41,-0.01,928.33
2.812,-0.93,-0.21,-0.19,-0.49,-0.01,0.82,-0.07,-0.41,-0.01,928.33
2.837,-0.93,-0.21,-0.19,-0.49,-0.01,0.82,-0.07,-0.41,-0.01,928.33
2.859,-0.93,-0.21,-0.19,-0.49,-0.01,0.82,-0.31,-0.74,-0.41,928.33
2.876,-0.90,-0.25,-0.10,-0.49,-0.01,0.82,-0.31,-0.74,-0.41,928.33
2.877,-0.90,-0.25,-0.10,-0.75,0.16,0.38,-0.31,-0.74,-0.41,928.33
2.904,-0.90,-0.25,-0.10,-0.75,0.16,0.38,-0.31,-0.74,-0.41,928.35
2.923,-0.90,-0.25,-0.10,-0.75,0.16,0.38,-0.21,-0.86,-0.63,928.35
2.938,-1.07,-0.38,-0.01,-0.75,0.16,0.38,-0.21,-0.86,-0.63,928.35
2.939,-1.07,-0.38,-0.01,0.99,1.09,-0.12,-0.21,-0.86,-0.63,928.35
2.97,-1.07,-0.38,-0.01,0.99,1.09,-0.12,-0.21,-0.86,-0.63,928.35
2.987,-1.07,-0.38,-0.01,0.99,1.09,-0.12,0.12,0.50,-0.28,928.35
3.001,-0.95,-0.27,-0.10,0.99,1.09,-0.12,0.12,0.50,-0.28,928.35
3.003,-0.95,-0.27,-0.10,-0.17,-0.17,0.46,0.12,0.50,-0.28,928.35
3.038,-0.95,-0.27,-0.10,-0.17,-0.17,0.46,0.12,0.50,-0.28,928.24
3.05,-0.95,-0.27,-0.10,-0.17,-0.17,0.46,0.10,0.34,-0.26,928.24
3.064,-1.03,-0.27,-0.03,-0.17,-0.17,0.46,0.10,0.34,-0.26,928.24
3.066,-1.03,-0.27,-0.03,0.71,-0.28,-0.39,0.10,0.34,-0.26,928.24
3.104,-1.03,-0.27,-0.03,0.71,-0.28,-0.39,0.10,0.34,-0.26,928.24
3.113,-1.03,-0.27,-0.03,0.71,-0.28,-0.39,0.02,0.54,-0.51,928.24
3.128,-0.81,-0.38,-0.18,0.71,-0.28,-0.39,0.02,0.54,-0.51,928.24
3.129,-0.81,-0.38,-0.18,-1.30,0.43,0.70,0.02,0.54,-0.51,928.24
3.171,-0.81,-0.38,-0.18,-1.30,0.43,0.70,0.02,0.54,-0.51,928.24
3.187,-0.81,-0.38,-0.18,-1.30,0.43,0.70,-0.05,1.48,-0.44,928.24
3.191,-0.77,-0.37,-0.23,-1.30,0.43,0.70,-0.05,1.48,-0.44,928.24
3.193,-0.77,-0.37,-0.23,-1.43,0.11,0.23,-0.05,1.48,-0.44,928.24
3.237,-0.77,-0.37,-0.23,-1.43,0.11,0.23,-0.05,1.48,-0.44,928.18
3.239,-0.77,-0.37,-0.23,-1.43,0.11,0.23,-0.34,2.33,-0.79,928.18
3.254,-0.58,-0.40,-0.32,-1.43,0.11,0.23,-0.34,2.33,-0.79,928.18
3.255,-0.58,-0.40,-0.32,-2.68,0.03,-0.27,-0.34,2.33,-0.79,928.18
3.303,-0.58,-0.40,-0.32,-2.68,0.03,-0.27,0.07,1.32,-1.13,928.18
3.304,-0.58,-0.40,-0.32,-2.68,0.03,-0.27,0.07,1.32,-1.13,928.18
3.319,-0.46,-0.45,-0.26,-2.68,0.03,-0.27,0.07,1.32,-1.13,928.18
3.32,-0.46,-0.45,-0.26,-3.26,-0.13,-1.43,0.07,1.32,-1.13,928.18
3.367,-0.46,-0.45,-0.26,-3.26,-0.13,-1.43,0.49,1.04,-1.32,928.18
3.37,-0.46,-0.45,-0.26,-3.26,-0.13,-1.43,0.49,1.04,-1.32,928.25
3.38,-0.52,-0.51,-0.26,-3.26,-0.13,-1.43,0.49,1.04,-1.32,928.25
3.381,-0.52,-0.51,-0.26,-1.96,-0.33,-1.70,0.49,1.04,-1.32,928.25
3.429,-0.52,-0.51,-0.26,-1.96,-0.33,-1.70,0.79,1.66,-1.73,928.25
3.437,-0.52,-0.51,-0.26,-1.96,-0.33,-1.70,0.79,1.66,-1.73,928.25
3.444,-0.25,-0.55,-0.31,-1.96,-0.33,-1.70,0.79,1.66,-1.73,928.25
3.445,-0.25,-0.55,-0.31,-3.42,-0.99,-1.72,0.79,1.66,-1.73,928.25
3.493,-0.25,-0.55,-0.31,-3.42,-0.99,-1.72,1.15,2.45,-1.83,928.25
3.503,-0.25,-0.55,-0.31,-3.42,-0.99,-1.72,1.15,2.45,-1.83,928.30
3.506,-0.21,-0.68,-0.38,-3.42,-0.99,-1.72,1.15,2.45,-1.83,928.30
3.507,-0.21,-0.68,-0.38,-2.23,-0.68,-1.18,1.15,2.45,-1.83,928.30
3.556,-0.21,-0.68,-0.38,-2.23,-0.68,-1.18,1.75,1.96,-2.23,928.30
3.57,-0.21,-0.68,-0.38,-2.23,-0.68,-1.18,1.75,1.96,-2.23,928.30
3.571,0.14,-0.83,-0.39,-2.23,-0.68,-1.18,1.75,1.96,-2.23,928.30
3.572,0.14,-0.83,-0.39,-3.95,-0.21,-0.67,1.75,1.96,-2.23,928.30
3.62,0.14,-0.83,-0.39,-3.95,-0.21,-0.67,1.86,1.71,-2.69,928.30
3.634,-0.02,-1.24,-0.54,-3.95,-0.21,-0.67,1.86,1.71,-2.69,928.30
3.634,-0.02,-1.24,-0.54,-0.48,3.01,1.71,1.86,1.71,-2.69,928.30
3.636,-0.02,-1.24,-0.54,-0.48,3.01,1.71,1.86,1.71,-2.69,928.36
3.682,-0.02,-1.24,-0.54,-0.48,3.01,1.71,1.95,-0.19,-2.93,928.36
3.697,0.17,-1.41,-0.41,-0.48,3.01,1.71,1.95,-0.19,-2.93,928.36
3.699,0.17,-1.41,-0.41,-0.65,4.39,1.56,1.95,-0.19,-2.93,928.36
3.703,0.17,-1.41,-0.41,-0.65,4.39,1.56,1.95,-0.19,-2.93,928.36
3.746,0.17,-1.41,-0.41,-0.65,4.39,1.56,1.59,-0.47,-2.33,928.36
3.76,-0.01,-1.42,-0.42,-0.65,4.39,1.56,1.59,-0.47,-2.33,928.36
3.761,-0.01,-1.42,-0.42,2.32,4.49,2.43,1.59,-0.47,-2.33,928.36
3.769,-0.01,-1.42,-0.42,2.32,4.49,2.43,1.59,-0.47,-2.33,928.36
3.808,-0.01,-1.42,-0.42,2.32,4.49,2.43,1.48,-2.36,-1.60,928.36
3.823,0.16,-1.29,-0.32,2.32,4.49,2.43,1.48,-2.36,-1.60,928.36
3.823,0.16,-1.29,-0.32,1.32,3.33,1.88,1.48,-2.36,-1.60,928.36
3.836,0.16,-1.29,-0.32,1.32,3.33,1.88,1.48,-2.36,-1.60,928.45
3.872,0.16,-1.29,-0.32,1.32,3.33,1.88,0.85,-1.96,-1.20,928.45
3.886,0.21,-1.13,-0.13,1.32,3.33,1.88,0.85,-1.96,-1.20,928.45
3.887,0.21,-1.13,-0.13,1.37,1.92,0.11,0.85,-1.96,-1.20,928.45
3.903,0.21,-1.13,-0.13,1.37,1.92,0.11,0.85,-1.96,-1.20,928.45
3.935,0.21,-1.13,-0.13,1.37,1.92,0.11,0.53,-0.81,-0.84,928.45
3.95,0.24,-1.10,-0.07,1.37,1.92,0.11,0.53,-0.81,-0.84,928.45
3.95,0.24,-1.10,-0.07,1.50,1.73,-0.29,0.53,-0.81,-0.84,928.45
3.97,0.24,-1.10,-0.07,1.50,1.73,-0.29,0.53,-0.81,-0.84,928.49
3.998,0.24,-1.10,-0.07,1.50,1.73,-0.29,0.25,0.53,-0.39,928.49
4.013,0.25,-0.95,-0.10,1.50,1.73,-0.29,0.25,0.53,-0.39,928.49
4.014,0.25,-0.95,-0.10,1.59,0.40,0.30,0.25,0.53,-0.39,928.49
4.036,0.25,-0.95,-0.10,1.59,0.40,0.30,0.25,0.53,-0.39,928.49
4.062,0.25,-0.95,-0.10,1.59,0.40,0.30,0.05,0.81,0.08,928.49
4.076,0.26,-0.95,-0.11,1.59,0.40,0.30,0.05,0.81,0.08,928.49
4.077,0.26,-0.95,-0.11,1.37,0.35,0.53,0.05,0.81,0.08,928.49
4.103,0.26,-0.95,-0.11,1.37,0.35,0.53,0.05,0.81,0.08,928.52
4.125,0.26,-0.95,-0.11,1.37,0.35,0.53,0.04,0.30,0.38,928.52
4.14,0.26,-0.98,-0.06,1.37,0.35,0.53,0.04,0.30,0.38,928.52
4.14,0.26,-0.98,-0.06,1.14,0.47,0.20,0.04,0.30,0.38,928.52
4.169,0.26,-0.98,-0.06,1.14,0.47,0.20,0.04,0.30,0.38,928.52
4.188,0.26,-0.98,-0.06,1.14,0.47,0.20,0.03,0.37,0.81,928.52
4.203,0.33,-1.00,-0.01,1.14,0.47,0.20,0.03,0.37,0.81,928.52
4.203,0.33,-1.00,-0.01,-0.02,0.49,-0.16,0.03,0.37,0.81,928.52
4.236,0.33,-1.00,-0.01,-0.02,0.49,-0.16,0.03,0.37,0.81,928.52
4.252,0.33,-1.00,-0.01,-0.02,0.49,-0.16,-0.10,1.35,1.31,928.52
4.269,0.19,-1.05,-0.06,-0.02,0.49,-0.16,-0.10,1.35,1.31,928.52
4.269,0.19,-1.05,-0.06,0.53,0.78,0.51,-0.10,1.35,1.31,928.52
4.303,0.19,-1.05,-0.06,0.53,0.78,0.51,-0.10,1.35,1.31,928.53
4.315,0.19,-1.05,-0.06,0.53,0.78,0.51,-0.01,0.74,1.66,928.53
4.329,0.17,-1.08,-0.02,0.53,0.78,0.51,-0.01,0.74,1.66,928.53
4.33,0.17,-1.08,-0.02,-0.25,0.81,0.14,-0.01,0.74,1.66,928.53
4.37,0.17,-1.08,-0.02,-0.25,0.81,0.14,-0.01,0.74,1.66,928.53
4.378,0.17,-1.08,-0.02,-0.25,0.81,0.14,0.05,0.68,1.84,928.53
4.393,0.16,-1.10,0.00,-0.25,0.81,0.14,0.05,0.68,1.84,928.53
4.393,0.16,-1.10,0.00,-1.28,0.90,-0.01,0.05,0.68,1.84,928.53
4.436,0.16,-1.10,0.00,-1.28,0.90,-0.01,0.05,0.68,1.84,928.47
4.441,0.16,-1.10,0.00,-1.28,0.90,-0.01,0.01,0.88,1.92,928.47
4.456,0.11,-1.05,-0.04,-1.28,0.90,-0.01,0.01,0.88,1.92,928.47
4.457,0.11,-1.05,-0.04,-2.00,0.51,0.45,0.01,0.88,1.92,928.47
4.503,0.11,-1.05,-0.04,-2.00,0.51,0.45,0.01,0.88,1.92,928.47
4.505,0.11,-1.05,-0.04,-2.00,0.51,0.45,-0.01,0.48,1.67,928.47
4.519,0.11,-1.07,0.01,-2.00,0.51,0.45,-0.01,0.48,1.67,928.47
4.52,0.11,-1.07,0.01,-2.96,0.79,-0.12,-0.01,0.48,1.67,928.47
4.568,0.11,-1.07,0.01,-2.96,0.79,-0.12,0.12,0.65,1.18,928.47
4.569,0.11,-1.07,0.01,-2.96,0.79,-0.12,0.12,0.65,1.18,928.45
4.583,0.05,-1.09,-0.00,-2.96,0.79,-0.12,0.12,0.65,1.18,928.45
4.583,0.05,-1.09,-0.00,-3.08,1.11,0.01,0.12,0.65,1.18,928.45
4.632,0.05,-1.09,-0.00,-3.08,1.11,0.01,0.16,0.76,0.70,928.45
4.636,0.05,-1.09,-0.00,-3.08,1.11,0.01,0.16,0.76,0.70,928.45
4.646,0.03,-1.05,-0.01,-3.08,1.11,0.01,0.16,0.76,0.70,928.45
4.647,0.03,-1.05,-0.01,-3.24,0.84,0.03,0.16,0.76,0.70,928.45
4.695,0.03,-1.05,-0.01,-3.24,0.84,0.03,0.18,0.63,0.25,928.45
4.703,0.03,-1.05,-0.01,-3.24,0.84,0.03,0.18,0.63,0.25,928.45
4.709,0.12,-0.99,0.08,-3.24,0.84,0.03,0.18,0.63,0.25,928.45
4.71,0.12,-0.99,0.08,-4.12,0.26,-0.84,0.18,0.63,0.25,928.45
4.758,0.12,-0.99,0.08,-4.12,0.26,-0.84,0.20,0.98,-0.32,928.45
4.77,0.12,-0.99,0.08,-4.12,0.26,-0.84,0.20,0.98,-0.32,928.47
4.773,0.08,-0.93,0.14,-4.12,0.26,-0.84,0.20,0.98,-0.32,928.47
4.773,0.08,-0.93,0.14,-3.52,-0.35,-1.46,0.20,0.98,-0.32,928.47
4.822,0.08,-0.93,0.14,-3.52,-0.35,-1.46,0.26,1.30,-0.57,928.47
4.836,0.05,-0.87,0.13,-3.52,-0.35,-1.46,0.26,1.30,-0.57,928.47
4.837,0.05,-0.87,0.13,-2.84,-1.09,-1.45,0.26,1.30,-0.57,928.47
4.837,0.05,-0.87,0.13,-2.84,-1.09,-1.45,0.26,1.30,-0.57,928.47
4.885,0.05,-0.87,0.13,-2.84,-1.09,-1.45,0.17,1.32,-0.72,928.47
4.9,-0.01,-0.91,0.09,-2.84,-1.09,-1.45,0.17,1.32,-0.72,928.47
4.901,-0.01,-0.91,0.09,-1.77,-0.74,-1.12,0.17,1.32,-0.72,928.47
4.903,-0.01,-0.91,0.09,-1.77,-0.74,-1.12,0.17,1.32,-0.72,928.50
4.948,-0.01,-0.91,0.09,-1.77,-0.74,-1.12,0.01,0.99,-0.82,928.50
4.963,0.02,-0.82,0.10,-1.77,-0.74,-1.12,0.01,0.99,-0.82,928.50
4.963,0.02,-0.82,0.10,-1.53,-1.72,-1.30,0.01,0.99,-0.82,928.50
4.969,0.02,-0.82,0.10,-1.53,-1.72,-1.30,0.01,0.99,-0.82,928.50
5.015,0.02,-0.82,0.10,-1.53,-1.72,-1.30,-0.10,0.80,-0.63,928.50
5.026,0.10,-0.90,0.17,-1.53,-1.72,-1.30,-0.10,0.80,-0.63,928.50
5.027,0.10,-0.90,0.17,-1.91,-0.98,-2.13,-0.10,0.80,-0.63,928.50
5.036,0.10,-0.90,0.17,-1.91,-0.98,-2.13,-0.10,0.80,-0.63,928.52
5.075,0.10,-0.90,0.17,-1.91,-0.98,-2.13,-0.19,0.37,-0.33,928.52
5.089,0.12,-1.27,0.32,-1.91,-0.98,-2.13,-0.19,0.37,-0.33,928.52
5.09,0.12,-1.27,0.32,-1.96,2.65,-3.76,-0.19,0.37,-0.33,928.52
5.103,0.12,-1.27,0.32,-1.96,2.65,-3.76,-0.19,0.37,-0.33,928.52
5.138,0.12,-1.27,0.32,-1.96,2.65,-3.76,-0.12,-0.04,-0.30,928.52
5.153,0.20,-1.26,0.16,-1.96,2.65,-3.76,-0.12,-0.04,-0.30,928.52
5.153,0.20,-1.26,0.16,-2.47,2.56,-2.25,-0.12,-0.04,-0.30,928.52
5.17,0.20,-1.26,0.16,-2.47,2.56,-2.25,-0.12,-0.04,-0.30,928.51
5.201,0.20,-1.26,0.16,-2.47,2.56,-2.25,-0.23,1.29,-0.33,928.51
5.216,0.04,-0.87,-0.49,-2.47,2.56,-2.25,-0.23,1.29,-0.33,928.51
5.216,0.04,-0.87,-0.49,-0.66,-1.32,3.99,-0.23,1.29,-0.33,928.51
5.236,0.04,-0.87,-0.49,-0.66,-1.32,3.99,-0.23,1.29,-0.33,928.51
5.272,0.04,-0.87,-0.49,-0.66,-1.32,3.99,-0.12,2.15,-0.26,928.51
5.291,-0.31,-1.32,-1.01,-0.66,-1.32,3.99,-0.12,2.15,-0.26,928.51
5.292,-0.31,-1.32,-1.01,3.06,3.09,8.93,-0.12,2.15,-0.26,928.51
5.304,-0.31,-1.32,-1.01,3.06,3.09,8.93,-0.12,2.15,-0.26,928.51
5.328,-0.31,-1.32,-1.01,3.06,3.09,8.93,-0.91,2.08,0.24,928.51
5.343,-0.69,-1.68,-0.63,3.06,3.09,8.93,-0.91,2.08,0.24,928.51
5.345,-0.69,-1.68,-0.63,6.69,6.74,4.60,-0.91,2.08,0.24,928.51
5.371,-0.69,-1.68,-0.63,6.69,6.74,4.60,-0.91,2.08,0.24,928.36
5.392,-0.69,-1.68,-0.63,6.69,6.74,4.60,-1.03,0.60,1.33,928.36
5.406,-0.55,-1.76,-0.12,6.69,6.74,4.60,-1.03,0.60,1.33,928.36
5.407,-0.55,-1.76,-0.12,4.50,7.70,-1.00,-1.03,0.60,1.33,928.36
5.437,-0.55,-1.76,-0.12,4.50,7.70,-1.00,-1.03,0.60,1.33,928.36
5.455,-0.55,-1.76,-0.12,4.50,7.70,-1.00,-0.78,0.83,1.93,928.36
5.47,-0.58,-0.46,0.07,4.50,7.70,-1.00,-0.78,0.83,1.93,928.36
5.472,-0.58,-0.46,0.07,3.65,-4.77,-3.44,-0.78,0.83,1.93,928.36
5.505,-0.58,-0.46,0.07,3.65,-4.77,-3.44,-0.78,0.83,1.93,928.34
5.527,-0.58,-0.46,0.07,3.65,-4.77,-3.44,-0.99,1.30,3.59,928.34
5.533,-0.41,-0.37,0.21,3.65,-4.77,-3.44,-0.99,1.30,3.59,928.34
5.534,-0.41,-0.37,0.21,0.16,-4.75,-5.61,-0.99,1.30,3.59,928.34
5.57,-0.41,-0.37,0.21,0.16,-4.75,-5.61,-0.99,1.30,3.59,928.34
5.582,-0.41,-0.37,0.21,0.16,-4.75,-5.61,-1.05,2.19,3.99,928.34
5.607,-0.57,-0.66,0.14,0.16,-4.75,-5.61,-1.05,2.19,3.99,928.34
5.608,-0.57,-0.66,0.14,0.37,-0.46,-5.97,-1.05,2.19,3.99,928.34
5.637,-0.57,-0.66,0.14,0.37,-0.46,-5.97,-1.05,2.19,3.99,928.35
5.645,-0.57,-0.66,0.14,0.37,-0.46,-5.97,-0.75,1.38,4.09,928.35
5.66,-0.48,-1.11,0.11,0.37,-0.46,-5.97,-0.75,1.38,4.09,928.35
5.66,-0.48,-1.11,0.11,-1.64,5.65,-6.43,-0.75,1.38,4.09,928.35
5.704,-0.48,-1.11,0.11,-1.64,5.65,-6.43,-0.75,1.38,4.09,928.35
5.708,-0.48,-1.11,0.11,-1.64,5.65,-6.43,-0.23,0.95,3.20,928.35
5.723,-0.37,-0.96,0.06,-1.64,5.65,-6.43,-0.23,0.95,3.20,928.35
5.724,-0.37,-0.96,0.06,-3.31,5.45,-6.30,-0.23,0.95,3.20,928.35
5.771,-0.37,-0.96,0.06,-3.31,5.45,-6.30,-0.23,0.95,3.20,928.35
5.772,-0.37,-0.96,0.06,-3.31,5.45,-6.30,0.43,0.84,1.58,928.35
5.787,-0.64,-0.96,-0.19,-3.31,5.45,-6.30,0.43,0.84,1.58,928.35
5.788,-0.64,-0.96,-0.19,-0.69,5.79,-4.07,0.43,0.84,1.58,928.35
5.835,-0.64,-0.96,-0.19,-0.69,5.79,-4.07,0.92,-0.26,1.07,928.35
5.837,-0.64,-0.96,-0.19,-0.69,5.79,-4.07,0.92,-0.26,1.07,928.36
5.85,-0.53,-0.75,-0.35,-0.69,5.79,-4.07,0.92,-0.26,1.07,928.36
5.851,-0.53,-0.75,-0.35,-2.12,3.86,-2.18,0.92,-0.26,1.07,928.36
5.899,-0.53,-0.75,-0.35,-2.12,3.86,-2.18,1.00,1.57,0.95,928.36
5.904,-0.53,-0.75,-0.35,-2.12,3.86,-2.18,1.00,1.57,0.95,928.36
5.913,-0.51,-0.87,-0.62,-2.12,3.86,-2.18,1.00,1.57,0.95,928.36
5.914,-0.51,-0.87,-0.62,-1.76,5.05,-0.16,1.00,1.57,0.95,928.36
5.962,-0.51,-0.87,-0.62,-1.76,5.05,-0.16,1.01,1.06,0.24,928.36
5.971,-0.51,-0.87,-0.62,-1.76,5.05,-0.16,1.01,1.06,0.24,928.35
5.976,-0.53,-1.00,-0.56,-1.76,5.05,-0.16,1.01,1.06,0.24,928.35
5.977,-0.53,-1.00,-0.56,-1.29,5.89,-0.82,1.01,1.06,0.24,928.35
6.025,-0.53,-1.00,-0.56,-1.29,5.89,-0.82,1.76,-0.12,-1.80,928.35
6.037,-0.53,-1.00,-0.56,-1.29,5.89,-0.82,1.76,-0.12,-1.80,928.35
6.039,-0.50,-1.02,-0.45,-1.29,5.89,-0.82,1.76,-0.12,-1.80,928.35
6.04,-0.50,-1.02,-0.45,-1.02,4.48,-1.20,1.76,-0.12,-1.80,928.35
6.089,-0.50,-1.02,-0.45,-1.02,4.48,-1.20,2.31,-0.98,-1.91,928.35
6.103,-0.70,-0.19,-0.74,-1.02,4.48,-1.20,2.31,-0.98,-1.91,928.35
6.105,-0.70,-0.19,-0.74,-1.02,4.48,-1.20,2.31,-0.98,-1.91,928.34
6.105,-0.70,-0.19,-0.74,1.28,-4.87,2.81,2.31,-0.98,-1.91,928.34
6.152,-0.70,-0.19,-0.74,1.28,-4.87,2.81,0.49,0.08,0.27,928.34
6.166,-1.00,0.02,-0.80,1.28,-4.87,2.81,0.49,0.08,0.27,928.34
6.167,-1.00,0.02,-0.80,3.97,-6.78,3.39,0.49,0.08,0.27,928.34
6.17,-1.00,0.02,-0.80,3.97,-6.78,3.39,0.49,0.08,0.27,928.34
6.215,-1.00,0.02,-0.80,3.97,-6.78,3.39,-0.33,-1.54,2.78,928.34
6.229,-0.42,0.00,-0.54,3.97,-6.78,3.39,-0.33,-1.54,2.78,928.34
6.23,-0.42,0.00,-0.54,-3.31,-5.20,1.42,-0.33,-1.54,2.78,928.34
6.237,-0.42,0.00,-0.54,-3.31,-5.20,1.42,-0.33,-1.54,2.78,928.34
6.279,-0.42,0.00,-0.54,-3.31,-5.20,1.42,-0.18,0.68,3.35,928.34
6.293,-0.36,-0.04,-0.46,-3.31,-5.20,1.42,-0.18,0.68,3.35,928.34
6.294,-0.36,-0.04,-0.46,-4.50,-3.22,-0.01,-0.18,0.68,3.35,928.34
6.303,-0.36,-0.04,-0.46,-4.50,-3.22,-0.01,-0.18,0.68,3.35,928.33
6.341,-0.36,-0.04,-0.46,-4.50,-3.22,-0.01,-0.23,0.94,1.21,928.33
6.356,-1.31,0.05,-0.74,-4.50,-3.22,-0.01,-0.23,0.94,1.21,928.33
6.357,-1.31,0.05,-0.74,4.79,-3.46,2.46,-0.23,0.94,1.21,928.33
6.371,-1.31,0.05,-0.74,4.79,-3.46,2.46,-0.23,0.94,1.21,928.33
6.407,-1.31,0.05,-0.74,4.79,-3.46,2.46,0.41,-0.40,-0.74,928.33
6.423,-1.93,-0.86,-1.02,4.79,-3.46,2.46,0.41,-0.40,-0.74,928.33
6.424,-1.93,-0.86,-1.02,10.90,4.76,5.50,0.41,-0.40,-0.74,928.33
6.437,-1.93,-0.86,-1.02,10.90,4.76,5.50,0.41,-0.40,-0.74,928.31
6.468,-1.93,-0.86,-1.02,10.90,4.76,5.50,0.68,-0.71,-0.39,928.31
6.482,-0.93,-0.55,-0.66,10.90,4.76,5.50,0.68,-0.71,-0.39,928.31
6.484,-0.93,-0.55,-0.66,1.18,1.35,2.35,0.68,-0.71,-0.39,928.31
6.507,-0.93,-0.55,-0.66,1.18,1.35,2.35,0.68,-0.71,-0.39,928.31
6.531,-0.93,-0.55,-0.66,1.18,1.35,2.35,0.74,0.24,-1.70,928.31
6.546,-0.20,-0.57,-0.57,1.18,1.35,2.35,0.74,0.24,-1.70,928.31
6.546,-0.20,-0.57,-0.57,-5.42,0.45,1.74,0.74,0.24,-1.70,928.31
6.57,-0.20,-0.57,-0.57,-5.42,0.45,1.74,0.74,0.24,-1.70,928.34
6.595,-0.20,-0.57,-0.57,-5.42,0.45,1.74,0.56,-0.67,-3.04,928.34
6.61,0.68,-0.44,-0.07,-5.42,0.45,1.74,0.56,-0.67,-3.04,928.34
6.612,0.68,-0.44,-0.07,-12.92,-2.50,-2.81,0.56,-0.67,-3.04,928.34
6.637,0.68,-0.44,-0.07,-12.92,-2.50,-2.81,0.56,-0.67,-3.04,928.34
6.658,0.68,-0.44,-0.07,-12.92,-2.50,-2.81,0.76,-1.10,-4.05,928.34
6.673,0.43,-0.42,-0.04,-12.92,-2.50,-2.81,0.76,-1.10,-4.05,928.34
6.674,0.43,-0.42,-0.04,-8.78,-4.18,-2.26,0.76,-1.10,-4.05,928.34
6.704,0.43,-0.42,-0.04,-8.78,-4.18,-2.26,0.76,-1.10,-4.05,928.38
6.722,0.43,-0.42,-0.04,-8.78,-4.18,-2.26,0.68,-1.06,-4.30,928.38
6.737,0.23,-0.51,0.03,-8.78,-4.18,-2.26,0.68,-1.06,-4.30,928.38
6.738,0.23,-0.51,0.03,-4.46,-4.38,-2.33,0.68,-1.06,-4.30,928.38
6.771,0.23,-0.51,0.03,-4.46,-4.38,-2.33,0.68,-1.06,-4.30,928.38
6.785,0.23,-0.51,0.03,-4.46,-4.38,-2.33,0.37,-1.48,-3.96,928.38
6.801,-0.02,-0.59,0.01,-4.46,-4.38,-2.33,0.37,-1.48,-3.96,928.38
6.802,-0.02,-0.59,0.01,0.06,-3.94,-1.81,0.37,-1.48,-3.96,928.38
6.837,-0.02,-0.59,0.01,0.06,-3.94,-1.81,0.37,-1.48,-3.96,928.38
6.848,-0.02,-0.59,0.01,0.06,-3.94,-1.81,0.37,-1.41,-3.92,928.38
6.863,-0.32,-2.30,-0.11,0.06,-3.94,-1.81,0.37,-1.41,-3.92,928.38
6.864,-0.32,-2.30,-0.11,5.40,13.04,-0.50,0.37,-1.41,-3.92,928.38
6.904,-0.32,-2.30,-0.11,5.40,13.04,-0.50,0.37,-1.41,-3.92,928.33
6.911,-0.32,-2.30,-0.11,5.40,13.04,-0.50,0.22,-0.19,-4.00,928.33
6.926,-1.17,-2.64,-0.48,5.40,13.04,-0.50,0.22,-0.19,-4.00,928.33
6.928,-1.17,-2.64,-0.48,15.77,17.16,3.16,0.22,-0.19,-4.00,928.33
6.971,-1.17,-2.64,-0.48,15.77,17.16,3.16,0.22,-0.19,-4.00,928.33
6.975,-1.17,-2.64,-0.48,15.77,17.16,3.16,0.85,-1.94,-1.82,928.33
6.99,-1.24,-2.15,-0.44,15.77,17.16,3.16,0.85,-1.94,-1.82,928.33
6.991,-1.24,-2.15,-0.44,16.93,12.63,2.65,0.85,-1.94,-1.82,928.33
7.038,-1.24,-2.15,-0.44,16.93,12.63,2.65,0.85,-1.94,-1.82,928.29
7.039,-1.24,-2.15,-0.44,16.93,12.63,2.65,0.89,-0.95,0.94,928.29
7.053,-0.80,-1.77,-0.68,16.93,12.63,2.65,0.89,-0.95,0.94,928.29
7.054,-0.80,-1.77,-0.68,11.79,8.43,5.28,0.89,-0.95,0.94,928.29
7.102,-0.80,-1.77,-0.68,11.79,8.43,5.28,0.35,0.03,2.31,928.29
7.104,-0.80,-1.77,-0.68,11.79,8.43,5.28,0.35,0.03,2.31,928.29
7.116,-0.43,-2.11,-0.52,11.79,8.43,5.28,0.35,0.03,2.31,928.29
7.117,-0.43,-2.11,-0.52,6.80,11.30,3.82,0.35,0.03,2.31,928.29
7.165,-0.43,-2.11,-0.52,6.80,11.30,3.82,0.03,0.82,3.91,928.29
7.206,-0.43,-2.11,-0.52,6.80,11.30,3.82,0.03,0.82,3.91,928.31
7.207,-0.27,-2.31,-0.22,6.80,11.30,3.82,0.03,0.82,3.91,928.31
7.209,-0.27,-2.31,-0.22,2.69,12.85,1.02,0.03,0.82,3.91,928.31
7.229,-0.27,-2.31,-0.22,2.69,12.85,1.02,0.20,1.38,5.25,928.31
7.238,-0.27,-2.31,-0.22,2.69,12.85,1.02,0.20,1.38,5.25,928.31
7.243,0.08,-1.61,0.06,2.69,12.85,1.02,0.20,1.38,5.25,928.31
7.244,0.08,-1.61,0.06,-3.83,6.45,-1.75,0.20,1.38,5.25,928.31
7.292,0.08,-1.61,0.06,-3.83,6.45,-1.75,-0.51,2.05,5.13,928.31
7.304,0.08,-1.61,0.06,-3.83,6.45,-1.75,-0.51,2.05,5.13,928.31
7.306,0.43,-0.79,0.06,-3.83,6.45,-1.75,-0.51,2.05,5.13,928.31
7.306,0.43,-0.79,0.06,-9.75,-0.15,-2.71,-0.51,2.05,5.13,928.31
7.355,0.43,-0.79,0.06,-9.75,-0.15,-2.71,-1.00,0.69,3.92,928.31
7.369,0.53,-0.56,0.33,-9.75,-0.15,-2.71,-1.00,0.69,3.92,928.31
7.37,0.53,-0.56,0.33,-12.31,-0.85,-5.79,-1.00,0.69,3.92,928.31
7.371,0.53,-0.56,0.33,-12.31,-0.85,-5.79,-1.00,0.69,3.92,928.35
7.419,0.53,-0.56,0.33,-12.31,-0.85,-5.79,-0.39,0.02,3.08,928.35
7.433,0.44,-0.30,0.09,-12.31,-0.85,-5.79,-0.39,0.02,3.08,928.35
7.434,0.44,-0.30,0.09,-12.45,-1.93,-3.74,-0.39,0.02,3.08,928.35
7.437,0.44,-0.30,0.09,-12.45,-1.93,-3.74,-0.39,0.02,3.08,928.35
7.482,0.44,-0.30,0.09,-12.45,-1.93,-3.74,-0.20,0.60,2.28,928.35
7.496,0.40,-0.25,0.19,-12.45,-1.93,-3.74,-0.20,0.60,2.28,928.35
7.497,0.40,-0.25,0.19,-12.50,-1.21,-5.01,-0.20,0.60,2.28,928.35
7.514,0.40,-0.25,0.19,-12.50,-1.21,-5.01,-0.20,0.60,2.28,928.39
7.545,0.40,-0.25,0.19,-12.50,-1.21,-5.01,0.07,1.46,1.51,928.39
7.56,0.20,-0.82,0.07,-12.50,-1.21,-5.01,0.07,1.46,1.51,928.39
7.561,0.20,-0.82,0.07,-10.37,4.95,-4.75,0.07,1.46,1.51,928.39
7.571,0.20,-0.82,0.07,-10.37,4.95,-4.75,0.07,1.46,1.51,928.39
7.608,0.20,-0.82,0.07,-10.37,4.95,-4.75,1.16,1.14,-1.24,928.39
7.627,-0.28,-1.74,-0.07,-10.37,4.95,-4.75,1.16,1.14,-1.24,928.39
7.629,-0.28,-1.74,-0.07,-4.99,12.64,-3.43,1.16,1.14,-1.24,928.39
7.645,-0.28,-1.74,-0.07,-4.99,12.64,-3.43,1.16,1.14,-1.24,928.36
7.671,-0.28,-1.74,-0.07,-4.99,12.64,-3.43,2.87,-1.12,-4.83,928.36
7.686,0.39,-1.78,-0.45,-4.99,12.64,-3.43,2.87,-1.12,-4.83,928.36
7.686,0.39,-1.78,-0.45,-9.82,10.01,1.87,2.87,-1.12,-4.83,928.36
7.704,0.39,-1.78,-0.45,-9.82,10.01,1.87,2.87,-1.12,-4.83,928.36
7.735,0.39,-1.78,-0.45,-9.82,10.01,1.87,2.85,1.35,-7.50,928.36
7.749,-0.18,-3.50,-0.98,-9.82,10.01,1.87,2.85,1.35,-7.50,928.36
7.75,-0.18,-3.50,-0.98,0.23,24.65,8.24,2.85,1.35,-7.50,928.36
7.78,-0.18,-3.50,-0.98,0.23,24.65,8.24,2.85,1.35,-7.50,928.36
7.802,-0.18,-3.50,-0.98,0.23,24.65,8.24,1.63,-1.08,-6.41,928.36
7.813,-0.91,-3.32,-0.66,0.23,24.65,8.24,1.63,-1.08,-6.41,928.36
7.814,-0.91,-3.32,-0.66,10.77,22.86,5.79,1.63,-1.08,-6.41,928.36
7.838,-0.91,-3.32,-0.66,10.77,22.86,5.79,1.63,-1.08,-6.41,928.21
7.862,-0.91,-3.32,-0.66,10.77,22.86,5.79,0.03,-3.39,-1.77,928.21
7.879,-0.77,-1.03,-0.17,10.77,22.86,5.79,0.03,-3.39,-1.77,928.21
7.88,-0.77,-1.03,-0.17,9.94,0.60,0.50,0.03,-3.39,-1.77,928.21
7.904,-0.77,-1.03,-0.17,9.94,0.60,0.50,0.03,-3.39,-1.77,928.21
7.925,-0.77,-1.03,-0.17,9.94,0.60,0.50,-0.24,-2.21,-0.56,928.21
7.939,-0.41,-0.18,0.25,9.94,0.60,0.50,-0.24,-2.21,-0.56,928.21
7.94,-0.41,-0.18,0.25,6.60,-7.58,-4.03,-0.24,-2.21,-0.56,928.21
7.977,-0.41,-0.18,0.25,6.60,-7.58,-4.03,-0.24,-2.21,-0.56,928.27
7.995,-0.41,-0.18,0.25,6.60,-7.58,-4.03,0.12,-1.26,-0.89,928.27
8.002,-0.58,-0.19,0.08,6.60,-7.58,-4.03,0.12,-1.26,-0.89,928.27
8.003,-0.58,-0.19,0.08,8.58,-7.40,-2.54,0.12,-1.26,-0.89,928.27
8.037,-0.58,-0.19,0.08,8.58,-7.40,-2.54,0.12,-1.26,-0.89,928.27
8.051,-0.58,-0.19,0.08,8.58,-7.40,-2.54,0.31,-1.48,-0.60,928.27
8.066,-0.38,-0.05,0.15,8.58,-7.40,-2.54,0.31,-1.48,-0.60,928.27
8.067,-0.38,-0.05,0.15,6.70,-8.66,-3.27,0.31,-1.48,-0.60,928.27
8.105,-0.38,-0.05,0.15,6.70,-8.66,-3.27,0.31,-1.48,-0.60,928.30
8.114,-0.38,-0.05,0.15,6.70,-8.66,-3.27,0.35,-1.06,-0.25,928.30
8.129,-0.29,0.02,-0.01,6.70,-8.66,-3.27,0.35,-1.06,-0.25,928.30
8.13,-0.29,0.02,-0.01,5.90,-9.43,-1.68,0.35,-1.06,-0.25,928.30
8.171,-0.29,0.02,-0.01,5.90,-9.43,-1.68,0.35,-1.06,-0.25,928.30
8.178,-0.29,0.02,-0.01,5.90,-9.43,-1.68,0.42,-0.92,-0.34,928.30
8.193,-0.38,-0.51,-0.28,5.90,-9.43,-1.68,0.42,-0.92,-0.34,928.30
8.194,-0.38,-0.51,-0.28,6.81,-4.16,1.05,0.42,-0.92,-0.34,928.30
8.238,-0.38,-0.51,-0.28,6.81,-4.16,1.05,0.42,-0.92,-0.34,928.26
8.242,-0.38,-0.51,-0.28,6.81,-4.16,1.05,0.07,0.92,-0.18,928.26
8.256,-0.71,-2.40,-0.45,6.81,-4.16,1.05,0.07,0.92,-0.18,928.26
8.256,-0.71,-2.40,-0.45,10.23,14.35,2.85,0.07,0.92,-0.18,928.26
8.304,-0.71,-2.40,-0.45,10.23,14.35,2.85,0.07,0.92,-0.18,928.26
8.304,-0.71,-2.40,-0.45,10.23,14.35,2.85,-0.49,0.83,1.47,928.26
8.319,-1.00,-2.27,-0.73,10.23,14.35,2.85,-0.49,0.83,1.47,928.26
8.319,-1.00,-2.27,-0.73,11.89,12.80,5.45,-0.49,0.83,1.47,928.26
8.368,-1.00,-2.27,-0.73,11.89,12.80,5.45,0.01,-1.53,4.00,928.26
8.37,-1.00,-2.27,-0.73,11.89,12.80,5.45,0.01,-1.53,4.00,928.26
8.383,-0.58,-2.87,-0.44,11.89,12.80,5.45,0.01,-1.53,4.00,928.26
8.384,-0.58,-2.87,-0.44,4.97,18.46,2.53,0.01,-1.53,4.00,928.26
8.432,-0.58,-2.87,-0.44,4.97,18.46,2.53,-0.11,-0.37,6.10,928.26
8.439,-0.58,-2.87,-0.44,4.97,18.46,2.53,-0.11,-0.37,6.10,928.28
8.446,-0.28,-3.64,-0.02,4.97,18.46,2.53,-0.11,-0.37,6.10,928.28
8.447,-0.28,-3.64,-0.02,-1.62,26.98,-1.61,-0.11,-0.37,6.10,928.28
8.494,-0.28,-3.64,-0.02,-1.62,26.98,-1.61,0.30,1.25,5.77,928.28
8.505,-0.28,-3.64,-0.02,-1.62,26.98,-1.61,0.30,1.25,5.77,928.28
8.512,0.23,-1.73,0.08,-1.62,26.98,-1.61,0.30,1.25,5.77,928.28
8.512,0.23,-1.73,0.08,-9.10,10.26,-2.96,0.30,1.25,5.77,928.28
8.558,0.23,-1.73,0.08,-9.10,10.26,-2.96,-0.04,1.35,4.53,928.28
8.57,0.23,-1.73,0.08,-9.10,10.26,-2.96,-0.04,1.35,4.53,928.33
8.572,0.75,-0.59,0.14,-9.10,10.26,-2.96,-0.04,1.35,4.53,928.33
8.572,0.75,-0.59,0.14,-15.57,1.12,-4.15,-0.04,1.35,4.53,928.33
8.622,0.75,-0.59,0.14,-15.57,1.12,-4.15,-0.17,0.89,3.05,928.33
8.636,0.96,-0.23,0.19,-15.57,1.12,-4.15,-0.17,0.89,3.05,928.33
8.637,0.96,-0.23,0.19,-18.14,-0.95,-5.17,-0.17,0.89,3.05,928.33
8.638,0.96,-0.23,0.19,-18.14,-0.95,-5.17,-0.17,0.89,3.05,928.33
8.684,0.96,-0.23,0.19,-18.14,-0.95,-5.17,-0.22,0.53,1.33,928.33
8.699,0.57,-0.09,0.18,-18.14,-0.95,-5.17,-0.22,0.53,1.33,928.33
8.7,0.57,-0.09,0.18,-14.40,-1.60,-5.38,-0.22,0.53,1.33,928.33
8.705,0.57,-0.09,0.18,-14.40,-1.60,-5.38,-0.22,0.53,1.33,928.38
8.748,0.57,-0.09,0.18,-14.40,-1.60,-5.38,-0.06,0.67,0.58,928.38
8.763,0.34,-0.05,0.10,-14.40,-1.60,-5.38,-0.06,0.67,0.58,928.38
8.763,0.34,-0.05,0.10,-12.03,-1.81,-5.05,-0.06,0.67,0.58,928.38
8.771,0.34,-0.05,0.10,-12.03,-1.81,-5.05,-0.06,0.67,0.58,928.38
8.812,0.34,-0.05,0.10,-12.03,-1.81,-5.05,0.27,0.93,0.01,928.38
8.826,-0.04,-0.42,0.05,-12.03,-1.81,-5.05,0.27,0.93,0.01,928.38
8.827,-0.04,-0.42,0.05,-8.00,1.62,-4.93,0.27,0.93,0.01,928.38
8.838,-0.04,-0.42,0.05,-8.00,1.62,-4.93,0.27,0.93,0.01,928.38
8.882,-0.04,-0.42,0.05,-8.00,1.62,-4.93,1.16,0.70,-2.52,928.38
8.91,-0.27,-1.24,-0.08,-8.00,1.62,-4.93,1.16,0.70,-2.52,928.38
8.911,-0.27,-1.24,-0.08,-4.88,7.68,-3.74,1.16,0.70,-2.52,928.38
8.912,-0.27,-1.24,-0.08,-4.88,7.68,-3.74,1.16,0.70,-2.52,928.39
8.938,-0.27,-1.24,-0.08,-4.88,7.68,-3.74,2.36,1.16,-5.96,928.39
8.953,-0.14,-2.62,-0.40,-4.88,7.68,-3.74,2.36,1.16,-5.96,928.39
8.954,-0.14,-2.62,-0.40,-3.27,17.96,-0.12,2.36,1.16,-5.96,928.39
8.971,-0.14,-2.62,-0.40,-3.27,17.96,-0.12,2.36,1.16,-5.96,928.39
9.001,-0.14,-2.62,-0.40,-3.27,17.96,-0.12,3.04,-0.78,-7.39,928.39
9.019,-0.47,-3.39,-0.45,-3.27,17.96,-0.12,3.04,-0.78,-7.39,928.39
9.02,-0.47,-3.39,-0.45,3.73,23.65,2.15,3.04,-0.78,-7.39,928.39
9.044,-0.47,-3.39,-0.45,3.73,23.65,2.15,3.04,-0.78,-7.39,928.32
9.064,-0.47,-3.39,-0.45,3.73,23.65,2.15,1.25,-2.34,-5.73,928.32
9.079,-0.77,-3.20,-0.52,3.73,23.65,2.15,1.25,-2.34,-5.73,928.32
9.081,-0.77,-3.20,-0.52,9.42,21.84,3.27,1.25,-2.34,-5.73,928.32
9.105,-0.77,-3.20,-0.52,9.42,21.84,3.27,1.25,-2.34,-5.73,928.32
9.128,-0.77,-3.20,-0.52,9.42,21.84,3.27,0.48,-5.16,-1.16,928.32
9.148,-0.47,-0.90,-0.18,9.42,21.84,3.27,0.48,-5.16,-1.16,928.32
9.149,-0.47,-0.90,-0.18,6.29,-0.59,-0.41,0.48,-5.16,-1.16,928.32
9.173,-0.47,-0.90,-0.18,6.29,-0.59,-0.41,0.48,-5.16,-1.16,928.35
9.192,-0.47,-0.90,-0.18,6.29,-0.59,-0.41,0.42,-2.36,-0.44,928.35
9.206,-0.13,-0.28,0.22,6.29,-0.59,-0.41,0.42,-2.36,-0.44,928.35
9.207,-0.13,-0.28,0.22,2.95,-6.76,-4.21,0.42,-2.36,-0.44,928.35
9.238,-0.13,-0.28,0.22,2.95,-6.76,-4.21,0.42,-2.36,-0.44,928.35
9.254,-0.13,-0.28,0.22,2.95,-6.76,-4.21,0.11,0.20,-1.01,928.35
9.269,-0.44,-0.12,0.12,2.95,-6.76,-4.21,0.11,0.20,-1.01,928.35
9.27,-0.44,-0.12,0.12,6.63,-8.17,-3.12,0.11,0.20,-1.01,928.35
9.304,-0.44,-0.12,0.12,6.63,-8.17,-3.12,0.11,0.20,-1.01,928.35
9.318,-0.44,-0.12,0.12,6.63,-8.17,-3.12,0.19,-0.77,-1.07,928.35
9.332,-0.45,-0.14,0.08,6.63,-8.17,-3.12,0.19,-0.77,-1.07,928.35
9.334,-0.45,-0.14,0.08,7.15,-7.85,-2.77,0.19,-0.77,-1.07,928.35
9.371,-0.45,-0.14,0.08,7.15,-7.85,-2.77,0.19,-0.77,-1.07,928.35
9.382,-0.45,-0.14,0.08,7.15,-7.85,-2.77,0.11,-1.12,-0.92,928.35
9.396,-0.34,0.04,0.18,7.15,-7.85,-2.77,0.11,-1.12,-0.92,928.35
9.397,-0.34,0.04,0.18,6.44,-9.47,-3.88,0.11,-1.12,-0.92,928.35
9.438,-0.34,0.04,0.18,6.44,-9.47,-3.88,0.11,-1.12,-0.92,928.35
9.444,-0.34,0.04,0.18,6.44,-9.47,-3.88,0.47,-1.52,-0.95,928.35
9.46,-0.39,-0.60,-0.04,6.44,-9.47,-3.88,0.47,-1.52,-0.95,928.35
9.461,-0.39,-0.60,-0.04,7.24,-3.07,-1.77,0.47,-1.52,-0.95,928.35
9.505,-0.39,-0.60,-0.04,7.24,-3.07,-1.77,0.47,-1.52,-0.95,928.33
9.508,-0.39,-0.60,-0.04,7.24,-3.07,-1.77,0.89,-1.05,-0.50,928.33
9.522,-0.60,-2.17,-0.42,7.24,-3.07,-1.77,0.89,-1.05,-0.50,928.33
9.522,-0.60,-2.17,-0.42,9.27,12.17,2.31,0.89,-1.05,-0.50,928.33
9.571,-0.60,-2.17,-0.42,9.27,12.17,2.31,1.49,-1.00,1.54,928.33
9.574,-0.60,-2.17,-0.42,9.27,12.17,2.31,1.49,-1.00,1.54,928.33
9.585,-0.21,-1.61,-0.87,9.27,12.17,2.31,1.49,-1.00,1.54,928.33
9.586,-0.21,-1.61,-0.87,4.29,6.25,7.37,1.49,-1.00,1.54,928.33
9.635,-0.21,-1.61,-0.87,4.29,6.25,7.37,0.69,0.77,2.23,928.33
9.638,-0.21,-1.61,-0.87,4.29,6.25,7.37,0.69,0.77,2.23,928.24
9.657,-0.70,-2.24,-0.90,4.29,6.25,7.37,0.69,0.77,2.23,928.24
9.658,-0.70,-2.24,-0.90,7.63,12.16,8.10,0.69,0.77,2.23,928.24
9.698,-0.70,-2.24,-0.90,7.63,12.16,8.10,0.35,-1.81,5.53,928.24
9.704,-0.70,-2.24,-0.90,7.63,12.16,8.10,0.35,-1.81,5.53,928.24
9.712,-0.89,-4.03,-0.80,7.63,12.16,8.10,0.35,-1.81,5.53,928.24
9.713,-0.89,-4.03,-0.80,5.60,30.16,7.45,0.35,-1.81,5.53,928.24
9.77,-0.89,-4.03,-0.80,5.60,30.16,7.45,0.33,-0.76,8.03,928.24
9.772,-0.89,-4.03,-0.80,5.60,30.16,7.45,0.33,-0.76,8.03,928.33
9.791,0.15,-3.33,-0.52,5.60,30.16,7.45,0.33,-0.76,8.03,928.33
9.792,0.15,-3.33,-0.52,-8.60,25.75,4.95,0.33,-0.76,8.03,928.33
9.824,0.15,-3.33,-0.52,-8.60,25.75,4.95,-0.38,0.57,5.30,928.33
9.838,0.15,-3.33,-0.52,-8.60,25.75,4.95,-0.38,0.57,5.30,928.33
9.839,0.74,-1.35,-0.36,-8.60,25.75,4.95,-0.38,0.57,5.30,928.33
9.84,0.74,-1.35,-0.36,-16.08,8.88,2.86,-0.38,0.57,5.30,928.33
9.888,0.74,-1.35,-0.36,-16.08,8.88,2.86,-1.08,0.88,3.49,928.33
9.902,0.98,-0.78,-0.14,-16.08,8.88,2.86,-1.08,0.88,3.49,928.33
9.902,0.98,-0.78,-0.14,-19.07,5.17,0.01,-1.08,0.88,3.49,928.33
9.904,0.98,-0.78,-0.14,-19.07,5.17,0.01,-1.08,0.88,3.49,928.33
9.951,0.98,-0.78,-0.14,-19.07,5.17,0.01,-1.16,1.01,2.02,928.33
9.966,1.09,-0.34,0.02,-19.07,5.17,0.01,-1.16,1.01,2.02,928.33
9.967,1.09,-0.34,0.02,-20.26,2.12,-2.36,-1.16,1.01,2.02,928.33
9.971,1.09,-0.34,0.02,-20.26,2.12,-2.36,-1.16,1.01,2.02,928.38
10.018,1.09,-0.34,0.02,-20.26,2.12,-2.36,-1.50,0.16,0.26,928.38
10.041,1.09,-0.34,0.02,-20.42,0.88,-4.18,-1.50,0.16,0.26,928.38
10.043,1.11,-0.19,0.19,-20.42,0.88,-4.18,-1.50,0.16,0.26,928.38
10.043,1.11,-0.19,0.19,-20.42,0.88,-4.18,-1.50,0.16,0.26,928.38
10.077,1.11,-0.19,0.19,-20.42,0.88,-4.18,-1.71,0.12,-1.09,928.38
10.092,0.68,-0.22,0.24,-20.42,0.88,-4.18,-1.71,0.12,-1.09,928.38
10.094,0.68,-0.22,0.24,-16.05,0.59,-4.72,-1.71,0.12,-1.09,928.38
10.104,0.68,-0.22,0.24,-16.05,0.59,-4.72,-1.71,0.12,-1.09,928.41
10.152,0.68,-0.22,0.24,-16.05,0.59,-4.72,-1.19,-0.48,-2.75,928.41
10.158,-0.05,-0.91,0.28,-16.05,0.59,-4.72,-1.19,-0.48,-2.75,928.41
10.158,-0.05,-0.91,0.28,-8.59,5.63,-4.92,-1.19,-0.48,-2.75,928.41
10.171,-0.05,-0.91,0.28,-8.59,5.63,-4.92,-1.19,-0.48,-2.75,928.41
10.204,-0.05,-0.91,0.28,-8.59,5.63,-4.92,-0.22,-1.87,-5.88,928.41
10.219,-0.64,-2.52,0.27,-8.59,5.63,-4.92,-0.22,-1.87,-5.88,928.41
10.22,-0.64,-2.52,0.27,-0.92,18.04,-3.89,-0.22,-1.87,-5.88,928.41
10.238,-0.64,-2.52,0.27,-0.92,18.04,-3.89,-0.22,-1.87,-5.88,928.42
10.268,-0.64,-2.52,0.27,-0.92,18.04,-3.89,0.62,-0.39,-9.62,928.42
10.282,-1.22,-4.87,0.13,-0.92,18.04,-3.89,0.62,-0.39,-9.62,928.42
10.283,-1.22,-4.87,0.13,9.90,38.05,-1.92,0.62,-0.39,-9.62,928.42
10.304,-1.22,-4.87,0.13,9.90,38.05,-1.92,0.62,-0.39,-9.62,928.42
10.33,-1.22,-4.87,0.13,9.90,38.05,-1.92,1.28,-3.11,-8.32,928.42
10.345,-1.17,-3.43,-0.23,9.90,38.05,-1.92,1.28,-3.11,-8.32,928.42
10.346,-1.17,-3.43,-0.23,14.09,24.07,2.13,1.28,-3.11,-8.32,928.42
10.371,-1.17,-3.43,-0.23,14.09,24.07,2.13,1.28,-3.11,-8.32,928.42
10.394,-1.17,-3.43,-0.23,14.09,24.07,2.13,0.35,-3.76,-2.97,928.42
10.409,-1.05,-1.94,0.02,14.09,24.07,2.13,0.35,-3.76,-2.97,928.42
10.409,-1.05,-1.94,0.02,14.11,9.95,-0.84,0.35,-3.76,-2.97,928.42
10.438,-1.05,-1.94,0.02,14.11,9.95,-0.84,0.35,-3.76,-2.97,928.45
10.457,-1.05,-1.94,0.02,14.11,9.95,-0.84,1.05,-3.65,-0.41,928.45
10.472,-0.53,-0.55,0.02,14.11,9.95,-0.84,1.05,-3.65,-0.41,928.45
10.473,-0.53,-0.55,0.02,8.88,-3.67,-1.09,1.05,-3.65,-0.41,928.45
10.505,-0.53,-0.55,0.02,8.88,-3.67,-1.09,1.05,-3.65,-0.41,928.45
10.521,-0.53,-0.55,0.02,8.88,-3.67,-1.09,0.82,-1.64,0.33,928.45
10.536,-0.33,-0.03,0.04,8.88,-3.67,-1.09,0.82,-1.64,0.33,928.45
10.537,-0.33,-0.03,0.04,6.58,-8.89,-1.22,0.82,-1.64,0.33,928.45
10.572,-0.33,-0.03,0.04,6.58,-8.89,-1.22,0.82,-1.64,0.33,928.42
10.584,-0.33,-0.03,0.04,6.58,-8.89,-1.22,0.53,-1.85,-0.11,928.42
10.599,-0.46,0.12,0.11,6.58,-8.89,-1.22,0.53,-1.85,-0.11,928.42
10.6,-0.46,0.12,0.11,7.88,-10.40,-1.94,0.53,-1.85,-0.11,928.42
10.639,-0.46,0.12,0.11,7.88,-10.40,-1.94,0.53,-1.85,-0.11,928.42
10.648,-0.46,0.12,0.11,7.88,-10.40,-1.94,0.63,-2.34,-0.48,928.42
10.667,-0.41,0.10,0.08,7.88,-10.40,-1.94,0.63,-2.34,-0.48,928.42
10.667,-0.41,0.10,0.08,7.45,-10.17,-1.85,0.63,-2.34,-0.48,928.42
10.705,-0.41,0.10,0.08,7.45,-10.17,-1.85,0.63,-2.34,-0.48,928.39
10.711,-0.41,0.10,0.08,7.45,-10.17,-1.85,0.71,-1.65,-0.19,928.39
10.726,-0.41,0.04,0.07,7.45,-10.17,-1.85,0.71,-1.65,-0.19,928.39
10.727,-0.41,0.04,0.07,7.38,-9.58,-1.65,0.71,-1.65,-0.19,928.39
10.771,-0.41,0.04,0.07,7.38,-9.58,-1.65,0.71,-1.65,-0.19,928.39
10.773,-0.41,0.04,0.07,7.38,-9.58,-1.65,1.06,-0.97,0.15,928.39
10.788,-0.52,-1.48,-0.29,7.38,-9.58,-1.65,1.06,-0.97,0.15,928.39
10.789,-0.52,-1.48,-0.29,8.32,5.20,2.41,1.06,-0.97,0.15,928.39
10.837,-0.52,-1.48,-0.29,8.32,5.20,2.41,0.94,0.15,0.98,928.39
10.838,-0.52,-1.48,-0.29,8.32,5.20,2.41,0.94,0.15,0.98,928.34
10.852,-0.82,-2.58,-0.50,8.32,5.20,2.41,0.94,0.15,0.98,928.34
10.853,-0.82,-2.58,-0.50,10.52,15.77,4.99,0.94,0.15,0.98,928.34
10.9,-0.82,-2.58,-0.50,10.52,15.77,4.99,1.26,-1.04,2.33,928.34
10.904,-0.82,-2.58,-0.50,10.52,15.77,4.99,1.26,-1.04,2.33,928.34
10.915,-0.64,-2.40,-0.73,10.52,15.77,4.99,1.26,-1.04,2.33,928.34
10.915,-0.64,-2.40,-0.73,7.19,13.73,7.90,1.26,-1.04,2.33,928.34
10.964,-0.64,-2.40,-0.73,7.19,13.73,7.90,0.84,0.10,3.99,928.34
10.971,-0.64,-2.40,-0.73,7.19,13.73,7.90,0.84,0.10,3.99,928.34
10.979,-0.98,-2.63,-0.70,7.19,13.73,7.90,0.84,0.10,3.99,928.34
10.98,-0.98,-2.63,-0.70,7.77,16.11,8.01,0.84,0.10,3.99,928.34
11.038,-0.98,-2.63,-0.70,7.77,16.11,8.01,0.76,-0.03,7.14,928.34
11.042,-0.98,-2.63,-0.70,7.77,16.11,8.01,0.76,-0.03,7.14,928.32
11.043,-0.35,-3.70,-0.46,7.77,16.11,8.01,0.76,-0.03,7.14,928.32
11.044,-0.35,-3.70,-0.46,-2.45,28.52,5.91,0.76,-0.03,7.14,928.32
11.091,-0.35,-3.70,-0.46,-2.45,28.52,5.91,-0.31,1.61,6.29,928.32
11.105,-0.35,-3.70,-0.46,-2.45,28.52,5.91,-0.31,1.61,6.29,928.32
11.106,0.13,-2.35,-0.25,-2.45,28.52,5.91,-0.31,1.61,6.29,928.32
11.108,0.13,-2.35,-0.25,-9.73,17.86,3.11,-0.31,1.61,6.29,928.32
11.154,0.13,-2.35,-0.25,-9.73,17.86,3.11,-0.70,0.56,3.33,928.32
11.168,0.61,-0.77,-0.22,-9.73,17.86,3.11,-0.70,0.56,3.33,928.32
11.169,0.61,-0.77,-0.22,-15.15,4.00,2.28,-0.70,0.56,3.33,928.32
11.171,0.61,-0.77,-0.22,-15.15,4.00,2.28,-0.70,0.56,3.33,928.30
11.217,0.61,-0.77,-0.22,-15.15,4.00,2.28,-0.72,0.10,2.24,928.30
11.231,0.62,-0.25,-0.09,-15.15,4.00,2.28,-0.72,0.10,2.24,928.30
11.232,0.62,-0.25,-0.09,-15.64,0.21,0.85,-0.72,0.10,2.24,928.30
11.237,0.62,-0.25,-0.09,-15.64,0.21,0.85,-0.72,0.10,2.24,928.30
11.28,0.62,-0.25,-0.09,-15.64,0.21,0.85,-0.93,0.46,1.32,928.30
11.295,0.50,-0.05,0.07,-15.64,0.21,0.85,-0.93,0.46,1.32,928.30
11.296,0.50,-0.05,0.07,-14.61,-1.04,-1.10,-0.93,0.46,1.32,928.30
11.304,0.50,-0.05,0.07,-14.61,-1.04,-1.10,-0.93,0.46,1.32,928.32
11.343,0.50,-0.05,0.07,-14.61,-1.04,-1.10,-1.31,-0.02,0.74,928.32
11.358,0.52,0.07,0.12,-14.61,-1.04,-1.10,-1.31,-0.02,0.74,928.32
11.358,0.52,0.07,0.12,-14.85,-1.81,-1.67,-1.31,-0.02,0.74,928.32
11.371,0.52,0.07,0.12,-14.85,-1.81,-1.67,-1.31,-0.02,0.74,928.32
11.407,0.52,0.07,0.12,-14.85,-1.81,-1.67,-1.29,0.48,-0.07,928.32
11.421,0.23,-0.11,0.17,-14.85,-1.81,-1.67,-1.29,0.48,-0.07,928.32
11.422,0.23,-0.11,0.17,-11.99,-0.17,-2.55,-1.29,0.48,-0.07,928.32
11.438,0.23,-0.11,0.17,-11.99,-0.17,-2.55,-1.29,0.48,-0.07,928.32
11.47,0.23,-0.11,0.17,-11.99,-0.17,-2.55,-0.47,-0.36,-1.61,928.32
11.485,-0.20,-0.54,0.07,-11.99,-0.17,-2.55,-0.47,-0.36,-1.61,928.32
11.485,-0.20,-0.54,0.07,-7.56,2.82,-1.25,-0.47,-0.36,-1.61,928.32
11.505,-0.20,-0.54,0.07,-7.56,2.82,-1.25,-0.47,-0.36,-1.61,928.32
11.534,-0.20,-0.54,0.07,-7.56,2.82,-1.25,0.13,-0.11,-5.16,928.32
11.549,-0.56,-2.14,-0.11,-7.56,2.82,-1.25,0.13,-0.11,-5.16,928.32
11.549,-0.56,-2.14,-0.11,-2.50,15.26,0.47,0.13,-0.11,-5.16,928.32
11.572,-0.56,-2.14,-0.11,-2.50,15.26,0.47,0.13,-0.11,-5.16,928.32
11.598,-0.56,-2.14,-0.11,-2.50,15.26,0.47,0.79,-0.71,-8.30,928.32
11.612,-1.00,-3.61,-0.23,-2.50,15.26,0.47,0.79,-0.71,-8.30,928.32
11.614,-1.00,-3.61,-0.23,5.81,26.35,2.51,0.79,-0.71,-8.30,928.32
11.639,-1.00,-3.61,-0.23,5.81,26.35,2.51,0.79,-0.71,-8.30,928.27
11.661,-1.00,-3.61,-0.23,5.81,26.35,2.51,0.18,-2.81,-7.68,928.27
11.675,-0.86,-3.33,-0.11,5.81,26.35,2.51,0.18,-2.81,-7.68,928.27
11.675,-0.86,-3.33,-0.11,8.87,22.76,1.64,0.18,-2.81,-7.68,928.27
11.705,-0.86,-3.33,-0.11,8.87,22.76,1.64,0.18,-2.81,-7.68,928.27
11.724,-0.86,-3.33,-0.11,8.87,22.76,1.64,-0.30,-3.65,-3.65,928.27
11.739,-0.76,-2.11,0.03,8.87,22.76,1.64,-0.30,-3.65,-3.65,928.27
11.74,-0.76,-2.11,0.03,9.72,11.08,-0.28,-0.30,-3.65,-3.65,928.27
11.772,-0.76,-2.11,0.03,9.72,11.08,-0.28,-0.30,-3.65,-3.65,928.32
11.794,-0.76,-2.11,0.03,9.72,11.08,-0.28,0.10,-2.82,-0.76,928.32
11.802,-0.45,-0.47,0.06,9.72,11.08,-0.28,0.10,-2.82,-0.76,928.32
11.802,-0.45,-0.47,0.06,6.96,-4.85,-0.90,0.10,-2.82,-0.76,928.32
11.839,-0.45,-0.47,0.06,6.96,-4.85,-0.90,0.10,-2.82,-0.76,928.32
11.851,-0.45,-0.47,0.06,6.96,-4.85,-0.90,-0.01,-1.05,-0.44,928.32
11.865,-0.39,0.03,0.18,6.96,-4.85,-0.90,-0.01,-1.05,-0.44,928.32
11.866,-0.39,0.03,0.18,6.61,-9.71,-2.27,-0.01,-1.05,-0.44,928.32
11.905,-0.39,0.03,0.18,6.61,-9.71,-2.27,-0.01,-1.05,-0.44,928.32
11.922,-0.39,0.03,0.18,6.61,-9.71,-2.27,0.15,-0.89,-1.05,928.32
11.929,-0.55,-0.04,-0.03,6.61,-9.71,-2.27,0.15,-0.89,-1.05,928.32
11.93,-0.55,-0.04,-0.03,8.77,-8.87,-0.29,0.15,-0.89,-1.05,928.32
11.972,-0.55,-0.04,-0.03,8.77,-8.87,-0.29,0.15,-0.89,-1.05,928.32
11.977,-0.55,-0.04,-0.03,8.77,-8.87,-0.29,0.09,-1.15,-1.19,928.32
11.992,-0.58,0.02,0.04,8.77,-8.87,-0.29,0.09,-1.15,-1.19,928.32
11.993,-0.58,0.02,0.04,9.59,-9.21,-1.23,0.09,-1.15,-1.19,928.32
12.039,-0.58,0.02,0.04,9.59,-9.21,-1.23,0.09,-1.15,-1.19,928.32
12.04,-0.58,0.02,0.04,9.59,-9.21,-1.23,0.15,-0.32,-0.41,928.32
12.057,-0.64,-0.12,-0.08,9.59,-9.21,-1.23,0.15,-0.32,-0.41,928.32
12.058,-0.64,-0.12,-0.08,10.34,-7.77,-0.01,0.15,-0.32,-0.41,928.32
12.104,-0.64,-0.12,-0.08,10.34,-7.77,-0.01,0.35,0.37,0.73,928.32
12.105,-0.64,-0.12,-0.08,10.34,-7.77,-0.01,0.35,0.37,0.73,928.33
12.119,-0.67,-1.93,-0.24,10.34,-7.77,-0.01,0.35,0.37,0.73,928.33
12.12,-0.67,-1.93,-0.24,10.15,9.77,1.94,0.35,0.37,0.73,928.33
12.167,-0.67,-1.93,-0.24,10.15,9.77,1.94,0.18,1.16,2.10,928.33
12.172,-0.67,-1.93,-0.24,10.15,9.77,1.94,0.18,1.16,2.10,928.33
12.182,-0.89,-2.63,-0.52,10.15,9.77,1.94,0.18,1.16,2.10,928.33
12.183,-0.89,-2.63,-0.52,10.81,16.16,4.99,0.18,1.16,2.10,928.33
12.231,-0.89,-2.63,-0.52,10.81,16.16,4.99,0.54,-0.44,4.18,928.33
12.238,-0.89,-2.63,-0.52,10.81,16.16,4.99,0.54,-0.44,4.18,928.27
12.244,-0.50,-2.73,-0.50,10.81,16.16,4.99,0.54,-0.44,4.18,928.27
12.245,-0.50,-2.73,-0.50,4.29,16.89,5.06,0.54,-0.44,4.18,928.27
12.294,-0.50,-2.73,-0.50,4.29,16.89,5.06,-0.16,1.37,5.47,928.27
12.305,-0.50,-2.73,-0.50,4.29,16.89,5.06,-0.16,1.37,5.47,928.27
12.308,-0.31,-3.02,-0.05,4.29,16.89,5.06,-0.16,1.37,5.47,928.27
12.309,-0.31,-3.02,-0.05,-0.96,20.61,0.27,-0.16,1.37,5.47,928.27
12.357,-0.31,-3.02,-0.05,-0.96,20.61,0.27,-0.15,1.09,5.28,928.27
12.372,-0.31,-3.02,-0.05,-0.96,20.61,0.27,-0.15,1.09,5.28,928.31
12.373,0.18,-2.36,0.19,-0.96,20.61,0.27,-0.15,1.09,5.28,928.31
12.373,0.18,-2.36,0.19,-8.35,15.81,-2.46,-0.15,1.09,5.28,928.31
12.421,0.18,-2.36,0.19,-8.35,15.81,-2.46,-0.07,1.14,3.22,928.31
12.436,0.53,-1.02,0.10,-8.35,15.81,-2.46,-0.07,1.14,3.22,928.31
12.437,0.53,-1.02,0.10,-12.93,3.93,-2.23,-0.07,1.14,3.22,928.31
12.438,0.53,-1.02,0.10,-12.93,3.93,-2.23,-0.07,1.14,3.22,928.31
12.484,0.53,-1.02,0.10,-12.93,3.93,-2.23,-0.20,0.79,2.13,928.31
12.498,0.63,-0.24,0.16,-12.93,3.93,-2.23,-0.20,0.79,2.13,928.31
12.499,0.63,-0.24,0.16,-14.48,-2.65,-3.13,-0.20,0.79,2.13,928.31
12.505,0.63,-0.24,0.16,-14.48,-2.65,-3.13,-0.20,0.79,2.13,928.31
12.547,0.63,-0.24,0.16,-14.48,-2.65,-3.13,-0.17,0.42,1.53,928.31
12.562,0.80,-0.20,0.19,-14.48,-2.65,-3.13,-0.17,0.42,1.53,928.31
12.563,0.80,-0.20,0.19,-16.53,-2.39,-3.74,-0.17,0.42,1.53,928.31
12.572,0.80,-0.20,0.19,-16.53,-2.39,-3.74,-0.17,0.42,1.53,928.36
12.61,0.80,-0.20,0.19,-16.53,-2.39,-3.74,-0.08,0.09,0.40,928.36
12.63,0.67,-0.03,0.15,-16.53,-2.39,-3.74,-0.08,0.09,0.40,928.36
12.631,0.67,-0.03,0.15,-15.32,-3.86,-3.33,-0.08,0.09,0.40,928.36
12.638,0.67,-0.03,0.15,-15.32,-3.86,-3.33,-0.08,0.09,0.40,928.36
12.674,0.67,-0.03,0.15,-15.32,-3.86,-3.33,0.07,0.08,-0.54,928.36
12.688,0.45,-0.11,0.15,-15.32,-3.86,-3.33,0.07,0.08,-0.54,928.36
12.69,0.45,-0.11,0.15,-12.94,-3.50,-3.40,0.07,0.08,-0.54,928.36
12.705,0.45,-0.11,0.15,-12.94,-3.50,-3.40,0.07,0.08,-0.54,928.35
12.737,0.45,-0.11,0.15,-12.94,-3.50,-3.40,0.89,0.52,-1.82,928.35
12.752,-0.10,-1.30,-0.05,-12.94,-3.50,-3.40,0.89,0.52,-1.82,928.35
12.753,-0.10,-1.30,-0.05,-6.70,6.81,-1.39,0.89,0.52,-1.82,928.35
12.772,-0.10,-1.30,-0.05,-6.70,6.81,-1.39,0.89,0.52,-1.82,928.35
12.8,-0.10,-1.30,-0.05,-6.70,6.81,-1.39,1.98,0.65,-5.38,928.35
12.816,-0.37,-2.80,-0.32,-6.70,6.81,-1.39,1.98,0.65,-5.38,928.35
12.819,-0.37,-2.80,-0.32,-1.25,18.95,1.94,1.98,0.65,-5.38,928.35
12.839,-0.37,-2.80,-0.32,-1.25,18.95,1.94,1.98,0.65,-5.38,928.25
12.875,-0.37,-2.80,-0.32,-1.25,18.95,1.94,1.87,1.22,-6.83,928.25
12.878,-0.63,-2.99,-0.46,-1.25,18.95,1.94,1.87,1.22,-6.83,928.25
12.879,-0.63,-2.99,-0.46,5.27,19.49,4.03,1.87,1.22,-6.83,928.25
12.905,-0.63,-2.99,-0.46,5.27,19.49,4.03,1.87,1.22,-6.83,928.25
12.927,-0.63,-2.99,-0.46,5.27,19.49,4.03,0.64,-1.90,-4.35,928.25
12.942,-0.62,-2.68,-0.32,5.27,19.49,4.03,0.64,-1.90,-4.35,928.25
12.943,-0.62,-2.68,-0.32,7.49,16.53,2.97,0.64,-1.90,-4.35,928.25
12.972,-0.62,-2.68,-0.32,7.49,16.53,2.97,0.64,-1.90,-4.35,928.25
12.991,-0.62,-2.68,-0.32,7.49,16.53,2.97,0.15,-2.30,-2.09,928.25
13.009,-0.62,-1.70,-0.15,7.49,16.53,2.97,0.15,-2.30,-2.09,928.25
13.01,-0.62,-1.70,-0.15,8.48,7.12,0.99,0.15,-2.30,-2.09,928.25
13.039,-0.62,-1.70,-0.15,8.48,7.12,0.99,0.15,-2.30,-2.09,928.26
13.053,-0.62,-1.70,-0.15,8.48,7.12,0.99,0.03,-2.15,-0.55,928.26
13.068,-0.30,-0.57,0.08,8.48,7.12,0.99,0.03,-2.15,-0.55,928.26
13.069,-0.30,-0.57,0.08,5.52,-3.92,-1.51,0.03,-2.15,-0.55,928.26
13.107,-0.30,-0.57,0.08,5.52,-3.92,-1.51,0.03,-2.15,-0.55,928.26
13.128,-0.30,-0.57,0.08,5.52,-3.92,-1.51,0.09,-0.64,-0.27,928.26
13.133,-0.30,-0.22,0.04,5.52,-3.92,-1.51,0.09,-0.64,-0.27,928.26
13.133,-0.30,-0.22,0.04,5.61,-7.25,-1.13,0.09,-0.64,-0.27,928.26
13.172,-0.30,-0.22,0.04,5.61,-7.25,-1.13,0.09,-0.64,-0.27,928.27
13.18,-0.30,-0.22,0.04,5.61,-7.25,-1.13,0.23,-0.62,-0.42,928.27
13.195,-0.34,-0.05,-0.05,5.61,-7.25,-1.13,0.23,-0.62,-0.42,928.27
13.196,-0.34,-0.05,-0.05,6.20,-8.90,-0.28,0.23,-0.62,-0.42,928.27
13.239,-0.34,-0.05,-0.05,6.20,-8.90,-0.28,0.23,-0.62,-0.42,928.27
13.243,-0.34,-0.05,-0.05,6.20,-8.90,-0.28,0.11,-0.89,-0.29,928.27
13.258,-0.23,0.06,0.04,6.20,-8.90,-0.28,0.11,-0.89,-0.29,928.27
13.259,-0.23,0.06,0.04,5.20,-9.96,-1.29,0.11,-0.89,-0.29,928.27
13.306,-0.23,0.06,0.04,5.20,-9.96,-1.29,0.11,-0.89,-0.29,928.28
13.307,-0.23,0.06,0.04,5.20,-9.96,-1.29,0.19,-0.32,-0.24,928.28
13.321,-0.25,0.03,-0.02,5.20,-9.96,-1.29,0.19,-0.32,-0.24,928.28
13.322,-0.25,0.03,-0.02,5.44,-9.68,-0.58,0.19,-0.32,-0.24,928.28
13.37,-0.25,0.03,-0.02,5.44,-9.68,-0.58,0.19,0.38,0.05,928.28
13.372,-0.25,0.03,-0.02,5.44,-9.68,-0.58,0.19,0.38,0.05,928.28
13.385,-0.41,-1.21,-0.16,5.44,-9.68,-0.58,0.19,0.38,0.05,928.28
13.386,-0.41,-1.21,-0.16,6.98,2.49,1.00,0.19,0.38,0.05,928.28
13.434,-0.41,-1.21,-0.16,6.98,2.49,1.00,-0.43,1.39,0.16,928.28
13.439,-0.41,-1.21,-0.16,6.98,2.49,1.00,-0.43,1.39,0.16,928.23
13.448,-0.99,-2.49,-0.31,6.98,2.49,1.00,-0.43,1.39,0.16,928.23
13.448,-0.99,-2.49,-0.31,12.45,14.98,2.37,-0.43,1.39,0.16,928.23
13.497,-0.99,-2.49,-0.31,12.45,14.98,2.37,-0.08,-0.27,2.27,928.23
13.506,-0.99,-2.49,-0.31,12.45,14.98,2.37,-0.08,-0.27,2.27,928.23
13.511,-0.81,-2.43,-0.63,12.45,14.98,2.37,-0.08,-0.27,2.27,928.23
13.511,-0.81,-2.43,-0.63,9.14,14.09,5.48,-0.08,-0.27,2.27,928.23
13.56,-0.81,-2.43,-0.63,9.14,14.09,5.48,-0.56,0.78,4.25,928.23
13.573,-0.81,-2.43,-0.63,9.14,14.09,5.48,-0.56,0.78,4.25,928.23
13.575,-0.51,-2.95,-0.31,9.14,14.09,5.48,-0.56,0.78,4.25,928.23
13.576,-0.51,-2.95,-0.31,3.33,19.23,1.80,-0.56,0.78,4.25,928.23
13.624,-0.51,-2.95,-0.31,3.33,19.23,1.80,-0.97,1.05,6.27,928.23
13.639,0.02,-3.52,0.12,3.33,19.23,1.80,-0.97,1.05,6.27,928.23
13.64,0.02,-3.52,0.12,3.33,19.23,1.80,-0.97,1.05,6.27,928.25
13.64,0.02,-3.52,0.12,-5.37,26.29,-3.02,-0.97,1.05,6.27,928.25
13.687,0.02,-3.52,0.12,-5.37,26.29,-3.02,-0.22,0.69,5.14,928.25
13.712,0.77,-1.55,0.36,-5.37,26.29,-3.02,-0.22,0.69,5.14,928.25
13.713,0.77,-1.55,0.36,-14.72,8.86,-5.73,-0.22,0.69,5.14,928.25
13.714,0.77,-1.55,0.36,-14.72,8.86,-5.73,-0.22,0.69,5.14,928.25
13.758,0.77,-1.55,0.36,-14.72,8.86,-5.73,-0.18,0.92,3.00,928.25
13.765,0.86,-0.52,0.21,-14.72,8.86,-5.73,-0.18,0.92,3.00,928.25
13.765,0.86,-0.52,0.21,-16.48,0.09,-4.73,-0.18,0.92,3.00,928.25
13.771,0.86,-0.52,0.21,-16.48,0.09,-4.73,-0.18,0.92,3.00,928.32
13.813,0.86,-0.52,0.21,-16.48,0.09,-4.73,-0.29,0.24,1.82,928.32
13.828,0.86,-0.28,0.32,-16.48,0.09,-4.73,-0.29,0.24,1.82,928.32
13.83,0.86,-0.28,0.32,-16.89,-1.45,-5.92,-0.29,0.24,1.82,928.32
13.843,0.86,-0.28,0.32,-16.89,-1.45,-5.92,-0.29,0.24,1.82,928.32
13.877,0.86,-0.28,0.32,-16.89,-1.45,-5.92,-0.06,-0.22,0.65,928.32
13.891,0.77,-0.07,0.26,-16.89,-1.45,-5.92,-0.06,-0.22,0.65,928.32
13.892,0.77,-0.07,0.26,-16.20,-3.19,-5.26,-0.06,-0.22,0.65,928.32
13.905,0.77,-0.07,0.26,-16.20,-3.19,-5.26,-0.06,-0.22,0.65,928.38
13.941,0.77,-0.07,0.26,-16.20,-3.19,-5.26,0.30,-0.06,-0.33,928.38
13.955,0.61,-0.11,0.16,-16.20,-3.19,-5.26,0.30,-0.06,-0.33,928.38
13.957,0.61,-0.11,0.16,-14.52,-3.15,-4.22,0.30,-0.06,-0.33,928.38
13.973,0.61,-0.11,0.16,-14.52,-3.15,-4.22,0.30,-0.06,-0.33,928.38
14.004,0.61,-0.11,0.16,-14.52,-3.15,-4.22,0.76,0.21,-1.11,928.38
14.021,0.33,-0.77,0.05,-14.52,-3.15,-4.22,0.76,0.21,-1.11,928.38
14.022,0.33,-0.77,0.05,-11.27,2.45,-3.02,0.76,0.21,-1.11,928.38
14.039,0.33,-0.77,0.05,-11.27,2.45,-3.02,0.76,0.21,-1.11,928.38
14.067,0.33,-0.77,0.05,-11.27,2.45,-3.02,1.55,0.78,-3.60,928.38
14.082,-0.12,-2.09,-0.30,-11.27,2.45,-3.02,1.55,0.78,-3.60,928.38
14.082,-0.12,-2.09,-0.30,-5.12,13.26,0.66,1.55,0.78,-3.60,928.38
14.106,-0.12,-2.09,-0.30,-5.12,13.26,0.66,1.55,0.78,-3.60,928.36
14.13,-0.12,-2.09,-0.30,-5.12,13.26,0.66,1.86,-0.53,-6.92,928.36
14.152,-0.55,-3.64,-0.22,-5.12,13.26,0.66,1.86,-0.53,-6.92,928.36
14.154,-0.55,-3.64,-0.22,2.86,26.14,1.16,1.86,-0.53,-6.92,928.36
14.173,-0.55,-3.64,-0.22,2.86,26.14,1.16,1.86,-0.53,-6.92,928.36
14.193,-0.55,-3.64,-0.22,2.86,26.14,1.16,1.39,-3.09,-6.87,928.36
14.208,-0.49,-3.08,-0.20,2.86,26.14,1.16,1.39,-3.09,-6.87,928.36
14.208,-0.49,-3.08,-0.20,6.12,20.40,1.76,1.39,-3.09,-6.87,928.36
14.239,-0.49,-3.08,-0.20,6.12,20.40,1.76,1.39,-3.09,-6.87,928.35
14.257,-0.49,-3.08,-0.20,6.12,20.40,1.76,-0.11,-1.42,-2.75,928.35
14.272,-0.94,-2.24,0.00,6.12,20.40,1.76,-0.11,-1.42,-2.75,928.35
14.272,-0.94,-2.24,0.00,11.80,12.44,-0.55,-0.11,-1.42,-2.75,928.35
14.306,-0.94,-2.24,0.00,11.80,12.44,-0.55,-0.11,-1.42,-2.75,928.35
14.32,-0.94,-2.24,0.00,11.80,12.44,-0.55,0.87,-4.26,-0.37,928.35
14.336,-0.28,-0.65,-0.07,11.80,12.44,-0.55,0.87,-4.26,-0.37,928.35
14.337,-0.28,-0.65,-0.07,5.28,-3.09,0.02,0.87,-4.26,-0.37,928.35
14.379,-0.28,-0.65,-0.07,5.28,-3.09,0.02,0.87,-4.26,-0.37,928.37
14.386,-0.28,-0.65,-0.07,5.28,-3.09,0.02,0.83,-2.05,-0.25,928.37
14.404,0.00,-0.15,0.18,5.28,-3.09,0.02,0.83,-2.05,-0.25,928.37
14.405,0.00,-0.15,0.18,2.62,-8.03,-2.21,0.83,-2.05,-0.25,928.37
14.439,0.00,-0.15,0.18,2.62,-8.03,-2.21,0.83,-2.05,-0.25,928.37
14.446,0.00,-0.15,0.18,2.62,-8.03,-2.21,0.62,-0.12,-0.83,928.37
14.462,-0.32,-0.10,0.02,2.62,-8.03,-2.21,0.62,-0.12,-0.83,928.37
14.463,-0.32,-0.10,0.02,6.28,-8.37,-0.30,0.62,-0.12,-0.83,928.37
14.506,-0.32,-0.10,0.02,6.28,-8.37,-0.30,0.62,-0.12,-0.83,928.37
14.51,-0.32,-0.10,0.02,6.28,-8.37,-0.30,0.60,-0.94,-1.14,928.37
14.525,-0.45,-0.05,-0.02,6.28,-8.37,-0.30,0.60,-0.94,-1.14,928.37
14.526,-0.45,-0.05,-0.02,8.13,-8.63,0.26,0.60,-0.94,-1.14,928.37
14.572,-0.45,-0.05,-0.02,8.13,-8.63,0.26,0.60,-0.94,-1.14,928.32
14.573,-0.45,-0.05,-0.02,8.13,-8.63,0.26,0.52,-1.74,-0.86,928.32
14.588,-0.40,0.02,-0.01,8.13,-8.63,0.26,0.52,-1.74,-0.86,928.32
14.588,-0.40,0.02,-0.01,8.07,-9.07,-0.01,0.52,-1.74,-0.86,928.32
14.637,-0.40,0.02,-0.01,8.07,-9.07,-0.01,0.64,-1.99,-0.51,928.32
14.64,-0.40,0.02,-0.01,8.07,-9.07,-0.01,0.64,-1.99,-0.51,928.32
14.658,-0.47,-1.16,-0.18,8.07,-9.07,-0.01,0.64,-1.99,-0.51,928.32
14.66,-0.47,-1.16,-0.18,8.95,2.56,1.49,0.64,-1.99,-0.51,928.32
14.7,-0.47,-1.16,-0.18,8.95,2.56,1.49,0.69,-2.27,0.07,928.32
14.706,-0.47,-1.16,-0.18,8.95,2.56,1.49,0.69,-2.27,0.07,928.29
14.715,-0.99,-2.39,-0.49,8.95,2.56,1.49,0.69,-2.27,0.07,928.29
14.716,-0.99,-2.39,-0.49,13.70,14.42,4.21,0.69,-2.27,0.07,928.29
14.763,-0.99,-2.39,-0.49,13.70,14.42,4.21,1.97,-3.46,2.38,928.29
14.782,-0.99,-2.39,-0.49,13.70,14.42,4.21,1.97,-3.46,2.38,928.29
14.783,-0.28,-1.82,-0.91,13.70,14.42,4.21,1.97,-3.46,2.38,928.29
14.784,-0.28,-1.82,-0.91,5.07,8.31,8.84,1.97,-3.46,2.38,928.29
14.864,-0.28,-1.82,-0.91,5.07,8.31,8.84,0.87,1.75,3.41,928.29
14.866,-0.28,-1.82,-0.91,5.07,8.31,8.84,0.87,1.75,3.41,928.17
14.867,-0.65,-2.37,-0.96,5.07,8.31,8.84,0.87,1.75,3.41,928.17
14.868,-0.65,-2.37,-0.96,6.38,13.34,9.77,0.87,1.75,3.41,928.17
14.895,-0.65,-2.37,-0.96,6.38,13.34,9.77,-0.01,0.02,6.65,928.17
14.919,-0.34,-4.03,-0.82,6.38,13.34,9.77,-0.01,0.02,6.65,928.17
14.92,-0.34,-4.03,-0.82,-0.84,30.59,8.51,-0.01,0.02,6.65,928.17
14.921,-0.34,-4.03,-0.82,-0.84,30.59,8.51,-0.01,0.02,6.65,928.17
14.954,-0.34,-4.03,-0.82,-0.84,30.59,8.51,-0.69,1.02,6.66,928.17
14.968,0.25,-2.70,-0.33,-0.84,30.59,8.51,-0.69,1.02,6.66,928.17
14.969,0.25,-2.70,-0.33,-9.68,19.79,2.80,-0.69,1.02,6.66,928.17
14.972,0.25,-2.70,-0.33,-9.68,19.79,2.80,-0.69,1.02,6.66,928.22
15.017,0.25,-2.70,-0.33,-9.68,19.79,2.80,-1.28,0.15,3.43,928.22
15.032,0.41,-0.85,-0.38,-9.68,19.79,2.80,-1.28,0.15,3.43,928.22
15.032,0.41,-0.85,-0.38,-12.41,3.24,2.87,-1.28,0.15,3.43,928.22
15.039,0.41,-0.85,-0.38,-12.41,3.24,2.87,-1.28,0.15,3.43,928.22
15.08,0.41,-0.85,-0.38,-12.41,3.24,2.87,-1.33,-0.72,2.21,928.22
15.094,0.78,-0.23,-0.20,-12.41,3.24,2.87,-1.33,-0.72,2.21,928.22
15.095,0.78,-0.23,-0.20,-16.61,-1.73,1.05,-1.33,-0.72,2.21,928.22
15.106,0.78,-0.23,-0.20,-16.61,-1.73,1.05,-1.33,-0.72,2.21,928.22
15.147,0.78,-0.23,-0.20,-16.61,-1.73,1.05,-1.75,0.11,1.05,928.22
15.17,0.67,-0.26,0.13,-16.61,-1.73,1.05,-1.75,0.11,1.05,928.22
15.172,0.67,-0.26,0.13,-15.76,-0.74,-2.59,-1.75,0.11,1.05,928.22
15.173,0.67,-0.26,0.13,-15.76,-0.74,-2.59,-1.75,0.11,1.05,928.28
15.207,0.67,-0.26,0.13,-15.76,-0.74,-2.59,-1.40,-0.68,0.07,928.28
15.222,0.84,-0.31,0.29,-15.76,-0.74,-2.59,-1.40,-0.68,0.07,928.28
15.222,0.84,-0.31,0.29,-17.43,-0.31,-4.05,-1.40,-0.68,0.07,928.28
15.249,0.84,-0.31,0.29,-17.43,-0.31,-4.05,-1.40,-0.68,0.07,928.28
15.278,0.84,-0.31,0.29,-17.43,-0.31,-4.05,-0.87,-0.15,-0.84,928.28
15.284,0.85,-0.21,0.33,-17.43,-0.31,-4.05,-0.87,-0.15,-0.84,928.28
15.284,0.85,-0.21,0.33,-17.33,-1.79,-4.56,-0.87,-0.15,-0.84,928.28
15.306,0.85,-0.21,0.33,-17.33,-1.79,-4.56,-0.87,-0.15,-0.84,928.33
15.333,0.85,-0.21,0.33,-17.33,-1.79,-4.56,-0.32,-0.44,-1.98,928.33
15.348,0.37,-0.79,0.13,-17.33,-1.79,-4.56,-0.32,-0.44,-1.98,928.33
15.35,0.37,-0.79,0.13,-12.00,2.62,-2.36,-0.32,-0.44,-1.98,928.33
15.378,0.37,-0.79,0.13,-12.00,2.62,-2.36,-0.32,-0.44,-1.98,928.33
15.409,0.37,-0.79,0.13,-12.00,2.62,-2.36,0.35,-0.05,-4.93,928.33
15.411,0.37,-0.79,0.13,-2.23,15.24,-0.90,0.35,-0.05,-4.93,928.33
15.413,-0.40,-2.34,0.01,-2.23,15.24,-0.90,0.35,-0.05,-4.93,928.33
15.439,-0.40,-2.34,0.01,-2.23,15.24,-0.90,0.35,-0.05,-4.93,928.22
15.46,-0.40,-2.34,0.01,-2.23,15.24,-0.90,1.27,-1.63,-8.65,928.22
15.475,-0.95,-4.53,-0.19,-2.23,15.24,-0.90,1.27,-1.63,-8.65,928.22
15.477,-0.95,-4.53,-0.19,8.17,34.59,2.22,1.27,-1.63,-8.65,928.22
15.515,-0.95,-4.53,-0.19,8.17,34.59,2.22,1.27,-1.63,-8.65,928.22
15.54,-0.95,-4.53,-0.19,8.17,34.59,2.22,1.07,-4.23,-7.39,928.22
15.542,-0.92,-3.69,0.00,8.17,34.59,2.22,1.07,-4.23,-7.39,928.22
15.542,-0.92,-3.69,0.00,12.17,26.81,0.53,1.07,-4.23,-7.39,928.22
15.572,-0.92,-3.69,0.00,12.17,26.81,0.53,1.07,-4.23,-7.39,928.22
15.586,-0.92,-3.69,0.00,12.17,26.81,0.53,0.15,-3.25,-3.55,928.22
15.601,-0.80,-2.14,0.26,12.17,26.81,0.53,0.15,-3.25,-3.55,928.22
15.602,-0.80,-2.14,0.26,12.74,12.45,-2.75,0.15,-3.25,-3.55,928.22
15.64,-0.80,-2.14,0.26,12.74,12.45,-2.75,0.15,-3.25,-3.55,928.18
15.65,-0.80,-2.14,0.26,12.74,12.45,-2.75,0.36,-3.12,-0.67,928.18
15.664,-0.56,-0.80,0.11,12.74,12.45,-2.75,0.36,-3.12,-0.67,928.18
15.665,-0.56,-0.80,0.11,10.40,-0.61,-2.06,0.36,-3.12,-0.67,928.18
15.706,-0.56,-0.80,0.11,10.40,-0.61,-2.06,0.36,-3.12,-0.67,928.18
15.713,-0.56,-0.80,0.11,10.40,-0.61,-2.06,0.72,-2.38,0.71,928.18
15.728,-0.01,-0.16,0.16,10.40,-0.61,-2.06,0.72,-2.38,0.71,928.18
15.729,-0.01,-0.16,0.16,4.43,-7.14,-2.76,0.72,-2.38,0.71,928.18
15.772,-0.01,-0.16,0.16,4.43,-7.14,-2.76,0.72,-2.38,0.71,928.20
15.776,-0.01,-0.16,0.16,4.43,-7.14,-2.76,0.70,-0.38,0.24,928.20
15.791,-0.24,-0.01,0.03,4.43,-7.14,-2.76,0.70,-0.38,0.24,928.20
15.791,-0.24,-0.01,0.03,6.54,-8.80,-1.19,0.70,-0.38,0.24,928.20
15.84,-0.24,-0.01,0.03,6.54,-8.80,-1.19,0.70,-0.38,0.24,928.20
15.841,-0.24,-0.01,0.03,6.54,-8.80,-1.19,0.88,-1.70,-0.48,928.20
15.856,-0.38,-0.00,-0.00,6.54,-8.80,-1.19,0.88,-1.70,-0.48,928.20
15.857,-0.38,-0.00,-0.00,8.11,-8.75,-0.86,0.88,-1.70,-0.48,928.20
15.906,-0.38,-0.00,-0.00,8.11,-8.75,-0.86,0.89,-1.95,-0.86,928.20
15.907,-0.38,-0.00,-0.00,8.11,-8.75,-0.86,0.89,-1.95,-0.86,928.20
15.917,-0.38,0.17,-0.04,8.11,-8.75,-0.86,0.89,-1.95,-0.86,928.20
15.918,-0.38,0.17,-0.04,8.41,-10.24,-0.54,0.89,-1.95,-0.86,928.20
15.966,-0.38,0.17,-0.04,8.41,-10.24,-0.54,0.88,-1.68,-0.47,928.20
15.973,-0.38,0.17,-0.04,8.41,-10.24,-0.54,0.88,-1.68,-0.47,928.20
15.981,-0.60,-0.09,-0.41,8.41,-10.24,-0.54,0.88,-1.68,-0.47,928.20
15.981,-0.60,-0.09,-0.41,10.57,-7.66,2.97,0.88,-1.68,-0.47,928.20
16.03,-0.60,-0.09,-0.41,10.57,-7.66,2.97,0.37,-1.22,0.04,928.20
16.04,-0.60,-0.09,-0.41,10.57,-7.66,2.97,0.37,-1.22,0.04,928.20
16.044,-1.68,-3.05,-0.98,10.57,-7.66,2.97,0.37,-1.22,0.04,928.20
16.045,-1.68,-3.05,-0.98,20.90,21.23,8.30,0.37,-1.22,0.04,928.20
16.093,-1.68,-3.05,-0.98,20.90,21.23,8.30,1.38,-2.20,3.93,928.20
16.106,-1.68,-3.05,-0.98,20.90,21.23,8.30,1.38,-2.20,3.93,928.16
16.108,-1.01,-3.03,-1.21,20.90,21.23,8.30,1.38,-2.20,3.93,928.16
16.109,-1.01,-3.03,-1.21,11.51,19.98,11.04,1.38,-2.20,3.93,928.16
16.157,-1.01,-3.03,-1.21,11.51,19.98,11.04,0.45,2.58,6.49,928.16
16.171,-0.97,-3.37,-0.63,11.51,19.98,11.04,0.45,2.58,6.49,928.16
16.172,-0.97,-3.37,-0.63,7.18,23.50,5.45,0.45,2.58,6.49,928.16
16.176,-0.97,-3.37,-0.63,7.18,23.50,5.45,0.45,2.58,6.49,928.16
16.22,-0.97,-3.37,-0.63,7.18,23.50,5.45,-0.14,0.31,7.31,928.16
16.234,-0.22,-3.52,-0.20,7.18,23.50,5.45,-0.14,0.31,7.31,928.16
16.235,-0.22,-3.52,-0.20,-4.20,26.95,1.08,-0.14,0.31,7.31,928.16
16.239,-0.22,-3.52,-0.20,-4.20,26.95,1.08,-0.14,0.31,7.31,928.21
16.284,-0.22,-3.52,-0.20,-4.20,26.95,1.08,-0.77,1.39,5.51,928.21
16.309,0.52,-2.38,0.18,-4.20,26.95,1.08,-0.77,1.39,5.51,928.21
16.311,0.52,-2.38,0.18,-13.28,18.17,-3.54,-0.77,1.39,5.51,928.21
16.312,0.52,-2.38,0.18,-13.28,18.17,-3.54,-0.77,1.39,5.51,928.21
16.347,0.52,-2.38,0.18,-13.28,18.17,-3.54,-0.35,-0.77,2.37,928.21
16.361,0.52,-2.38,0.18,-18.25,5.82,-2.48,-0.35,-0.77,2.37,928.21
16.362,0.96,-1.02,0.11,-18.25,5.82,-2.48,-0.35,-0.77,2.37,928.21
16.372,0.96,-1.02,0.11,-18.25,5.82,-2.48,-0.35,-0.77,2.37,928.26
16.416,0.96,-1.02,0.11,-18.25,5.82,-2.48,-0.21,0.23,0.56,928.26
16.441,0.79,-0.26,0.01,-18.25,5.82,-2.48,-0.21,0.23,0.56,928.26
16.442,0.79,-0.26,0.01,-16.63,-1.36,-1.71,-0.21,0.23,0.56,928.26
16.443,0.79,-0.26,0.01,-16.63,-1.36,-1.71,-0.21,0.23,0.56,928.26
16.473,0.79,-0.26,0.01,-16.63,-1.36,-1.71,-0.39,0.05,-0.28,928.26
16.487,0.80,-0.18,0.15,-16.63,-1.36,-1.71,-0.39,0.05,-0.28,928.26
16.488,0.80,-0.18,0.15,-16.66,-2.31,-3.22,-0.39,0.05,-0.28,928.26
16.515,0.80,-0.18,0.15,-16.66,-2.31,-3.22,-0.39,0.05,-0.28,928.28
16.54,0.80,-0.18,0.15,-16.66,-2.31,-3.22,-0.40,-0.22,-1.33,928.28
16.551,0.66,-0.02,0.18,-16.66,-2.31,-3.22,-0.40,-0.22,-1.33,928.28
16.551,0.66,-0.02,0.18,-14.90,-4.64,-3.50,-0.40,-0.22,-1.33,928.28
16.572,0.66,-0.02,0.18,-14.90,-4.64,-3.50,-0.40,-0.22,-1.33,928.28
16.6,0.66,-0.02,0.18,-14.90,-4.64,-3.50,0.01,-0.18,-2.23,928.28
16.614,0.30,-0.27,0.14,-14.90,-4.64,-3.50,0.01,-0.18,-2.23,928.28
16.615,0.30,-0.27,0.14,-10.56,-3.46,-2.95,0.01,-0.18,-2.23,928.28
16.639,0.30,-0.27,0.14,-10.56,-3.46,-2.95,0.01,-0.18,-2.23,928.28
16.663,0.30,-0.27,0.14,-10.56,-3.46,-2.95,0.74,0.14,-3.46,928.28
16.677,0.07,-2.04,0.07,-10.56,-3.46,-2.95,0.74,0.14,-3.46,928.28
16.678,0.07,-2.04,0.07,-6.42,12.12,-2.02,0.74,0.14,-3.46,928.28
16.706,0.07,-2.04,0.07,-6.42,12.12,-2.02,0.74,0.14,-3.46,928.29
16.727,0.07,-2.04,0.07,-6.42,12.12,-2.02,1.76,1.62,-7.89,928.29
16.741,-0.72,-4.14,-0.42,-6.42,12.12,-2.02,1.76,1.62,-7.89,928.29
16.741,-0.72,-4.14,-0.42,6.19,30.76,3.50,1.76,1.62,-7.89,928.29
16.773,-0.72,-4.14,-0.42,6.19,30.76,3.50,1.76,1.62,-7.89,928.29
16.795,-0.72,-4.14,-0.42,6.19,30.76,3.50,1.80,1.30,-7.01,928.29
16.804,-0.99,-3.02,-0.52,6.19,30.76,3.50,1.80,1.30,-7.01,928.29
16.805,-0.99,-3.02,-0.52,12.64,20.19,5.56,1.80,1.30,-7.01,928.29
16.84,-0.99,-3.02,-0.52,12.64,20.19,5.56,1.80,1.30,-7.01,928.13
16.853,-0.99,-3.02,-0.52,12.64,20.19,5.56,0.90,-2.24,-1.71,928.13
16.868,-0.57,-1.80,-0.46,12.64,20.19,5.56,0.90,-2.24,-1.71,928.13
16.868,-0.57,-1.80,-0.46,9.26,8.52,4.83,0.90,-2.24,-1.71,928.13
16.907,-0.57,-1.80,-0.46,9.26,8.52,4.83,0.90,-2.24,-1.71,928.13
16.916,-0.57,-1.80,-0.46,9.26,8.52,4.83,-0.09,-1.29,-0.21,928.13
16.931,-0.53,-1.12,-0.04,9.26,8.52,4.83,-0.09,-1.29,-0.21,928.13
16.931,-0.53,-1.12,-0.04,8.85,1.85,0.30,-0.09,-1.29,-0.21,928.13
16.973,-0.53,-1.12,-0.04,8.85,1.85,0.30,-0.09,-1.29,-0.21,928.18
16.98,-0.53,-1.12,-0.04,8.85,1.85,0.30,-0.36,-2.00,0.60,928.18
16.994,-0.20,-0.32,-0.08,8.85,1.85,0.30,-0.36,-2.00,0.60,928.18
16.995,-0.20,-0.32,-0.08,5.15,-6.12,0.07,-0.36,-2.00,0.60,928.18
17.04,-0.20,-0.32,-0.08,5.15,-6.12,0.07,-0.36,-2.00,0.60,928.18
17.043,-0.20,-0.32,-0.08,5.15,-6.12,0.07,-0.17,-1.13,0.51,928.18
17.06,-0.20,-0.32,-0.08,3.97,-7.68,-1.43,-0.17,-1.13,0.51,928.18
17.06,-0.12,-0.17,0.05,3.97,-7.68,-1.43,-0.17,-1.13,0.51,928.18
17.106,-0.12,-0.17,0.05,3.97,-7.68,-1.43,-0.17,-1.13,0.51,928.18
17.106,-0.12,-0.17,0.05,3.97,-7.68,-1.43,0.01,-0.44,0.25,928.18
17.12,-0.18,-0.13,-0.04,3.97,-7.68,-1.43,0.01,-0.44,0.25,928.18
17.12,-0.18,-0.13,-0.04,4.43,-8.15,-0.65,0.01,-0.44,0.25,928.18
17.17,-0.18,-0.13,-0.04,4.43,-8.15,-0.65,0.05,-0.13,0.36,928.18
17.172,-0.18,-0.13,-0.04,4.43,-8.15,-0.65,0.05,-0.13,0.36,928.20
17.184,-0.09,0.07,0.01,4.43,-8.15,-0.65,0.05,-0.13,0.36,928.20
17.185,-0.09,0.07,0.01,3.23,-10.21,-1.08,0.05,-0.13,0.36,928.20
17.233,-0.09,0.07,0.01,3.23,-10.21,-1.08,0.16,0.21,0.34,928.20
17.239,-0.09,0.07,0.01,3.23,-10.21,-1.08,0.16,0.21,0.34,928.20
17.248,-0.17,-0.04,-0.14,3.23,-10.21,-1.08,0.16,0.21,0.34,928.20
17.249,-0.17,-0.04,-0.14,3.83,-9.21,0.48,0.16,0.21,0.34,928.20
17.296,-0.17,-0.04,-0.14,3.83,-9.21,0.48,-0.23,0.63,0.27,928.20
17.306,-0.17,-0.04,-0.14,3.83,-9.21,0.48,-0.23,0.63,0.27,928.19
17.311,-0.75,-2.06,-0.47,3.83,-9.21,0.48,-0.23,0.63,0.27,928.19
17.311,-0.75,-2.06,-0.47,9.45,10.64,3.48,-0.23,0.63,0.27,928.19
17.36,-0.75,-2.06,-0.47,9.45,10.64,3.48,-0.91,-1.93,1.10,928.19
17.373,-0.75,-2.06,-0.47,9.45,10.64,3.48,-0.91,-1.93,1.10,928.19
17.374,-1.96,-2.80,-0.47,9.45,10.64,3.48,-0.91,-1.93,1.10,928.19
17.375,-1.96,-2.80,-0.47,19.89,17.80,2.83,-0.91,-1.93,1.10,928.19
17.423,-1.96,-2.80,-0.47,19.89,17.80,2.83,0.44,-2.84,4.83,928.19
17.437,-0.86,-2.93,-0.17,19.89,17.80,2.83,0.44,-2.84,4.83,928.19
17.442,-0.86,-2.93,-0.17,5.80,19.36,0.06,0.44,-2.84,4.83,928.19
17.443,-0.86,-2.93,-0.17,5.80,19.36,0.06,0.44,-2.84,4.83,928.12
17.486,-0.86,-2.93,-0.17,5.80,19.36,0.06,0.07,1.55,6.15,928.12
17.501,-0.74,-3.70,0.24,5.80,19.36,0.06,0.07,1.55,6.15,928.12
17.503,-0.74,-3.70,0.24,1.35,28.56,-4.13,0.07,1.55,6.15,928.12
17.506,-0.74,-3.70,0.24,1.35,28.56,-4.13,0.07,1.55,6.15,928.12
17.55,-0.74,-3.70,0.24,1.35,28.56,-4.13,0.78,1.87,5.62,928.12
17.565,0.78,-1.91,0.17,1.35,28.56,-4.13,0.78,1.87,5.62,928.12
17.565,0.78,-1.91,0.17,-15.42,13.18,-4.20,0.78,1.87,5.62,928.12
17.573,0.78,-1.91,0.17,-15.42,13.18,-4.20,0.78,1.87,5.62,928.12
17.614,0.78,-1.91,0.17,-15.42,13.18,-4.20,0.13,1.91,2.95,928.12
17.627,0.82,-0.70,0.11,-15.42,13.18,-4.20,0.13,1.91,2.95,928.12
17.629,0.82,-0.70,0.11,-16.29,2.50,-4.33,0.13,1.91,2.95,928.12
17.639,0.82,-0.70,0.11,-16.29,2.50,-4.33,0.13,1.91,2.95,928.10
17.677,0.82,-0.70,0.11,-16.29,2.50,-4.33,0.05,-0.27,1.25,928.10
17.691,0.96,-0.31,0.25,-16.29,2.50,-4.33,0.05,-0.27,1.25,928.10
17.691,0.96,-0.31,0.25,-17.99,-0.72,-5.45,0.05,-0.27,1.25,928.10
17.706,0.96,-0.31,0.25,-17.99,-0.72,-5.45,0.05,-0.27,1.25,928.10
17.74,0.96,-0.31,0.25,-17.99,-0.72,-5.45,0.13,0.30,0.41,928.10
17.754,0.81,-0.16,0.25,-17.99,-0.72,-5.45,0.13,0.30,0.41,928.10
17.755,0.81,-0.16,0.25,-16.50,-2.14,-5.62,0.13,0.30,0.41,928.10
17.773,0.81,-0.16,0.25,-16.50,-2.14,-5.62,0.13,0.30,0.41,928.14
17.803,0.81,-0.16,0.25,-16.50,-2.14,-5.62,0.42,-0.11,-0.54,928.14
17.818,0.66,-0.05,0.20,-16.50,-2.14,-5.62,0.42,-0.11,-0.54,928.14
17.819,0.66,-0.05,0.20,-14.84,-3.63,-4.99,0.42,-0.11,-0.54,928.14
17.84,0.66,-0.05,0.20,-14.84,-3.63,-4.99,0.42,-0.11,-0.54,928.14
17.866,0.66,-0.05,0.20,-14.84,-3.63,-4.99,0.72,0.60,-1.24,928.14
17.881,0.34,-0.52,0.18,-14.84,-3.63,-4.99,0.72,0.60,-1.24,928.14
17.882,0.34,-0.52,0.18,-11.19,0.08,-4.86,0.72,0.60,-1.24,928.14
17.906,0.34,-0.52,0.18,-11.19,0.08,-4.86,0.72,0.60,-1.24,928.20
17.94,0.34,-0.52,0.18,-11.19,0.08,-4.86,1.83,1.26,-3.18,928.20
17.963,0.34,-0.52,0.18,-4.24,13.79,-1.34,1.83,1.26,-3.18,928.20
17.964,-0.19,-2.14,-0.17,-4.24,13.79,-1.34,1.83,1.26,-3.18,928.20
17.972,-0.19,-2.14,-0.17,-4.24,13.79,-1.34,1.83,1.26,-3.18,928.20
17.992,-0.19,-2.14,-0.17,-4.24,13.79,-1.34,3.00,1.13,-6.60,928.20
18.007,-0.63,-3.46,-0.57,-4.24,13.79,-1.34,3.00,1.13,-6.60,928.20
18.007,-0.63,-3.46,-0.57,3.84,24.47,3.98,3.00,1.13,-6.60,928.20
18.04,-0.63,-3.46,-0.57,3.84,24.47,3.98,3.00,1.13,-6.60,928.12
18.056,-0.63,-3.46,-0.57,3.84,24.47,3.98,2.42,1.04,-5.71,928.12
18.071,-0.65,-2.81,-0.62,3.84,24.47,3.98,2.42,1.04,-5.71,928.12
18.072,-0.65,-2.81,-0.62,7.26,17.71,5.79,2.42,1.04,-5.71,928.12
18.107,-0.65,-2.81,-0.62,7.26,17.71,5.79,2.42,1.04,-5.71,928.12
18.119,-0.65,-2.81,-0.62,7.26,17.71,5.79,0.97,-0.49,-2.41,928.12
18.135,-0.65,-2.81,-0.62,9.74,13.08,5.99,0.97,-0.49,-2.41,928.12
18.136,-0.77,-2.32,-0.61,9.74,13.08,5.99,0.97,-0.49,-2.41,928.12
18.174,-0.77,-2.32,-0.61,9.74,13.08,5.99,0.97,-0.49,-2.41,928.12
18.183,-0.77,-2.32,-0.61,9.74,13.08,5.99,-0.14,-3.50,-0.93,928.12
18.197,-0.60,-0.98,-0.11,9.74,13.08,5.99,-0.14,-3.50,-0.93,928.12
18.198,-0.60,-0.98,-0.11,8.30,0.14,0.31,-0.14,-3.50,-0.93,928.12
18.24,-0.60,-0.98,-0.11,8.30,0.14,0.31,-0.14,-3.50,-0.93,928.18
18.261,-0.60,-0.98,-0.11,8.30,0.14,0.31,-0.24,-3.88,0.05,928.18
18.262,-0.16,-0.34,0.05,8.30,0.14,0.31,-0.24,-3.88,0.05,928.18
18.263,-0.16,-0.34,0.05,3.77,-6.20,-1.82,-0.24,-3.88,0.05,928.18
18.307,-0.16,-0.34,0.05,3.77,-6.20,-1.82,-0.24,-3.88,0.05,928.18
18.309,-0.16,-0.34,0.05,3.77,-6.20,-1.82,-0.13,-1.10,-0.38,928.18
18.324,-0.22,-0.07,0.21,3.77,-6.20,-1.82,-0.13,-1.10,-0.38,928.18
18.325,-0.22,-0.07,0.21,4.49,-8.75,-3.63,-0.13,-1.10,-0.38,928.18
18.372,-0.22,-0.07,0.21,4.49,-8.75,-3.63,-0.00,-0.25,-0.24,928.18
18.374,-0.22,-0.07,0.21,4.49,-8.75,-3.63,-0.00,-0.25,-0.24,928.21
18.387,-0.40,-0.13,0.02,4.49,-8.75,-3.63,-0.00,-0.25,-0.24,928.21
18.388,-0.40,-0.13,0.02,6.23,-8.16,-1.74,-0.00,-0.25,-0.24,928.21
18.437,-0.40,-0.13,0.02,6.23,-8.16,-1.74,0.11,-0.46,0.10,928.21
18.44,-0.40,-0.13,0.02,6.23,-8.16,-1.74,0.11,-0.46,0.10,928.21
18.451,-0.25,0.07,0.15,6.23,-8.16,-1.74,0.11,-0.46,0.10,928.21
18.452,-0.25,0.07,0.15,4.67,-10.13,-3.01,0.11,-0.46,0.10,928.21
18.5,-0.25,0.07,0.15,4.67,-10.13,-3.01,0.69,0.22,0.25,928.21
18.506,-0.25,0.07,0.15,4.67,-10.13,-3.01,0.69,0.22,0.25,928.26
18.518,-0.24,-0.35,-0.00,4.67,-10.13,-3.01,0.69,0.22,0.25,928.26
18.519,-0.24,-0.35,-0.00,4.34,-6.18,-0.91,0.69,0.22,0.25,928.26
18.563,-0.24,-0.35,-0.00,4.34,-6.18,-0.91,0.56,3.98,0.46,928.26
18.573,-0.24,-0.35,-0.00,4.34,-6.18,-0.91,0.56,3.98,0.46,928.26
18.578,-0.35,-2.07,-0.39,4.34,-6.18,-0.91,0.56,3.98,0.46,928.26
18.58,-0.35,-2.07,-0.39,5.27,10.61,3.60,0.56,3.98,0.46,928.26
18.627,-0.35,-2.07,-0.39,5.27,10.61,3.60,-0.55,0.59,1.28,928.26
18.64,-0.35,-2.07,-0.39,5.27,10.61,3.60,-0.55,0.59,1.28,928.26
18.64,-0.64,-1.87,-0.84,5.27,10.61,3.60,-0.55,0.59,1.28,928.26
18.641,-0.64,-1.87,-0.84,7.13,8.48,7.67,-0.55,0.59,1.28,928.26
18.69,-0.64,-1.87,-0.84,7.13,8.48,7.67,-0.25,-4.10,2.26,928.26
18.704,-0.58,-2.44,-0.86,7.13,8.48,7.67,-0.25,-4.10,2.26,928.26
18.705,-0.58,-2.44,-0.86,4.82,14.14,7.53,-0.25,-4.10,2.26,928.26
18.706,-0.58,-2.44,-0.86,4.82,14.14,7.53,-0.25,-4.10,2.26,928.18
18.753,-0.58,-2.44,-0.86,4.82,14.14,7.53,-0.88,-2.42,5.87,928.18
18.767,-0.67,-3.97,-0.30,4.82,14.14,7.53,-0.88,-2.42,5.87,928.18
18.768,-0.67,-3.97,-0.30,1.83,30.29,1.90,-0.88,-2.42,5.87,928.18
18.773,-0.67,-3.97,-0.30,1.83,30.29,1.90,-0.88,-2.42,5.87,928.18
18.816,-0.67,-3.97,-0.30,1.83,30.29,1.90,0.04,0.14,5.95,928.18
18.831,0.08,-2.51,0.16,1.83,30.29,1.90,0.04,0.14,5.95,928.18
18.832,0.08,-2.51,0.16,-8.22,18.15,-2.63,0.04,0.14,5.95,928.18
18.84,0.08,-2.51,0.16,-8.22,18.15,-2.63,0.04,0.14,5.95,928.23
18.88,0.08,-2.51,0.16,-8.22,18.15,-2.63,-0.02,1.00,4.05,928.23
18.894,0.66,-0.64,-0.07,-8.22,18.15,-2.63,-0.02,1.00,4.05,928.23
18.895,0.66,-0.64,-0.07,-15.04,1.63,-1.05,-0.02,1.00,4.05,928.23
18.906,0.66,-0.64,-0.07,-15.04,1.63,-1.05,-0.02,1.00,4.05,928.23
18.943,0.66,-0.64,-0.07,-15.04,1.63,-1.05,-0.79,0.93,2.27,928.23
18.957,0.53,-0.36,-0.03,-15.04,1.63,-1.05,-0.79,0.93,2.27,928.23
18.958,0.53,-0.36,-0.03,-14.20,0.19,-1.98,-0.79,0.93,2.27,928.23
18.974,0.53,-0.36,-0.03,-14.20,0.19,-1.98,-0.79,0.93,2.27,928.28
19.006,0.53,-0.36,-0.03,-14.20,0.19,-1.98,-0.92,-0.32,1.54,928.28
19.021,0.75,-0.28,0.13,-14.20,0.19,-1.98,-0.92,-0.32,1.54,928.28
19.021,0.75,-0.28,0.13,-16.61,0.30,-3.58,-0.92,-0.32,1.54,928.28
19.039,0.75,-0.28,0.13,-16.61,0.30,-3.58,-0.92,-0.32,1.54,928.28
19.069,0.75,-0.28,0.13,-16.61,0.30,-3.58,-0.83,-0.10,0.59,928.28
19.084,0.93,-0.18,0.14,-16.61,0.30,-3.58,-0.83,-0.10,0.59,928.28
19.085,0.93,-0.18,0.14,-18.46,-0.32,-3.75,-0.83,-0.10,0.59,928.28
19.107,0.93,-0.18,0.14,-18.46,-0.32,-3.75,-0.83,-0.10,0.59,928.31
19.133,0.93,-0.18,0.14,-18.46,-0.32,-3.75,-0.65,-0.37,-0.25,928.31
19.148,0.74,-0.40,0.16,-18.46,-0.32,-3.75,-0.65,-0.37,-0.25,928.31
19.149,0.74,-0.40,0.16,-16.62,1.65,-3.71,-0.65,-0.37,-0.25,928.31
19.173,0.74,-0.40,0.16,-16.62,1.65,-3.71,-0.65,-0.37,-0.25,928.31
19.196,0.74,-0.40,0.16,-16.62,1.65,-3.71,-0.40,-0.51,-1.70,928.31
19.21,0.31,-1.06,0.04,-16.62,1.65,-3.71,-0.40,-0.51,-1.70,928.31
19.211,0.31,-1.06,0.04,-12.04,6.96,-2.39,-0.40,-0.51,-1.70,928.31
19.24,0.31,-1.06,0.04,-12.04,6.96,-2.39,-0.40,-0.51,-1.70,928.31
19.266,0.31,-1.06,0.04,-12.04,6.96,-2.39,-0.07,-0.60,-4.92,928.31
19.274,-0.28,-2.86,-0.05,-12.04,6.96,-2.39,-0.07,-0.60,-4.92,928.31
19.275,-0.28,-2.86,-0.05,-4.56,21.65,-1.05,-0.07,-0.60,-4.92,928.31
19.307,-0.28,-2.86,-0.05,-4.56,21.65,-1.05,-0.07,-0.60,-4.92,928.28
19.323,-0.28,-2.86,-0.05,-4.56,21.65,-1.05,0.76,-2.47,-9.67,928.28
19.341,-0.80,-4.38,0.19,-4.56,21.65,-1.05,0.76,-2.47,-9.67,928.28
19.342,-0.80,-4.38,0.19,5.49,33.32,-2.13,0.76,-2.47,-9.67,928.28
19.374,-0.80,-4.38,0.19,5.49,33.32,-2.13,0.76,-2.47,-9.67,928.28
19.386,-0.80,-4.38,0.19,5.49,33.32,-2.13,0.46,-4.01,-8.83,928.28
19.4,-0.80,-3.97,0.10,5.49,33.32,-2.13,0.46,-4.01,-8.83,928.28
19.401,-0.80,-3.97,0.10,10.52,29.40,-1.02,0.46,-4.01,-8.83,928.28
19.44,-0.80,-3.97,0.10,10.52,29.40,-1.02,0.46,-4.01,-8.83,928.24
19.449,-0.80,-3.97,0.10,10.52,29.40,-1.02,-0.54,-1.22,-4.18,928.24
19.464,-1.11,-2.24,0.09,10.52,29.40,-1.02,-0.54,-1.22,-4.18,928.24
19.465,-1.11,-2.24,0.09,15.47,13.29,-1.66,-0.54,-1.22,-4.18,928.24
19.509,-1.11,-2.24,0.09,15.47,13.29,-1.66,-0.54,-1.22,-4.18,928.24
19.513,-1.11,-2.24,0.09,15.47,13.29,-1.66,0.41,-5.94,-0.64,928.24
19.532,-0.58,-0.84,0.05,15.47,13.29,-1.66,0.41,-5.94,-0.64,928.24
19.534,-0.58,-0.84,0.05,9.76,-0.38,-2.76,0.41,-5.94,-0.64,928.24
19.573,-0.58,-0.84,0.05,9.76,-0.38,-2.76,0.41,-5.94,-0.64,928.30
19.576,-0.58,-0.84,0.05,9.76,-0.38,-2.76,0.59,-3.51,0.31,928.30
19.59,0.08,-0.06,0.42,9.76,-0.38,-2.76,0.59,-3.51,0.31,928.30
19.591,0.08,-0.06,0.42,2.79,-8.17,-6.70,0.59,-3.51,0.31,928.30
19.639,0.08,-0.06,0.42,2.79,-8.17,-6.70,0.65,0.46,-0.45,928.30
19.64,0.08,-0.06,0.42,2.79,-8.17,-6.70,0.65,0.46,-0.45,928.30
19.654,-0.38,-0.09,0.21,2.79,-8.17,-6.70,0.65,0.46,-0.45,928.30
19.654,-0.38,-0.09,0.21,7.58,-7.96,-4.14,0.65,0.46,-0.45,928.30
19.703,-0.38,-0.09,0.21,7.58,-7.96,-4.14,1.15,-0.68,-0.76,928.30
19.706,-0.38,-0.09,0.21,7.58,-7.96,-4.14,1.15,-0.68,-0.76,928.30
19.717,-0.59,-0.06,-0.01,7.58,-7.96,-4.14,1.15,-0.68,-0.76,928.30
19.718,-0.59,-0.06,-0.01,9.98,-8.17,-1.60,1.15,-0.68,-0.76,928.30
19.766,-0.59,-0.06,-0.01,9.98,-8.17,-1.60,1.22,-1.93,-0.53,928.30
19.773,-0.59,-0.06,-0.01,9.98,-8.17,-1.60,1.22,-1.93,-0.53,928.27
19.78,-0.60,0.10,-0.10,9.98,-8.17,-1.60,1.22,-1.93,-0.53,928.27
19.781,-0.60,0.10,-0.10,10.06,-9.74,-0.52,1.22,-1.93,-0.53,928.27
19.829,-0.60,0.10,-0.10,10.06,-9.74,-0.52,1.41,-2.44,0.37,928.27
19.84,-0.60,0.10,-0.10,10.06,-9.74,-0.52,1.41,-2.44,0.37,928.27
19.843,-0.67,-1.10,-0.39,10.06,-9.74,-0.52,1.41,-2.44,0.37,928.27
19.844,-0.67,-1.10,-0.39,10.16,1.68,2.50,1.41,-2.44,0.37,928.27
19.893,-0.67,-1.10,-0.39,10.16,1.68,2.50,1.21,-0.91,1.70,928.27
19.907,-0.67,-1.10,-0.39,10.16,1.68,2.50,1.21,-0.91,1.70,928.18
19.908,-0.99,-2.60,-0.88,10.16,1.68,2.50,1.21,-0.91,1.70,928.18
19.909,-0.99,-2.60,-0.88,12.02,15.90,7.84,1.21,-0.91,1.70,928.18
19.956,-0.99,-2.60,-0.88,12.02,15.90,7.84,1.47,-1.22,3.85,928.18
19.971,-0.70,-2.51,-0.97,12.02,15.90,7.84,1.47,-1.22,3.85,928.18
19.972,-0.70,-2.51,-0.97,6.56,14.71,9.49,1.47,-1.22,3.85,928.18
19.973,-0.70,-2.51,-0.97,6.56,14.71,9.49,1.47,-1.22,3.85,928.18
20.019,-0.70,-2.51,-0.97,6.56,14.71,9.49,0.91,0.53,5.44,928.18
20.033,-0.74,-2.87,-0.73,6.56,14.71,9.49,0.91,0.53,5.44,928.18
20.034,-0.74,-2.87,-0.73,3.60,18.98,7.45,0.91,0.53,5.44,928.18
20.04,-0.74,-2.87,-0.73,3.60,18.98,7.45,0.91,0.53,5.44,928.15
20.082,-0.74,-2.87,-0.73,3.60,18.98,7.45,-0.14,1.12,6.99,928.15
20.097,-0.48,-3.31,-0.44,3.60,18.98,7.45,-0.14,1.12,6.99,928.15
20.098,-0.48,-3.31,-0.44,-2.56,25.72,4.09,-0.14,1.12,6.99,928.15
20.107,-0.48,-3.31,-0.44,-2.56,25.72,4.09,-0.14,1.12,6.99,928.15
20.146,-0.48,-3.31,-0.44,-2.56,25.72,4.09,-0.92,0.36,5.17,928.15
20.161,0.16,-1.94,-0.15,-2.56,25.72,4.09,-0.92,0.36,5.17,928.15
20.162,0.16,-1.94,-0.15,-10.45,14.70,0.83,-0.92,0.36,5.17,928.15
20.173,0.16,-1.94,-0.15,-10.45,14.70,0.83,-0.92,0.36,5.17,928.15
20.209,0.16,-1.94,-0.15,-10.45,14.70,0.83,-0.52,-0.25,2.22,928.15
20.224,0.62,-0.88,0.03,-10.45,14.70,0.83,-0.52,-0.25,2.22,928.15
20.225,0.62,-0.88,0.03,-15.40,5.34,-0.87,-0.52,-0.25,2.22,928.15
20.24,0.62,-0.88,0.03,-15.40,5.34,-0.87,-0.52,-0.25,2.22,928.18
20.275,0.62,-0.88,0.03,-15.40,5.34,-0.87,-0.17,0.97,1.05,928.18
20.298,0.76,-0.38,-0.02,-15.40,5.34,-0.87,-0.17,0.97,1.05,928.18
20.3,0.76,-0.38,-0.02,-16.84,1.03,-1.01,-0.17,0.97,1.05,928.18
20.307,0.76,-0.38,-0.02,-16.84,1.03,-1.01,-0.17,0.97,1.05,928.18
20.335,0.76,-0.38,-0.02,-16.84,1.03,-1.01,-0.86,-0.40,0.01,928.18
20.35,0.74,-0.23,0.11,-16.84,1.03,-1.01,-0.86,-0.40,0.01,928.18
20.351,0.74,-0.23,0.11,-16.61,-0.49,-2.07,-0.86,-0.40,0.01,928.18
20.374,0.74,-0.23,0.11,-16.61,-0.49,-2.07,-0.86,-0.40,0.01,928.21
20.399,0.74,-0.23,0.11,-16.61,-0.49,-2.07,-1.11,-0.93,-0.85,928.21
20.413,0.73,-0.04,0.27,-16.61,-0.49,-2.07,-1.11,-0.93,-0.85,928.21
20.413,0.73,-0.04,0.27,-16.46,-2.89,-3.32,-1.11,-0.93,-0.85,928.21
20.441,0.73,-0.04,0.27,-16.46,-2.89,-3.32,-1.11,-0.93,-0.85,928.21
20.462,0.73,-0.04,0.27,-16.46,-2.89,-3.32,-0.86,-0.36,-1.69,928.21
20.477,0.46,-0.36,0.28,-16.46,-2.89,-3.32,-0.86,-0.36,-1.69,928.21
20.478,0.46,-0.36,0.28,-13.36,-0.84,-3.39,-0.86,-0.36,-1.69,928.21
20.507,0.46,-0.36,0.28,-13.36,-0.84,-3.39,-0.86,-0.36,-1.69,928.23
20.526,0.46,-0.36,0.28,-13.36,-0.84,-3.39,-0.01,-0.95,-3.57,928.23
20.541,-0.08,-1.69,0.18,-13.36,-0.84,-3.39,-0.01,-0.95,-3.57,928.23
20.541,-0.08,-1.69,0.18,-6.64,10.11,-1.83,-0.01,-0.95,-3.57,928.23
20.574,-0.08,-1.69,0.18,-6.64,10.11,-1.83,-0.01,-0.95,-3.57,928.23
20.589,-0.08,-1.69,0.18,-6.64,10.11,-1.83,0.73,-0.58,-7.47,928.23
20.611,-0.44,-4.42,-0.03,-6.64,10.11,-1.83,0.73,-0.58,-7.47,928.23
20.612,-0.44,-4.42,-0.03,1.02,33.99,0.86,0.73,-0.58,-7.47,928.23
20.641,-0.44,-4.42,-0.03,1.02,33.99,0.86,0.73,-0.58,-7.47,928.11
20.652,-0.44,-4.42,-0.03,1.02,33.99,0.86,1.26,-1.41,-9.11,928.11
20.667,-0.93,-3.72,-0.29,1.02,33.99,0.86,1.26,-1.41,-9.11,928.11
20.668,-0.93,-3.72,-0.29,11.11,26.89,4.07,1.26,-1.41,-9.11,928.11
20.713,-0.93,-3.72,-0.29,11.11,26.89,4.07,1.26,-1.41,-9.11,928.11
20.746,-0.93,-3.72,-0.29,11.11,26.89,4.07,0.03,-2.75,-3.50,928.11
20.747,-0.87,-1.80,-0.11,11.11,26.89,4.07,0.03,-2.75,-3.50,928.11
20.748,-0.87,-1.80,-0.11,12.23,8.54,1.70,0.03,-2.75,-3.50,928.11
20.774,-0.87,-1.80,-0.11,12.23,8.54,1.70,0.03,-2.75,-3.50,928.11
20.779,-0.87,-1.80,-0.11,12.23,8.54,1.70,-0.15,-2.68,-0.60,928.11
20.793,-0.52,-1.29,0.06,12.23,8.54,1.70,-0.15,-2.68,-0.60,928.11
20.794,-0.52,-1.29,0.06,9.03,3.59,-0.75,-0.15,-2.68,-0.60,928.11
20.841,-0.52,-1.29,0.06,9.03,3.59,-0.75,-0.15,-2.68,-0.60,928.13
20.843,-0.52,-1.29,0.06,9.03,3.59,-0.75,-0.15,-3.29,0.34,928.13
20.857,-0.25,-0.59,0.08,9.03,3.59,-0.75,-0.15,-3.29,0.34,928.13
20.857,-0.25,-0.59,0.08,5.97,-3.37,-1.76,-0.15,-3.29,0.34,928.13
20.906,-0.25,-0.59,0.08,5.97,-3.37,-1.76,0.04,-1.98,0.67,928.13
20.907,-0.25,-0.59,0.08,5.97,-3.37,-1.76,0.04,-1.98,0.67,928.13
20.92,-0.08,-0.31,0.22,5.97,-3.37,-1.76,0.04,-1.98,0.67,928.13
20.921,-0.08,-0.31,0.22,3.78,-6.27,-3.47,0.04,-1.98,0.67,928.13
20.969,-0.08,-0.31,0.22,3.78,-6.27,-3.47,0.40,-0.53,0.29,928.13
20.973,-0.08,-0.31,0.22,3.78,-6.27,-3.47,0.40,-0.53,0.29,928.16
20.992,-0.19,-0.06,0.08,3.78,-6.27,-3.47,0.40,-0.53,0.29,928.16
20.993,-0.19,-0.06,0.08,4.72,-8.78,-1.83,0.40,-0.53,0.29,928.16
21.032,-0.19,-0.06,0.08,4.72,-8.78,-1.83,0.82,-1.13,-0.14,928.16
21.04,-0.19,-0.06,0.08,4.72,-8.78,-1.83,0.82,-1.13,-0.14,928.16
21.046,-0.25,0.14,0.01,4.72,-8.78,-1.83,0.82,-1.13,-0.14,928.16
21.046,-0.25,0.14,0.01,5.21,-10.80,-0.92,0.82,-1.13,-0.14,928.16
21.096,-0.25,0.14,0.01,5.21,-10.80,-0.92,1.02,-1.03,-0.22,928.16
21.114,-0.25,0.14,0.01,5.21,-10.80,-0.92,1.02,-1.03,-0.22,928.12
21.115,-0.45,0.08,-0.38,5.21,-10.80,-0.92,1.02,-1.03,-0.22,928.12
21.116,-0.45,0.08,-0.38,7.21,-10.20,3.31,1.02,-1.03,-0.22,928.12
21.159,-0.45,0.08,-0.38,7.21,-10.20,3.31,0.52,-0.15,0.27,928.12
21.174,-1.01,-1.81,-0.84,7.21,-10.20,3.31,0.52,-0.15,0.27,928.12
21.174,-1.01,-1.81,-0.84,12.49,8.24,8.02,0.52,-0.15,0.27,928.12
21.175,-1.01,-1.81,-0.84,12.49,8.24,8.02,0.52,-0.15,0.27,928.12
21.228,-1.01,-1.81,-0.84,12.49,8.24,8.02,-0.08,-0.81,1.97,928.12
21.26,-1.12,-2.72,-0.74,12.49,8.24,8.02,-0.08,-0.81,1.97,928.12
21.262,-1.12,-2.72,-0.74,12.05,16.89,6.91,-0.08,-0.81,1.97,928.12
21.263,-1.12,-2.72,-0.74,12.05,16.89,6.91,-0.08,-0.81,1.97,928.12
21.285,-1.12,-2.72,-0.74,12.05,16.89,6.91,0.44,-0.47,4.46,928.12
21.3,-0.62,-3.15,-0.34,12.05,16.89,6.91,0.44,-0.47,4.46,928.12
21.3,-0.62,-3.15,-0.34,4.19,21.21,3.20,0.44,-0.47,4.46,928.12
21.307,-0.62,-3.15,-0.34,4.19,21.21,3.20,0.44,-0.47,4.46,928.08
21.349,-0.62,-3.15,-0.34,4.19,21.21,3.20,0.36,0.46,6.58,928.08
21.369,-0.40,-3.05,-0.36,4.19,21.21,3.20,0.36,0.46,6.58,928.08
21.37,-0.40,-3.05,-0.36,-1.75,21.86,3.50,0.36,0.46,6.58,928.08
21.373,-0.40,-3.05,-0.36,-1.75,21.86,3.50,0.36,0.46,6.58,928.08
21.412,-0.40,-3.05,-0.36,-1.75,21.86,3.50,0.05,1.20,5.84,928.08
21.427,0.22,-2.33,-0.08,-1.75,21.86,3.50,0.05,1.20,5.84,928.08
21.428,0.22,-2.33,-0.08,-10.15,17.05,0.15,0.05,1.20,5.84,928.08
21.443,0.22,-2.33,-0.08,-10.15,17.05,0.15,0.05,1.20,5.84,928.11
21.476,0.22,-2.33,-0.08,-10.15,17.05,0.15,-0.41,1.26,2.52,928.11
21.49,0.65,-0.85,0.04,-10.15,17.05,0.15,-0.41,1.26,2.52,928.11
21.49,0.65,-0.85,0.04,-14.94,3.72,-1.81,-0.41,1.26,2.52,928.11
21.507,0.65,-0.85,0.04,-14.94,3.72,-1.81,-0.41,1.26,2.52,928.11
21.539,0.65,-0.85,0.04,-14.94,3.72,-1.81,-0.10,1.48,0.77,928.11
21.553,0.80,-0.43,0.16,-14.94,3.72,-1.81,-0.10,1.48,0.77,928.11
21.555,0.80,-0.43,0.16,-16.43,-0.19,-3.81,-0.10,1.48,0.77,928.11
21.574,0.80,-0.43,0.16,-16.43,-0.19,-3.81,-0.10,1.48,0.77,928.07
21.607,0.80,-0.43,0.16,-16.43,-0.19,-3.81,0.13,0.69,-0.06,928.07
21.616,0.86,-0.10,0.28,-16.43,-0.19,-3.81,0.13,0.69,-0.06,928.07
21.617,0.86,-0.10,0.28,-16.88,-3.48,-5.18,0.13,0.69,-0.06,928.07
21.641,0.86,-0.10,0.28,-16.88,-3.48,-5.18,0.13,0.69,-0.06,928.07
21.666,0.86,-0.10,0.28,-16.88,-3.48,-5.18,0.05,-0.07,-1.33,928.07
21.68,0.50,-0.09,0.20,-16.88,-3.48,-5.18,0.05,-0.07,-1.33,928.07
21.681,0.50,-0.09,0.20,-12.85,-4.36,-4.35,0.05,-0.07,-1.33,928.07
21.714,0.50,-0.09,0.20,-12.85,-4.36,-4.35,0.05,-0.07,-1.33,928.07
21.738,0.50,-0.09,0.20,-12.85,-4.36,-4.35,0.01,-0.36,-1.80,928.07
21.743,0.42,-0.27,0.18,-12.85,-4.36,-4.35,0.01,-0.36,-1.80,928.07
21.743,0.42,-0.27,0.18,-11.40,-3.59,-3.97,0.01,-0.36,-1.80,928.07
21.774,0.42,-0.27,0.18,-11.40,-3.59,-3.97,0.01,-0.36,-1.80,928.08
21.792,0.42,-0.27,0.18,-11.40,-3.59,-3.97,0.91,0.23,-2.75,928.08
21.807,-0.05,-1.60,0.09,-11.40,-3.59,-3.97,0.91,0.23,-2.75,928.08
21.808,-0.05,-1.60,0.09,-5.37,7.97,-2.64,0.91,0.23,-2.75,928.08
21.845,-0.05,-1.60,0.09,-5.37,7.97,-2.64,0.91,0.23,-2.75,928.08
21.871,-0.05,-1.60,0.09,-5.37,7.97,-2.64,1.97,-0.87,-5.84,928.08
21.872,-0.39,-3.33,-0.26,-5.37,7.97,-2.64,1.97,-0.87,-5.84,928.08
21.873,-0.39,-3.33,-0.26,1.34,23.08,2.09,1.97,-0.87,-5.84,928.08
21.908,-0.39,-3.33,-0.26,1.34,23.08,2.09,1.97,-0.87,-5.84,928.03
21.921,-0.39,-3.33,-0.26,1.34,23.08,2.09,1.23,-0.20,-6.45,928.03
21.934,-0.81,-3.24,-0.39,1.34,23.08,2.09,1.23,-0.20,-6.45,928.03
21.934,-0.81,-3.24,-0.39,9.15,21.99,4.00,1.23,-0.20,-6.45,928.03
21.981,-0.81,-3.24,-0.39,9.15,21.99,4.00,1.23,-0.20,-6.45,928.03
21.983,-0.81,-3.24,-0.39,9.15,21.99,4.00,0.99,-2.15,-3.31,928.03
22.014,-0.47,-1.91,-0.37,9.15,21.99,4.00,0.99,-2.15,-3.31,928.03
22.014,-0.47,-1.91,-0.37,7.60,9.32,4.06,0.99,-2.15,-3.31,928.03
22.041,-0.47,-1.91,-0.37,7.60,9.32,4.06,0.99,-2.15,-3.31,928.11
22.045,-0.47,-1.91,-0.37,7.60,9.32,4.06,0.13,-1.33,-1.54,928.11
22.06,-0.50,-1.33,-0.13,7.60,9.32,4.06,0.13,-1.33,-1.54,928.11
22.061,-0.50,-1.33,-0.13,8.66,3.98,1.38,0.13,-1.33,-1.54,928.11
22.118,-0.50,-1.33,-0.13,8.66,3.98,1.38,0.13,-1.33,-1.54,928.11
22.12,-0.50,-1.33,-0.13,8.66,3.98,1.38,-0.68,-1.77,-0.20,928.11
22.127,-0.35,-0.61,0.01,8.66,3.98,1.38,-0.68,-1.77,-0.20,928.11
22.127,-0.35,-0.61,0.01,7.05,-3.08,-0.77,-0.68,-1.77,-0.20,928.11
22.172,-0.35,-0.61,0.01,7.05,-3.08,-0.77,-0.34,-1.53,0.72,928.11
22.174,-0.35,-0.61,0.01,7.05,-3.08,-0.77,-0.34,-1.53,0.72,928.23
22.188,-0.19,-0.41,0.09,7.05,-3.08,-0.77,-0.34,-1.53,0.72,928.23
22.189,-0.19,-0.41,0.09,5.00,-5.24,-1.99,-0.34,-1.53,0.72,928.23
22.236,-0.19,-0.41,0.09,5.00,-5.24,-1.99,0.07,-0.53,0.52,928.23
22.241,-0.19,-0.41,0.09,5.00,-5.24,-1.99,0.07,-0.53,0.52,928.23
22.25,-0.22,-0.21,0.07,5.00,-5.24,-1.99,0.07,-0.53,0.52,928.23
22.251,-0.22,-0.21,0.07,4.95,-7.27,-1.81,0.07,-0.53,0.52,928.23
22.299,-0.22,-0.21,0.07,4.95,-7.27,-1.81,0.15,0.03,0.34,928.23
22.307,-0.22,-0.21,0.07,4.95,-7.27,-1.81,0.15,0.03,0.34,928.23
22.313,-0.21,0.07,0.03,4.95,-7.27,-1.81,0.15,0.03,0.34,928.23
22.313,-0.21,0.07,0.03,4.59,-10.16,-1.36,0.15,0.03,0.34,928.23
22.363,-0.21,0.07,0.03,4.59,-10.16,-1.36,0.22,0.64,0.57,928.23
22.374,-0.21,0.07,0.03,4.59,-10.16,-1.36,0.22,0.64,0.57,928.24
22.377,-0.33,0.13,-0.26,4.59,-10.16,-1.36,0.22,0.64,0.57,928.24
22.377,-0.33,0.13,-0.26,5.45,-10.84,1.78,0.22,0.64,0.57,928.24
22.426,-0.33,0.13,-0.26,5.45,-10.84,1.78,0.09,1.72,0.79,928.24
22.441,-0.60,-1.50,-0.44,5.45,-10.84,1.78,0.09,1.72,0.79,928.24
22.442,-0.60,-1.50,-0.44,7.68,4.98,3.68,0.09,1.72,0.79,928.24
22.443,-0.60,-1.50,-0.44,7.68,4.98,3.68,0.09,1.72,0.79,928.24
22.489,-0.60,-1.50,-0.44,7.68,4.98,3.68,-1.19,1.28,1.45,928.24
22.503,-1.52,-2.96,-0.67,7.68,4.98,3.68,-1.19,1.28,1.45,928.24
22.503,-1.52,-2.96,-0.67,15.46,19.27,5.33,-1.19,1.28,1.45,928.24
22.507,-1.52,-2.96,-0.67,15.46,19.27,5.33,-1.19,1.28,1.45,928.12
22.552,-1.52,-2.96,-0.67,15.46,19.27,5.33,0.19,-3.37,4.74,928.12
22.566,-0.56,-2.48,-0.18,15.46,19.27,5.33,0.19,-3.37,4.74,928.12
22.567,-0.56,-2.48,-0.18,2.74,14.83,0.75,0.19,-3.37,4.74,928.12
22.574,-0.56,-2.48,-0.18,2.74,14.83,0.75,0.19,-3.37,4.74,928.12
22.615,-0.56,-2.48,-0.18,2.74,14.83,0.75,0.21,1.82,6.04,928.12
22.63,-1.01,-3.14,0.16,2.74,14.83,0.75,0.21,1.82,6.04,928.12
22.632,-1.01,-3.14,0.16,3.95,23.08,-3.13,0.21,1.82,6.04,928.12
22.641,-1.01,-3.14,0.16,3.95,23.08,-3.13,0.21,1.82,6.04,928.18
22.679,-1.01,-3.14,0.16,3.95,23.08,-3.13,-0.40,1.37,6.77,928.18
22.694,-0.72,-2.88,0.26,3.95,23.08,-3.13,-0.40,1.37,6.77,928.18
22.695,-0.72,-2.88,0.26,-1.37,23.57,-4.61,-0.40,1.37,6.77,928.18
22.707,-0.72,-2.88,0.26,-1.37,23.57,-4.61,-0.40,1.37,6.77,928.18
22.742,-0.72,-2.88,0.26,-1.37,23.57,-4.61,0.51,0.01,4.77,928.18
22.757,0.74,-0.88,0.12,-1.37,23.57,-4.61,0.51,0.01,4.77,928.18
22.758,0.74,-0.88,0.12,-16.62,6.28,-3.38,0.51,0.01,4.77,928.18
22.774,0.74,-0.88,0.12,-16.62,6.28,-3.38,0.51,0.01,4.77,928.18
22.805,0.74,-0.88,0.12,-16.62,6.28,-3.38,0.12,1.82,2.45,928.18
22.819,0.96,-0.47,0.08,-16.62,6.28,-3.38,0.12,1.82,2.45,928.18
22.82,0.96,-0.47,0.08,-18.70,3.46,-3.84,0.12,1.82,2.45,928.18
22.841,0.96,-0.47,0.08,-18.70,3.46,-3.84,0.12,1.82,2.45,928.15
22.869,0.96,-0.47,0.08,-18.70,3.46,-3.84,-0.28,0.29,0.65,928.15
22.883,1.11,-0.22,0.17,-18.70,3.46,-3.84,-0.28,0.29,0.65,928.15
22.884,1.11,-0.22,0.17,-20.16,1.39,-4.99,-0.28,0.29,0.65,928.15
22.914,1.11,-0.22,0.17,-20.16,1.39,-4.99,-0.28,0.29,0.65,928.15
22.932,1.11,-0.22,0.17,-20.16,1.39,-4.99,-0.47,-0.71,-1.00,928.15
22.946,0.73,-0.33,0.21,-20.16,1.39,-4.99,-0.47,-0.71,-1.00,928.15
22.947,0.73,-0.33,0.21,-16.49,1.82,-4.81,-0.47,-0.71,-1.00,928.15
22.974,0.73,-0.33,0.21,-16.49,1.82,-4.81,-0.47,-0.71,-1.00,928.19
22.995,0.73,-0.33,0.21,-16.49,1.82,-4.81,-0.06,-0.55,-1.91,928.19
23.018,0.43,-0.44,0.14,-16.49,1.82,-4.81,-0.06,-0.55,-1.91,928.19
23.02,0.43,-0.44,0.14,-13.33,1.67,-3.87,-0.06,-0.55,-1.91,928.19
23.042,0.43,-0.44,0.14,-13.33,1.67,-3.87,-0.06,-0.55,-1.91,928.19
23.058,0.43,-0.44,0.14,-13.33,1.67,-3.87,0.83,-0.00,-3.44,928.19
23.073,-0.50,-1.23,-0.08,-13.33,1.67,-3.87,0.83,-0.00,-3.44,928.19
23.073,-0.50,-1.23,-0.08,-3.27,7.03,-1.54,0.83,-0.00,-3.44,928.19
23.107,-0.50,-1.23,-0.08,-3.27,7.03,-1.54,0.83,-0.00,-3.44,928.20
23.122,-0.50,-1.23,-0.08,-3.27,7.03,-1.54,1.57,-0.00,-6.29,928.20
23.136,-0.78,-2.61,-0.25,-3.27,7.03,-1.54,1.57,-0.00,-6.29,928.20
23.137,-0.78,-2.61,-0.25,2.24,17.44,0.85,1.57,-0.00,-6.29,928.20
23.174,-0.78,-2.61,-0.25,2.24,17.44,0.85,1.57,-0.00,-6.29,928.20
23.185,-0.78,-2.61,-0.25,2.24,17.44,0.85,1.27,-0.62,-7.92,928.20
23.2,-0.88,-3.45,-0.19,2.24,17.44,0.85,1.27,-0.62,-7.92,928.20
23.201,-0.88,-3.45,-0.19,7.75,23.98,1.01,1.27,-0.62,-7.92,928.20
23.247,-0.88,-3.45,-0.19,7.75,23.98,1.01,1.27,-0.62,-7.92,928.19
23.249,-0.88,-3.45,-0.19,7.75,23.98,1.01,0.55,-1.27,-5.84,928.19
23.273,-0.71,-2.81,-0.32,7.75,23.98,1.01,0.55,-1.27,-5.84,928.19
23.274,-0.71,-2.81,-0.32,9.08,17.90,2.50,0.55,-1.27,-5.84,928.19
23.307,-0.71,-2.81,-0.32,9.08,17.90,2.50,0.55,-1.27,-5.84,928.19
23.311,-0.71,-2.81,-0.32,9.08,17.90,2.50,0.21,-4.06,-1.54,928.19
23.326,-0.47,-1.55,0.00,9.08,17.90,2.50,0.21,-4.06,-1.54,928.19
23.327,-0.47,-1.55,0.00,7.19,5.73,-1.17,0.21,-4.06,-1.54,928.19
23.374,-0.47,-1.55,0.00,7.19,5.73,-1.17,0.21,-4.06,-1.54,928.19
23.375,-0.47,-1.55,0.00,7.19,5.73,-1.17,0.48,-1.74,-0.60,928.19
23.39,-0.33,-0.34,-0.01,7.19,5.73,-1.17,0.48,-1.74,-0.60,928.19
23.39,-0.33,-0.34,-0.01,6.05,-6.08,-0.97,0.48,-1.74,-0.60,928.19
23.439,-0.33,-0.34,-0.01,6.05,-6.08,-0.97,0.41,-0.98,-0.51,928.19
23.441,-0.33,-0.34,-0.01,6.05,-6.08,-0.97,0.41,-0.98,-0.51,928.22
23.453,-0.53,-0.25,-0.04,6.05,-6.08,-0.97,0.41,-0.98,-0.51,928.22
23.454,-0.53,-0.25,-0.04,8.11,-6.89,-0.71,0.41,-0.98,-0.51,928.22
23.503,-0.53,-0.25,-0.04,8.11,-6.89,-0.71,0.46,-1.74,-0.11,928.22
23.52,-0.53,-0.25,-0.04,8.11,-6.89,-0.71,0.46,-1.74,-0.11,928.22
23.521,-0.39,-0.16,-0.03,8.11,-6.89,-0.71,0.46,-1.74,-0.11,928.22
23.522,-0.39,-0.16,-0.03,6.58,-7.85,-0.83,0.46,-1.74,-0.11,928.22
23.565,-0.39,-0.16,-0.03,6.58,-7.85,-0.83,0.49,-0.52,0.23,928.22
23.575,-0.39,-0.16,-0.03,6.58,-7.85,-0.83,0.49,-0.52,0.23,928.22
23.581,-0.29,0.04,0.03,6.58,-7.85,-0.83,0.49,-0.52,0.23,928.22
23.581,-0.29,0.04,0.03,5.43,-9.85,-1.15,0.49,-0.52,0.23,928.22
23.629,-0.29,0.04,0.03,5.43,-9.85,-1.15,0.61,-0.00,0.41,928.22
23.642,-0.29,0.04,0.03,5.43,-9.85,-1.15,0.61,-0.00,0.41,928.22
23.644,-0.31,-0.15,-0.11,5.43,-9.85,-1.15,0.61,-0.00,0.41,928.22
23.644,-0.31,-0.15,-0.11,5.34,-8.11,0.56,0.61,-0.00,0.41,928.22
23.692,-0.31,-0.15,-0.11,5.34,-8.11,0.56,0.51,0.97,0.33,928.22
23.708,-0.61,-1.78,-0.39,5.34,-8.11,0.56,0.51,0.97,0.33,928.22
23.709,-0.61,-1.78,-0.39,8.01,7.82,3.68,0.51,0.97,0.33,928.22
23.711,-0.61,-1.78,-0.39,8.01,7.82,3.68,0.51,0.97,0.33,928.17
23.756,-0.61,-1.78,-0.39,8.01,7.82,3.68,-0.17,0.14,1.41,928.17
23.77,-0.73,-2.09,-0.63,8.01,7.82,3.68,-0.17,0.14,1.41,928.17
23.771,-0.73,-2.09,-0.63,8.15,10.69,5.95,-0.17,0.14,1.41,928.17
23.779,-0.73,-2.09,-0.63,8.15,10.69,5.95,-0.17,0.14,1.41,928.17
23.819,-0.73,-2.09,-0.63,8.15,10.69,5.95,0.42,-2.96,3.26,928.17
23.833,-0.31,-2.67,-0.74,8.15,10.69,5.95,0.42,-2.96,3.26,928.17
23.834,-0.31,-2.67,-0.74,1.79,16.42,7.22,0.42,-2.96,3.26,928.17
23.842,-0.31,-2.67,-0.74,1.79,16.42,7.22,0.42,-2.96,3.26,928.17
23.884,-0.31,-2.67,-0.74,1.79,16.42,7.22,-0.00,-1.04,5.59,928.17
23.908,-0.31,-2.67,-0.74,0.00,26.77,4.40,-0.00,-1.04,5.59,928.17
23.909,-0.49,-3.62,-0.43,0.00,26.77,4.40,-0.00,-1.04,5.59,928.17
23.91,-0.49,-3.62,-0.43,0.00,26.77,4.40,-0.00,-1.04,5.59,928.14
23.946,-0.49,-3.62,-0.43,0.00,26.77,4.40,0.41,-0.40,5.82,928.14
23.961,0.22,-2.36,-0.27,0.00,26.77,4.40,0.41,-0.40,5.82,928.14
23.962,0.22,-2.36,-0.27,-9.51,16.53,3.03,0.41,-0.40,5.82,928.14
23.976,0.22,-2.36,-0.27,-9.51,16.53,3.03,0.41,-0.40,5.82,928.14
24.016,0.22,-2.36,-0.27,-9.51,16.53,3.03,-0.27,0.40,3.52,928.14
24.023,0.33,-0.85,-0.22,-9.51,16.53,3.03,-0.27,0.40,3.52,928.14
24.04,0.33,-0.85,-0.22,-11.77,3.30,2.24,-0.27,0.40,3.52,928.14
24.072,0.33,-0.85,-0.22,-11.77,3.30,2.24,-0.27,0.40,3.52,928.19
24.073,0.33,-0.85,-0.22,-11.77,3.30,2.24,-0.66,-0.43,2.09,928.19
24.087,0.59,-0.41,-0.16,-11.77,3.30,2.24,-0.66,-0.43,2.09,928.19
24.088,0.59,-0.41,-0.16,-14.86,0.03,1.82,-0.66,-0.43,2.09,928.19
24.109,0.59,-0.41,-0.16,-14.86,0.03,1.82,-0.66,-0.43,2.09,928.19
24.136,0.59,-0.41,-0.16,-14.86,0.03,1.82,-0.66,-0.02,1.41,928.19
24.152,0.77,-0.21,-0.01,-14.86,0.03,1.82,-0.66,-0.02,1.41,928.19
24.152,0.77,-0.21,-0.01,-16.85,-1.12,0.05,-0.66,-0.02,1.41,928.19
24.175,0.77,-0.21,-0.01,-16.85,-1.12,0.05,-0.66,-0.02,1.41,928.22
24.203,0.77,-0.21,-0.01,-16.85,-1.12,0.05,-0.96,0.72,0.58,928.22
24.216,0.71,-0.17,-0.03,-16.85,-1.12,0.05,-0.96,0.72,0.58,928.22
24.216,0.71,-0.17,-0.03,-16.33,-1.27,-0.33,-0.96,0.72,0.58,928.22
24.247,0.71,-0.17,-0.03,-16.33,-1.27,-0.33,-0.96,0.72,0.58,928.22
24.269,0.71,-0.17,-0.03,-16.33,-1.27,-0.33,-1.16,0.45,-0.18,928.22
24.277,0.65,-0.26,0.06,-16.33,-1.27,-0.33,-1.16,0.45,-0.18,928.22
24.277,0.65,-0.26,0.06,-15.65,-0.60,-1.67,-1.16,0.45,-0.18,928.22
24.308,0.65,-0.26,0.06,-15.65,-0.60,-1.67,-1.16,0.45,-0.18,928.22
24.326,0.65,-0.26,0.06,-15.65,-0.60,-1.67,-1.00,-0.67,-1.77,928.22
24.34,0.12,-0.93,-0.00,-15.65,-0.60,-1.67,-1.00,-0.67,-1.77,928.22
24.341,0.12,-0.93,-0.00,-9.97,4.83,-0.78,-1.00,-0.67,-1.77,928.22
24.376,0.12,-0.93,-0.00,-9.97,4.83,-0.78,-1.00,-0.67,-1.77,928.24
24.389,0.12,-0.93,-0.00,-9.97,4.83,-0.78,-1.20,-1.77,-5.09,928.24
24.404,0.12,-0.93,-0.00,-5.24,18.16,-0.81,-1.20,-1.77,-5.09,928.24
24.405,-0.16,-2.59,0.05,-5.24,18.16,-0.81,-1.20,-1.77,-5.09,928.24
24.442,-0.16,-2.59,0.05,-5.24,18.16,-0.81,-1.20,-1.77,-5.09,928.24
24.452,-0.16,-2.59,0.05,-5.24,18.16,-0.81,-1.86,-2.95,-9.82,928.24
24.468,-0.47,-4.10,-0.14,-5.24,18.16,-0.81,-1.86,-2.95,-9.82,928.24
24.469,-0.47,-4.10,-0.14,3.30,30.42,0.74,-1.86,-2.95,-9.82,928.24
24.509,-0.47,-4.10,-0.14,3.30,30.42,0.74,-1.86,-2.95,-9.82,928.24
24.515,-0.47,-4.10,-0.14,3.30,30.42,0.74,-2.74,-9.98,-8.88,928.24
24.531,-0.15,-3.51,0.25,3.30,30.42,0.74,-2.74,-9.98,-8.88,928.24
24.532,-0.15,-3.51,0.25,4.07,25.41,-5.55,-2.74,-9.98,-8.88,928.24
24.576,-0.15,-3.51,0.25,4.07,25.41,-5.55,-2.74,-9.98,-8.88,928.24
24.579,-0.15,-3.51,0.25,4.07,25.41,-5.55,-2.45,-7.98,-4.01,928.24
24.597,0.01,-2.84,0.90,4.07,25.41,-5.55,-2.45,-7.98,-4.01,928.24
24.597,0.01,-2.84,0.90,2.19,20.01,-14.23,-2.45,-7.98,-4.01,928.24
24.642,0.01,-2.84,0.90,2.19,20.01,-14.23,-2.45,-7.98,-4.01,928.42
24.644,0.01,-2.84,0.90,2.19,20.01,-14.23,-0.15,-2.65,-1.08,928.42
24.657,-0.06,-0.85,0.67,2.19,20.01,-14.23,-0.15,-2.65,-1.08,928.42
24.658,-0.06,-0.85,0.67,2.76,0.52,-12.10,-0.15,-2.65,-1.08,928.42
24.706,-0.06,-0.85,0.67,2.76,0.52,-12.10,0.73,1.31,-0.56,928.42
24.708,-0.06,-0.85,0.67,2.76,0.52,-12.10,0.73,1.31,-0.56,928.42
24.721,-0.28,-0.26,0.28,2.76,0.52,-12.10,0.73,1.31,-0.56,928.42
24.722,-0.28,-0.26,0.28,5.57,-5.42,-7.66,0.73,1.31,-0.56,928.42
24.768,-0.28,-0.26,0.28,5.57,-5.42,-7.66,0.86,0.61,-0.50,928.42
24.775,-0.28,-0.26,0.28,5.57,-5.42,-7.66,0.86,0.61,-0.50,928.37
24.784,-0.36,-0.03,0.25,5.57,-5.42,-7.66,0.86,0.61,-0.50,928.37
24.785,-0.36,-0.03,0.25,6.72,-7.86,-6.80,0.86,0.61,-0.50,928.37
24.833,-0.36,-0.03,0.25,6.72,-7.86,-6.80,0.98,-0.77,-0.90,928.37
24.842,-0.36,-0.03,0.25,6.72,-7.86,-6.80,0.98,-0.77,-0.90,928.37
24.849,-0.30,-0.04,0.19,6.72,-7.86,-6.80,0.98,-0.77,-0.90,928.37
24.85,-0.30,-0.04,0.19,6.34,-7.90,-5.86,0.98,-0.77,-0.90,928.37
24.895,-0.30,-0.04,0.19,6.34,-7.90,-5.86,0.89,-0.58,-1.23,928.37
24.908,-0.30,-0.04,0.19,6.34,-7.90,-5.86,0.89,-0.58,-1.23,928.37
24.911,-0.47,0.05,0.14,6.34,-7.90,-5.86,0.89,-0.58,-1.23,928.37
24.912,-0.47,0.05,0.14,8.46,-8.71,-5.11,0.89,-0.58,-1.23,928.37
24.958,-0.47,0.05,0.14,8.46,-8.71,-5.11,1.18,-2.17,-0.92,928.37
24.974,-0.69,-1.02,-0.11,8.46,-8.71,-5.11,1.18,-2.17,-0.92,928.37
24.975,-0.69,-1.02,-0.11,10.47,1.66,-2.58,1.18,-2.17,-0.92,928.37
24.975,-0.69,-1.02,-0.11,10.47,1.66,-2.58,1.18,-2.17,-0.92,928.32
25.022,-0.69,-1.02,-0.11,10.47,1.66,-2.58,1.81,-1.37,-0.40,928.32
25.036,-1.40,-2.61,-0.44,10.47,1.66,-2.58,1.81,-1.37,-0.40,928.32
25.037,-1.40,-2.61,-0.44,17.27,16.81,1.47,1.81,-1.37,-0.40,928.32
25.041,-1.40,-2.61,-0.44,17.27,16.81,1.47,1.81,-1.37,-0.40,928.32
25.085,-1.40,-2.61,-0.44,17.27,16.81,1.47,2.95,1.21,2.52,928.32
25.107,-1.06,-2.42,-0.80,17.27,16.81,1.47,2.95,1.21,2.52,928.32
25.108,-1.06,-2.42,-0.80,12.33,14.12,7.05,2.95,1.21,2.52,928.32
25.109,-1.06,-2.42,-0.80,12.33,14.12,7.05,2.95,1.21,2.52,928.23
25.154,-1.06,-2.42,-0.80,12.33,14.12,7.05,2.31,1.82,4.39,928.23
25.164,-0.98,-2.40,-0.75,12.33,14.12,7.05,2.31,1.82,4.39,928.23
25.164,-0.98,-2.40,-0.75,8.69,13.69,7.91,2.31,1.82,4.39,928.23
25.175,-0.98,-2.40,-0.75,8.69,13.69,7.91,2.31,1.82,4.39,928.23
25.211,-0.98,-2.40,-0.75,8.69,13.69,7.91,1.39,0.39,6.14,928.23
25.225,-0.44,-3.13,-0.50,8.69,13.69,7.91,1.39,0.39,6.14,928.23
25.226,-0.44,-3.13,-0.50,-0.33,22.03,6.02,1.39,0.39,6.14,928.23
25.241,-0.44,-3.13,-0.50,-0.33,22.03,6.02,1.39,0.39,6.14,928.23
25.276,-0.44,-3.13,-0.50,-0.33,22.03,6.02,0.24,1.99,5.97,928.23
25.289,0.01,-2.63,-0.27,-0.33,22.03,6.02,0.24,1.99,5.97,928.23
25.29,0.01,-2.63,-0.27,-7.53,19.30,3.08,0.24,1.99,5.97,928.23
25.308,0.01,-2.63,-0.27,-7.53,19.30,3.08,0.24,1.99,5.97,928.23
25.338,0.01,-2.63,-0.27,-7.53,19.30,3.08,-0.57,0.77,3.29,928.23
25.352,0.47,-1.31,-0.16,-7.53,19.30,3.08,-0.57,0.77,3.29,928.23
25.353,0.47,-1.31,-0.16,-13.06,7.71,1.50,-0.57,0.77,3.29,928.23
25.375,0.47,-1.31,-0.16,-13.06,7.71,1.50,-0.57,0.77,3.29,928.23
25.401,0.47,-1.31,-0.16,-13.06,7.71,1.50,-0.52,-0.20,1.01,928.23
25.416,0.68,-0.35,-0.16,-13.06,7.71,1.50,-0.52,-0.20,1.01,928.23
25.417,0.68,-0.35,-0.16,-15.34,-1.26,1.44,-0.52,-0.20,1.01,928.23
25.441,0.68,-0.35,-0.16,-15.34,-1.26,1.44,-0.52,-0.20,1.01,928.21
25.464,0.68,-0.35,-0.16,-15.34,-1.26,1.44,-0.59,0.05,0.05,928.21
25.479,0.64,-0.18,0.07,-15.34,-1.26,1.44,-0.59,0.05,0.05,928.21
25.48,0.64,-0.18,0.07,-14.88,-2.95,-1.00,-0.59,0.05,0.05,928.21
25.509,0.64,-0.18,0.07,-14.88,-2.95,-1.00,-0.59,0.05,0.05,928.21
25.537,0.64,-0.18,0.07,-14.88,-2.95,-1.00,-0.70,-0.07,-0.61,928.21
25.543,0.51,-0.10,0.14,-14.88,-2.95,-1.00,-0.70,-0.07,-0.61,928.21
25.543,0.51,-0.10,0.14,-13.45,-4.12,-1.79,-0.70,-0.07,-0.61,928.21
25.575,0.51,-0.10,0.14,-13.45,-4.12,-1.79,-0.70,-0.07,-0.61,928.22
25.591,0.51,-0.10,0.14,-13.45,-4.12,-1.79,-0.69,-0.44,-1.07,928.22
25.607,0.38,-0.06,0.18,-13.45,-4.12,-1.79,-0.69,-0.44,-1.07,928.22
25.608,0.38,-0.06,0.18,-11.81,-5.10,-2.21,-0.69,-0.44,-1.07,928.22
25.643,0.38,-0.06,0.18,-11.81,-5.10,-2.21,-0.69,-0.44,-1.07,928.22
25.655,0.38,-0.06,0.18,-11.81,-5.10,-2.21,-0.33,-0.25,-1.64,928.22
25.67,0.16,-0.77,0.18,-11.81,-5.10,-2.21,-0.33,-0.25,-1.64,928.22
25.672,0.16,-0.77,0.18,-8.89,0.91,-2.19,-0.33,-0.25,-1.64,928.22
25.708,0.16,-0.77,0.18,-8.89,0.91,-2.19,-0.33,-0.25,-1.64,928.24
25.718,0.16,-0.77,0.18,-8.89,0.91,-2.19,0.50,0.26,-4.13,928.24
25.734,0.16,-0.77,0.18,-3.69,15.87,0.39,0.50,0.26,-4.13,928.24
25.735,-0.13,-2.49,-0.07,-3.69,15.87,0.39,0.50,0.26,-4.13,928.24
25.776,-0.13,-2.49,-0.07,-3.69,15.87,0.39,0.50,0.26,-4.13,928.24
25.794,-0.13,-2.49,-0.07,-3.69,15.87,0.39,0.83,0.17,-7.65,928.24
25.797,-0.13,-2.49,-0.07,5.96,29.34,1.08,0.83,0.17,-7.65,928.24
25.797,-0.65,-4.00,-0.09,5.96,29.34,1.08,0.83,0.17,-7.65,928.24
25.841,-0.65,-4.00,-0.09,5.96,29.34,1.08,0.83,0.17,-7.65,928.24
25.844,-0.65,-4.00,-0.09,5.96,29.34,1.08,0.34,-1.25,-6.44,928.24
25.859,-0.93,-2.73,-0.35,5.96,29.34,1.08,0.34,-1.25,-6.44,928.24
25.86,-0.93,-2.73,-0.35,12.26,17.39,3.54,0.34,-1.25,-6.44,928.24
25.909,-0.93,-2.73,-0.35,12.26,17.39,3.54,-0.02,-3.64,-2.36,928.24
25.91,-0.93,-2.73,-0.35,12.26,17.39,3.54,-0.02,-3.64,-2.36,928.17
25.923,-0.93,-2.73,-0.35,10.97,7.18,1.81,-0.02,-3.64,-2.36,928.17
25.925,-0.70,-1.64,-0.27,10.97,7.18,1.81,-0.02,-3.64,-2.36,928.17
25.971,-0.70,-1.64,-0.27,10.97,7.18,1.81,-0.07,-3.31,-0.18,928.17
25.974,-0.70,-1.64,-0.27,10.97,7.18,1.81,-0.07,-3.31,-0.18,928.17
25.986,-0.50,-1.10,0.06,10.97,7.18,1.81,-0.07,-3.31,-0.18,928.17
25.988,-0.50,-1.10,0.06,8.77,1.92,-2.27,-0.07,-3.31,-0.18,928.17
26.035,-0.50,-1.10,0.06,8.77,1.92,-2.27,-0.09,-1.60,0.87,928.17
26.042,-0.50,-1.10,0.06,8.77,1.92,-2.27,-0.09,-1.60,0.87,928.17
26.05,-0.24,-0.27,0.16,8.77,1.92,-2.27,-0.09,-1.60,0.87,928.17
26.051,-0.24,-0.27,0.16,5.40,-6.51,-3.55,-0.09,-1.60,0.87,928.17
26.099,-0.24,-0.27,0.16,5.40,-6.51,-3.55,0.28,-0.55,1.05,928.17
26.109,-0.24,-0.27,0.16,5.40,-6.51,-3.55,0.28,-0.55,1.05,928.17
26.113,-0.24,-0.27,0.16,3.93,-8.46,-2.69,0.28,-0.55,1.05,928.17
26.114,-0.16,-0.09,0.08,3.93,-8.46,-2.69,0.28,-0.55,1.05,928.17
26.162,-0.16,-0.09,0.08,3.93,-8.46,-2.69,0.62,-0.06,0.53,928.17
26.175,-0.16,-0.09,0.08,3.93,-8.46,-2.69,0.62,-0.06,0.53,928.16
26.176,-0.16,-0.09,0.08,3.29,-9.30,-1.59,0.62,-0.06,0.53,928.16
26.177,-0.12,-0.02,0.01,3.29,-9.30,-1.59,0.62,-0.06,0.53,928.16
26.225,-0.12,-0.02,0.01,3.29,-9.30,-1.59,0.39,0.62,-0.12,928.16
26.24,-0.14,0.14,0.01,3.29,-9.30,-1.59,0.39,0.62,-0.12,928.16
26.241,-0.14,0.14,0.01,3.60,-10.89,-1.31,0.39,0.62,-0.12,928.16
26.243,-0.14,0.14,0.01,3.60,-10.89,-1.31,0.39,0.62,-0.12,928.16
26.288,-0.14,0.14,0.01,3.60,-10.89,-1.31,0.23,1.61,-0.47,928.16
26.303,-0.42,-0.45,-0.37,3.60,-10.89,-1.31,0.23,1.61,-0.47,928.16
26.304,-0.42,-0.45,-0.37,6.75,-5.07,2.82,0.23,1.61,-0.47,928.16
26.308,-0.42,-0.45,-0.37,6.75,-5.07,2.82,0.23,1.61,-0.47,928.10
26.352,-0.42,-0.45,-0.37,6.75,-5.07,2.82,-0.48,3.35,0.65,928.10
26.366,-1.20,-2.95,-0.91,6.75,-5.07,2.82,-0.48,3.35,0.65,928.10
26.367,-1.20,-2.95,-0.91,13.83,19.29,8.17,-0.48,3.35,0.65,928.10
26.375,-1.20,-2.95,-0.91,13.83,19.29,8.17,-0.48,3.35,0.65,928.10
26.425,-1.20,-2.95,-0.91,13.83,19.29,8.17,-1.06,-0.84,3.39,928.10
26.461,-0.78,-2.53,-0.67,13.83,19.29,8.17,-1.06,-0.84,3.39,928.10
26.462,-0.78,-2.53,-0.67,7.37,15.00,5.21,-1.06,-0.84,3.39,928.10
26.463,-0.78,-2.53,-0.67,7.37,15.00,5.21,-1.06,-0.84,3.39,928.10
26.478,-0.78,-2.53,-0.67,7.37,15.00,5.21,-0.64,-1.34,4.65,928.10
26.492,-0.54,-2.56,-0.06,7.37,15.00,5.21,-0.64,-1.34,4.65,928.10
26.493,-0.54,-2.56,-0.06,2.04,15.93,-1.05,-0.64,-1.34,4.65,928.10
26.508,-0.54,-2.56,-0.06,2.04,15.93,-1.05,-0.64,-1.34,4.65,928.05
26.541,-0.54,-2.56,-0.06,2.04,15.93,-1.05,-0.72,-0.60,5.23,928.05
26.568,-0.26,-2.90,0.34,2.04,15.93,-1.05,-0.72,-0.60,5.23,928.05
26.57,-0.26,-2.90,0.34,-3.48,20.84,-5.14,-0.72,-0.60,5.23,928.05
26.575,-0.26,-2.90,0.34,-3.48,20.84,-5.14,-0.72,-0.60,5.23,928.05
26.604,-0.26,-2.90,0.34,-3.48,20.84,-5.14,0.28,0.25,4.01,928.05
26.619,0.12,-1.57,0.22,-3.48,20.84,-5.14,0.28,0.25,4.01,928.05
26.62,0.12,-1.57,0.22,-8.80,9.34,-3.91,0.28,0.25,4.01,928.05
26.641,0.12,-1.57,0.22,-8.80,9.34,-3.91,0.28,0.25,4.01,928.13
26.672,0.12,-1.57,0.22,-8.80,9.34,-3.91,0.56,0.21,3.15,928.13
26.7,0.91,-0.40,0.18,-8.80,9.34,-3.91,0.56,0.21,3.15,928.13
26.7,0.91,-0.40,0.18,-17.51,-0.67,-3.56,0.56,0.21,3.15,928.13
26.708,0.91,-0.40,0.18,-17.51,-0.67,-3.56,0.56,0.21,3.15,928.13
26.731,0.91,-0.40,0.18,-17.51,-0.67,-3.56,0.23,1.04,1.50,928.13
26.746,0.78,-0.23,0.02,-17.51,-0.67,-3.56,0.23,1.04,1.50,928.13
26.747,0.78,-0.23,0.02,-16.44,-1.65,-2.38,0.23,1.04,1.50,928.13
26.775,0.78,-0.23,0.02,-16.44,-1.65,-2.38,0.23,1.04,1.50,928.16
26.795,0.78,-0.23,0.02,-16.44,-1.65,-2.38,0.30,0.29,0.23,928.16
26.809,0.70,-0.01,0.17,-16.44,-1.65,-2.38,0.30,0.29,0.23,928.16
26.81,0.70,-0.01,0.17,-15.60,-3.91,-4.01,0.30,0.29,0.23,928.16
26.842,0.70,-0.01,0.17,-15.60,-3.91,-4.01,0.30,0.29,0.23,928.16
26.857,0.70,-0.01,0.17,-15.60,-3.91,-4.01,0.58,0.21,-0.53,928.16
26.873,0.70,-0.01,0.17,-11.24,-3.79,-3.72,0.58,0.21,-0.53,928.16
26.875,0.27,-0.06,0.16,-11.24,-3.79,-3.72,0.58,0.21,-0.53,928.16
26.908,0.27,-0.06,0.16,-11.24,-3.79,-3.72,0.58,0.21,-0.53,928.16
26.922,0.27,-0.06,0.16,-11.24,-3.79,-3.72,1.16,0.28,-1.05,928.16
26.936,0.19,-0.85,0.14,-11.24,-3.79,-3.72,1.16,0.28,-1.05,928.16
26.938,0.19,-0.85,0.14,-9.93,3.05,-3.45,1.16,0.28,-1.05,928.16
26.976,0.19,-0.85,0.14,-9.93,3.05,-3.45,1.16,0.28,-1.05,928.19
26.989,0.19,-0.85,0.14,-9.93,3.05,-3.45,1.76,1.80,-4.33,928.19
26.999,-0.48,-2.48,-0.23,-9.93,3.05,-3.45,1.76,1.80,-4.33,928.19
26.999,-0.48,-2.48,-0.23,-1.02,16.55,0.12,1.76,1.80,-4.33,928.19
27.041,-0.48,-2.48,-0.23,-1.02,16.55,0.12,1.76,1.80,-4.33,928.19
27.049,-0.48,-2.48,-0.23,-1.02,16.55,0.12,2.43,1.29,-6.69,928.19
27.062,-0.71,-3.15,-0.69,-1.02,16.55,0.12,2.43,1.29,-6.69,928.19
27.063,-0.71,-3.15,-0.69,5.03,21.26,5.65,2.43,1.29,-6.69,928.19
27.109,-0.71,-3.15,-0.69,5.03,21.26,5.65,2.43,1.29,-6.69,928.00
27.112,-0.71,-3.15,-0.69,5.03,21.26,5.65,1.36,-1.18,-4.98,928.00
27.126,-0.48,-2.18,-0.74,5.03,21.26,5.65,1.36,-1.18,-4.98,928.00
27.127,-0.48,-2.18,-0.74,5.54,11.57,6.81,1.36,-1.18,-4.98,928.00
27.175,-0.48,-2.18,-0.74,5.54,11.57,6.81,-0.45,-3.14,-2.83,928.00
27.177,-0.48,-2.18,-0.74,5.54,11.57,6.81,-0.45,-3.14,-2.83,928.00
27.189,-0.81,-2.15,-0.38,5.54,11.57,6.81,-0.45,-3.14,-2.83,928.00
27.19,-0.81,-2.15,-0.38,10.12,11.59,2.52,-0.45,-3.14,-2.83,928.00
27.238,-0.81,-2.15,-0.38,10.12,11.59,2.52,-0.67,-3.37,-0.70,928.00
27.242,-0.81,-2.15,-0.38,10.12,11.59,2.52,-0.67,-3.37,-0.70,928.09
27.253,-0.45,-0.79,0.01,10.12,11.59,2.52,-0.67,-3.37,-0.70,928.09
27.253,-0.45,-0.79,0.01,6.49,-1.72,-2.14,-0.67,-3.37,-0.70,928.09
27.302,-0.45,-0.79,0.01,6.49,-1.72,-2.14,-0.18,-1.62,0.49,928.09
27.308,-0.45,-0.79,0.01,6.49,-1.72,-2.14,-0.18,-1.62,0.49,928.09
27.316,-0.45,-0.79,0.01,3.04,-6.70,-3.89,-0.18,-1.62,0.49,928.09
27.317,-0.15,-0.28,0.17,3.04,-6.70,-3.89,-0.18,-1.62,0.49,928.09
27.365,-0.15,-0.28,0.17,3.04,-6.70,-3.89,0.01,0.37,0.18,928.09
27.379,-0.15,-0.28,0.17,3.04,-6.70,-3.89,0.01,0.37,0.18,928.14
27.381,-0.35,-0.11,0.13,3.04,-6.70,-3.89,0.01,0.37,0.18,928.14
27.381,-0.35,-0.11,0.13,4.99,-8.46,-3.41,0.01,0.37,0.18,928.14
27.428,-0.35,-0.11,0.13,4.99,-8.46,-3.41,0.18,0.21,0.21,928.14
27.442,-0.35,-0.11,0.13,4.99,-8.46,-3.41,0.18,0.21,0.21,928.14
27.442,-0.35,-0.11,0.13,3.93,-9.99,-2.80,0.18,0.21,0.21,928.14
27.442,-0.26,0.04,0.09,3.93,-9.99,-2.80,0.18,0.21,0.21,928.14
27.491,-0.26,0.04,0.09,3.93,-9.99,-2.80,0.35,0.77,0.52,928.14
27.507,-0.22,0.06,-0.01,3.93,-9.99,-2.80,0.35,0.77,0.52,928.14
27.508,-0.22,0.06,-0.01,3.21,-10.24,-1.59,0.35,0.77,0.52,928.14
27.509,-0.22,0.06,-0.01,3.21,-10.24,-1.59,0.35,0.77,0.52,928.14
27.556,-0.22,0.06,-0.01,3.21,-10.24,-1.59,0.32,1.11,0.55,928.14
27.57,-0.41,-1.19,-0.25,3.21,-10.24,-1.59,0.32,1.11,0.55,928.14
27.577,-0.41,-1.19,-0.25,4.88,1.95,0.97,0.32,1.11,0.55,928.14
27.578,-0.41,-1.19,-0.25,4.88,1.95,0.97,0.32,1.11,0.55,928.14
27.618,-0.41,-1.19,-0.25,4.88,1.95,0.97,-0.36,2.06,0.40,928.14
27.634,-0.85,-2.34,-0.42,4.88,1.95,0.97,-0.36,2.06,0.40,928.14
27.635,-0.85,-2.34,-0.42,8.98,13.19,2.54,-0.36,2.06,0.40,928.14
27.645,-0.85,-2.34,-0.42,8.98,13.19,2.54,-0.36,2.06,0.40,928.14
27.681,-0.85,-2.34,-0.42,8.98,13.19,2.54,0.15,-2.39,2.41,928.14
27.696,-0.85,-2.34,-0.42,6.91,12.96,2.97,0.15,-2.39,2.41,928.14
27.697,-0.84,-2.31,-0.44,6.91,12.96,2.97,0.15,-2.39,2.41,928.14
27.711,-0.84,-2.31,-0.44,6.91,12.96,2.97,0.15,-2.39,2.41,928.11
27.745,-0.84,-2.31,-0.44,6.91,12.96,2.97,0.70,-1.67,4.35,928.11
27.761,-0.84,-2.31,-0.44,2.14,16.82,-1.30,0.70,-1.67,4.35,928.11
27.762,-0.63,-2.63,0.04,2.14,16.82,-1.30,0.70,-1.67,4.35,928.11
27.791,-0.63,-2.63,0.04,2.14,16.82,-1.30,0.70,-1.67,4.35,928.11
27.81,-0.63,-2.63,0.04,2.14,16.82,-1.30,0.38,1.29,4.81,928.11
27.822,-0.62,-2.52,-0.08,2.14,16.82,-1.30,0.38,1.29,4.81,928.11
27.823,-0.62,-2.52,-0.08,-0.34,17.32,-0.23,0.38,1.29,4.81,928.11
27.842,-0.62,-2.52,-0.08,-0.34,17.32,-0.23,0.38,1.29,4.81,928.12
27.871,-0.62,-2.52,-0.08,-0.34,17.32,-0.23,0.27,0.18,3.79,928.12
27.885,0.67,-1.11,0.04,-0.34,17.32,-0.23,0.27,0.18,3.79,928.12
27.886,0.67,-1.11,0.04,-14.37,5.02,-1.47,0.27,0.18,3.79,928.12
27.909,0.67,-1.11,0.04,-14.37,5.02,-1.47,0.27,0.18,3.79,928.12
27.937,0.67,-1.11,0.04,-14.37,5.02,-1.47,-0.04,1.09,1.85,928.12
27.949,0.67,-1.11,0.04,-14.68,0.04,-0.09,-0.04,1.09,1.85,928.12
27.95,0.65,-0.52,-0.15,-14.68,0.04,-0.09,-0.04,1.09,1.85,928.12
27.975,0.65,-0.52,-0.15,-14.68,0.04,-0.09,-0.04,1.09,1.85,928.12
27.997,0.65,-0.52,-0.15,-14.68,0.04,-0.09,-0.05,-0.66,1.13,928.12
28.013,0.74,-0.21,-0.01,-14.68,0.04,-0.09,-0.05,-0.66,1.13,928.12
28.014,0.74,-0.21,-0.01,-15.91,-2.46,-1.16,-0.05,-0.66,1.13,928.12
28.042,0.74,-0.21,-0.01,-15.91,-2.46,-1.16,-0.05,-0.66,1.13,928.16
28.061,0.74,-0.21,-0.01,-15.91,-2.46,-1.16,-0.24,0.20,0.33,928.16
28.077,0.63,0.00,0.03,-15.91,-2.46,-1.16,-0.24,0.20,0.33,928.16
28.079,0.63,0.00,0.03,-14.85,-4.47,-1.74,-0.24,0.20,0.33,928.16
28.108,0.63,0.00,0.03,-14.85,-4.47,-1.74,-0.24,0.20,0.33,928.16
28.125,0.63,0.00,0.03,-14.85,-4.47,-1.74,-0.11,0.12,-0.27,928.16
28.142,0.29,-0.04,-0.02,-14.85,-4.47,-1.74,-0.11,0.12,-0.27,928.16
28.143,0.29,-0.04,-0.02,-11.38,-4.22,-1.34,-0.11,0.12,-0.27,928.16
28.176,0.29,-0.04,-0.02,-11.38,-4.22,-1.34,-0.11,0.12,-0.27,928.19
28.195,0.29,-0.04,-0.02,-11.38,-4.22,-1.34,0.33,0.22,-1.16,928.19
28.203,-0.11,-0.98,-0.02,-11.38,-4.22,-1.34,0.33,0.22,-1.16,928.19
28.203,-0.11,-0.98,-0.02,-6.94,4.11,-1.28,0.33,0.22,-1.16,928.19
28.242,-0.11,-0.98,-0.02,-6.94,4.11,-1.28,0.33,0.22,-1.16,928.19
28.252,-0.11,-0.98,-0.02,-6.94,4.11,-1.28,0.64,-0.46,-3.84,928.19
28.266,-0.47,-1.94,-0.26,-6.94,4.11,-1.28,0.64,-0.46,-3.84,928.19
28.269,-0.47,-1.94,-0.26,-1.70,11.53,1.55,0.64,-0.46,-3.84,928.19
28.311,-0.47,-1.94,-0.26,-1.70,11.53,1.55,0.64,-0.46,-3.84,928.17
28.315,-0.47,-1.94,-0.26,-1.70,11.53,1.55,0.14,-1.29,-6.03,928.17
28.344,-0.48,-2.90,0.00,-1.70,11.53,1.55,0.14,-1.29,-6.03,928.17
28.345,-0.48,-2.90,0.00,1.60,19.06,-0.61,0.14,-1.29,-6.03,928.17
28.375,-0.48,-2.90,0.00,1.60,19.06,-0.61,0.14,-1.29,-6.03,928.17
28.377,-0.48,-2.90,0.00,1.60,19.06,-0.61,-0.15,-2.15,-5.79,928.17
28.392,-0.42,-2.79,0.06,1.60,19.06,-0.61,-0.15,-2.15,-5.79,928.17
28.394,-0.42,-2.79,0.06,4.28,17.53,-1.02,-0.15,-2.15,-5.79,928.17
28.442,-0.42,-2.79,0.06,4.28,17.53,-1.02,-0.22,-1.53,-3.37,928.17
28.443,-0.42,-2.79,0.06,4.28,17.53,-1.02,-0.22,-1.53,-3.37,928.17
28.457,-0.56,-2.18,0.21,4.28,17.53,-1.02,-0.22,-1.53,-3.37,928.17
28.457,-0.56,-2.18,0.21,7.37,11.69,-2.85,-0.22,-1.53,-3.37,928.17
28.504,-0.56,-2.18,0.21,7.37,11.69,-2.85,0.30,-3.23,-0.48,928.17
28.509,-0.56,-2.18,0.21,7.37,11.69,-2.85,0.30,-3.23,-0.48,928.20
28.52,-0.19,-0.65,0.11,7.37,11.69,-2.85,0.30,-3.23,-0.48,928.20
28.521,-0.19,-0.65,0.11,3.67,-3.26,-1.95,0.30,-3.23,-0.48,928.20
28.568,-0.19,-0.65,0.11,3.67,-3.26,-1.95,0.58,-1.51,-0.42,928.20
28.588,-0.19,-0.65,0.11,3.67,-3.26,-1.95,0.58,-1.51,-0.42,928.20
28.589,-0.29,-0.19,0.09,3.67,-3.26,-1.95,0.58,-1.51,-0.42,928.20
28.59,-0.29,-0.19,0.09,4.87,-7.75,-1.60,0.58,-1.51,-0.42,928.20
28.63,-0.29,-0.19,0.09,4.87,-7.75,-1.60,0.44,-1.69,-1.10,928.20
28.642,-0.29,-0.19,0.09,4.87,-7.75,-1.60,0.44,-1.69,-1.10,928.19
28.645,-0.41,-0.04,0.05,4.87,-7.75,-1.60,0.44,-1.69,-1.10,928.19
28.645,-0.41,-0.04,0.05,6.61,-9.07,-1.17,0.44,-1.69,-1.10,928.19
28.695,-0.41,-0.04,0.05,6.61,-9.07,-1.17,0.28,-2.25,-1.60,928.19
28.717,-0.41,-0.04,0.05,6.61,-9.07,-1.17,0.28,-2.25,-1.60,928.19
28.718,-0.41,-0.04,0.05,7.78,-9.06,-1.60,0.28,-2.25,-1.60,928.19
28.719,-0.44,-0.01,0.06,7.78,-9.06,-1.60,0.28,-2.25,-1.60,928.19
28.758,-0.44,-0.01,0.06,7.78,-9.06,-1.60,0.33,-1.62,-1.41,928.19
28.773,-0.66,-0.18,-0.04,7.78,-9.06,-1.60,0.33,-1.62,-1.41,928.19
28.773,-0.66,-0.18,-0.04,10.46,-7.13,-0.78,0.33,-1.62,-1.41,928.19
28.777,-0.66,-0.18,-0.04,10.46,-7.13,-0.78,0.33,-1.62,-1.41,928.20
28.821,-0.66,-0.18,-0.04,10.46,-7.13,-0.78,0.72,-2.62,-0.30,928.20
28.837,-0.96,-1.79,-0.25,10.46,-7.13,-0.78,0.72,-2.62,-0.30,928.20
28.838,-0.96,-1.79,-0.25,13.13,8.60,0.98,0.72,-2.62,-0.30,928.20
28.842,-0.96,-1.79,-0.25,13.13,8.60,0.98,0.72,-2.62,-0.30,928.20
28.885,-0.96,-1.79,-0.25,13.13,8.60,0.98,1.51,-2.87,1.92,928.20
28.899,-0.84,-2.50,-0.64,13.13,8.60,0.98,1.51,-2.87,1.92,928.20
28.9,-0.84,-2.50,-0.64,10.37,14.95,5.28,1.51,-2.87,1.92,928.20
28.91,-0.84,-2.50,-0.64,10.37,14.95,5.28,1.51,-2.87,1.92,928.20
28.947,-0.84,-2.50,-0.64,10.37,14.95,5.28,2.05,-0.86,3.46,928.20
28.962,-0.84,-2.50,-0.64,3.24,15.27,6.79,2.05,-0.86,3.46,928.20
28.964,-0.34,-2.56,-0.69,3.24,15.27,6.79,2.05,-0.86,3.46,928.20
28.977,-0.34,-2.56,-0.69,3.24,15.27,6.79,2.05,-0.86,3.46,928.20
29.011,-0.34,-2.56,-0.69,3.24,15.27,6.79,0.88,1.80,5.01,928.20
29.027,-0.53,-2.79,-0.64,3.24,15.27,6.79,0.88,1.80,5.01,928.20
29.028,-0.53,-2.79,-0.64,1.77,18.11,6.66,0.88,1.80,5.01,928.20
29.043,-0.53,-2.79,-0.64,1.77,18.11,6.66,0.88,1.80,5.01,928.20
29.075,-0.53,-2.79,-0.64,1.77,18.11,6.66,0.63,0.93,5.69,928.20
29.088,-0.21,-2.77,-0.30,1.77,18.11,6.66,0.63,0.93,5.69,928.20
29.089,-0.21,-2.77,-0.30,-4.25,19.59,3.43,0.63,0.93,5.69,928.20
29.109,-0.21,-2.77,-0.30,-4.25,19.59,3.43,0.63,0.93,5.69,928.23
29.145,-0.21,-2.77,-0.30,-4.25,19.59,3.43,0.48,-0.05,4.08,928.23
29.152,0.45,-1.06,-0.09,-4.25,19.59,3.43,0.48,-0.05,4.08,928.23
29.153,0.45,-1.06,-0.09,-12.32,4.48,1.52,0.48,-0.05,4.08,928.23
29.177,0.45,-1.06,-0.09,-12.32,4.48,1.52,0.48,-0.05,4.08,928.23
29.201,0.45,-1.06,-0.09,-12.32,4.48,1.52,0.04,0.92,1.74,928.23
29.215,0.48,-0.53,-0.12,-12.32,4.48,1.52,0.04,0.92,1.74,928.23
29.217,0.48,-0.53,-0.12,-13.09,0.03,1.37,0.04,0.92,1.74,928.23
29.242,0.48,-0.53,-0.12,-13.09,0.03,1.37,0.04,0.92,1.74,928.22
29.266,0.48,-0.53,-0.12,-13.09,0.03,1.37,-0.47,0.46,1.10,928.22
29.303,0.84,-0.17,0.05,-13.09,0.03,1.37,-0.47,0.46,1.10,928.22
29.304,0.84,-0.17,0.05,-16.98,-2.96,-0.70,-0.47,0.46,1.10,928.22
29.311,0.84,-0.17,0.05,-16.98,-2.96,-0.70,-0.47,0.46,1.10,928.22
29.328,0.84,-0.17,0.05,-16.98,-2.96,-0.70,-0.75,0.39,0.33,928.22
29.344,0.84,-0.17,0.05,-15.53,-2.88,-0.14,-0.75,0.39,0.33,928.22
29.346,0.69,-0.17,-0.05,-15.53,-2.88,-0.14,-0.75,0.39,0.33,928.22
29.379,0.69,-0.17,-0.05,-15.53,-2.88,-0.14,-0.75,0.39,0.33,928.20
29.391,0.69,-0.17,-0.05,-15.53,-2.88,-0.14,-0.84,-0.10,-0.64,928.20
29.415,0.57,-0.09,-0.06,-15.53,-2.88,-0.14,-0.84,-0.10,-0.64,928.20
29.416,0.57,-0.09,-0.06,-14.04,-4.05,-0.22,-0.84,-0.10,-0.64,928.20
29.449,0.57,-0.09,-0.06,-14.04,-4.05,-0.22,-0.84,-0.10,-0.64,928.20
29.455,0.57,-0.09,-0.06,-14.04,-4.05,-0.22,-0.76,-0.10,-1.46,928.20
29.468,0.16,-0.79,-0.08,-14.04,-4.05,-0.22,-0.76,-0.10,-1.46,928.20
29.468,0.16,-0.79,-0.08,-9.48,1.95,-0.26,-0.76,-0.10,-1.46,928.20
29.51,0.16,-0.79,-0.08,-9.48,1.95,-0.26,-0.76,-0.10,-1.46,928.20
29.517,0.16,-0.79,-0.08,-9.48,1.95,-0.26,-0.42,-0.54,-3.73,928.20
29.532,-0.31,-2.16,-0.13,-9.48,1.95,-0.26,-0.42,-0.54,-3.73,928.20
29.534,-0.31,-2.16,-0.13,-3.07,13.50,0.40,-0.42,-0.54,-3.73,928.20
29.576,-0.31,-2.16,-0.13,-3.07,13.50,0.40,-0.42,-0.54,-3.73,928.20
29.581,-0.31,-2.16,-0.13,-3.07,13.50,0.40,-0.62,-2.33,-6.69,928.20
29.596,-0.31,-2.16,-0.13,3.09,25.70,-1.14,-0.62,-2.33,-6.69,928.20
29.596,-0.56,-3.60,0.06,3.09,25.70,-1.14,-0.62,-2.33,-6.69,928.20
29.642,-0.56,-3.60,0.06,3.09,25.70,-1.14,-0.62,-2.33,-6.69,928.20
29.644,-0.56,-3.60,0.06,3.09,25.70,-1.14,-0.82,-4.13,-7.17,928.20
29.659,-0.48,-3.12,0.19,3.09,25.70,-1.14,-0.82,-4.13,-7.17,928.20
29.66,-0.48,-3.12,0.19,6.37,20.93,-2.80,-0.82,-4.13,-7.17,928.20
29.711,-0.48,-3.12,0.19,6.37,20.93,-2.80,-1.05,-3.56,-3.80,928.20
29.712,-0.48,-3.12,0.19,6.37,20.93,-2.80,-1.05,-3.56,-3.80,928.24
29.73,-0.44,-1.97,0.40,6.37,20.93,-2.80,-1.05,-3.56,-3.80,928.24
29.732,-0.44,-1.97,0.40,7.44,10.25,-6.00,-1.05,-3.56,-3.80,928.24
29.771,-0.44,-1.97,0.40,7.44,10.25,-6.00,0.16,-2.99,-1.34,928.24
29.777,-0.44,-1.97,0.40,7.44,10.25,-6.00,0.16,-2.99,-1.34,928.24
29.785,-0.44,-1.97,0.40,7.66,-0.68,-4.48,0.16,-2.99,-1.34,928.24
29.787,-0.44,-0.84,0.20,7.66,-0.68,-4.48,0.16,-2.99,-1.34,928.24
29.835,-0.44,-0.84,0.20,7.66,-0.68,-4.48,0.37,-1.23,-0.62,928.24
29.844,-0.44,-0.84,0.20,7.66,-0.68,-4.48,0.37,-1.23,-0.62,928.23
29.849,-0.35,-0.23,0.24,7.66,-0.68,-4.48,0.37,-1.23,-0.62,928.23
29.85,-0.35,-0.23,0.24,6.91,-6.56,-4.83,0.37,-1.23,-0.62,928.23
29.897,-0.35,-0.23,0.24,6.91,-6.56,-4.83,0.16,-0.75,-0.40,928.23
29.909,-0.35,-0.23,0.24,6.91,-6.56,-4.83,0.16,-0.75,-0.40,928.23
29.912,-0.35,-0.23,0.24,7.04,-8.44,-5.04,0.16,-0.75,-0.40,928.23
29.914,-0.36,-0.04,0.25,7.04,-8.44,-5.04,0.16,-0.75,-0.40,928.23
29.969,-0.36,-0.04,0.25,7.04,-8.44,-5.04,0.40,-1.23,-0.66,928.23
