time,gFx,gFy,gFz,ax,ay,az,wx,wy,wz,P
0.017,-0.73,0.15,0.68,0.14,-0.24,0.18,-0.01,-0.01,-0.01,966.71
0.045,-0.72,0.16,0.69,0.14,-0.24,0.18,-0.01,-0.01,-0.01,966.71
0.045,-0.72,0.16,0.69,0.14,-0.24,0.18,0.01,-0.03,-0.01,966.71
0.045,-0.72,0.16,0.69,0.10,-0.30,0.12,0.01,-0.03,-0.01,966.71
0.077,-0.72,0.16,0.69,0.10,-0.30,0.12,0.01,-0.03,-0.01,966.71
0.108,-0.73,0.15,0.68,0.10,-0.30,0.12,0.01,-0.03,-0.01,966.71
0.108,-0.73,0.15,0.68,0.10,-0.30,0.12,-0.00,-0.04,0.01,966.71
0.108,-0.73,0.15,0.68,0.16,-0.24,0.21,-0.00,-0.04,0.01,966.71
0.147,-0.73,0.15,0.68,0.16,-0.24,0.21,-0.00,-0.04,0.01,966.71
0.171,-0.72,0.15,0.68,0.16,-0.24,0.21,-0.00,-0.04,0.01,966.71
0.171,-0.72,0.15,0.68,0.16,-0.24,0.21,-0.01,-0.02,0.02,966.71
0.172,-0.72,0.15,0.68,0.11,-0.20,0.24,-0.01,-0.02,0.02,966.71
0.211,-0.72,0.15,0.68,0.11,-0.20,0.24,-0.01,-0.02,0.02,966.71
0.235,-0.71,0.15,0.69,0.11,-0.20,0.24,-0.01,-0.02,0.02,966.71
0.235,-0.71,0.15,0.69,0.11,-0.20,0.24,-0.02,-0.02,0.01,966.71
0.235,-0.71,0.15,0.69,-0.02,-0.21,0.18,-0.02,-0.02,0.01,966.71
0.281,-0.71,0.15,0.69,-0.02,-0.21,0.18,-0.02,-0.02,0.01,966.71
0.298,-0.71,0.15,0.68,-0.02,-0.21,0.18,-0.02,-0.02,0.01,966.71
0.299,-0.71,0.15,0.68,-0.02,-0.21,0.18,-0.03,-0.04,-0.01,966.71
0.299,-0.71,0.15,0.68,0.03,-0.25,0.24,-0.03,-0.04,-0.01,966.71
0.344,-0.71,0.15,0.68,0.03,-0.25,0.24,-0.03,-0.04,-0.01,966.70
0.362,-0.71,0.16,0.69,0.03,-0.25,0.24,-0.03,-0.04,-0.01,966.70
0.362,-0.71,0.16,0.69,0.03,-0.25,0.24,-0.04,-0.04,-0.02,966.70
0.362,-0.71,0.16,0.69,-0.01,-0.30,0.18,-0.04,-0.04,-0.02,966.70
0.411,-0.71,0.16,0.69,-0.01,-0.30,0.18,-0.04,-0.04,-0.02,966.70
0.426,-0.72,0.16,0.68,-0.01,-0.30,0.18,-0.04,-0.04,-0.02,966.70
0.426,-0.72,0.16,0.68,-0.01,-0.30,0.18,-0.05,-0.06,-0.01,966.70
0.426,-0.72,0.16,0.68,0.18,-0.31,0.29,-0.05,-0.06,-0.01,966.70
0.477,-0.72,0.16,0.68,0.18,-0.31,0.29,-0.05,-0.06,-0.01,966.67
0.493,-0.72,0.16,0.68,-0.04,-1.25,1.11,-0.05,-0.06,-0.01,966.67
0.493,-0.69,0.25,0.60,-0.04,-1.25,1.11,-0.05,-0.06,-0.01,966.67
0.494,-0.69,0.25,0.60,-0.04,-1.25,1.11,-0.10,-0.18,-0.06,966.67
0.544,-0.69,0.25,0.60,-0.04,-1.25,1.11,-0.10,-0.18,-0.06,966.67
0.551,-0.72,0.04,0.62,-0.04,-1.25,1.11,-0.10,-0.18,-0.06,966.67
0.551,-0.72,0.04,0.62,-0.04,-1.25,1.11,-0.40,-0.52,-0.08,966.67
0.552,-0.72,0.04,0.62,0.40,0.58,1.15,-0.40,-0.52,-0.08,966.67
0.611,-0.72,0.04,0.62,0.40,0.58,1.15,-0.40,-0.52,-0.08,966.68
0.615,-0.67,0.08,0.76,0.40,0.58,1.15,-0.40,-0.52,-0.08,966.68
0.615,-0.67,0.08,0.76,0.40,0.58,1.15,-0.45,-0.43,0.00,966.68
0.615,-0.67,0.08,0.76,0.15,-0.07,0.06,-0.45,-0.43,0.00,966.68
0.677,-0.67,0.08,0.76,0.15,-0.07,0.06,-0.45,-0.43,0.00,966.68
0.678,-0.64,0.06,0.82,0.15,-0.07,0.06,-0.45,-0.43,0.00,966.68
0.678,-0.64,0.06,0.82,0.15,-0.07,0.06,-0.36,-0.31,0.01,966.68
0.678,-0.64,0.06,0.82,0.04,-0.02,-0.46,-0.36,-0.31,0.01,966.68
0.741,-0.64,0.06,0.81,0.04,-0.02,-0.46,-0.36,-0.31,0.01,966.68
0.742,-0.64,0.06,0.81,0.04,-0.02,-0.46,-0.21,-0.08,0.02,966.68
0.742,-0.64,0.06,0.81,0.02,-0.08,-0.32,-0.21,-0.08,0.02,966.68
0.744,-0.64,0.06,0.81,0.02,-0.08,-0.32,-0.21,-0.08,0.02,966.68
0.805,-0.64,0.04,0.78,0.02,-0.08,-0.32,-0.21,-0.08,0.02,966.68
0.805,-0.64,0.04,0.78,0.02,-0.08,-0.32,-0.15,-0.02,0.01,966.68
0.805,-0.64,0.04,0.78,0.10,-0.01,0.06,-0.15,-0.02,0.01,966.68
0.81,-0.64,0.04,0.78,0.10,-0.01,0.06,-0.15,-0.02,0.01,966.70
0.868,-0.64,0.03,0.76,0.10,-0.01,0.06,-0.15,-0.02,0.01,966.70
0.868,-0.64,0.03,0.76,0.10,-0.01,0.06,-0.18,-0.01,0.01,966.70
0.869,-0.64,0.03,0.76,0.11,-0.02,0.23,-0.18,-0.01,0.01,966.70
0.877,-0.64,0.03,0.76,0.11,-0.02,0.23,-0.18,-0.01,0.01,966.70
0.931,-0.60,0.05,0.81,0.11,-0.02,0.23,-0.18,-0.01,0.01,966.70
0.932,-0.60,0.05,0.81,0.11,-0.02,0.23,-0.28,0.12,-0.05,966.70
0.932,-0.60,0.05,0.81,-0.37,-0.30,-0.28,-0.28,0.12,-0.05,966.70
0.944,-0.60,0.05,0.81,-0.37,-0.30,-0.28,-0.28,0.12,-0.05,966.72
0.995,-0.70,-0.04,0.62,-0.37,-0.30,-0.28,-0.28,0.12,-0.05,966.72
0.995,-0.70,-0.04,0.62,-0.37,-0.30,-0.28,-0.43,0.42,-0.12,966.72
0.996,-0.70,-0.04,0.62,0.44,0.35,1.43,-0.43,0.42,-0.12,966.72
1.011,-0.70,-0.04,0.62,0.44,0.35,1.43,-0.43,0.42,-0.12,966.72
1.058,-0.68,-0.09,0.65,0.44,0.35,1.43,-0.43,0.42,-0.12,966.72
1.058,-0.68,-0.09,0.65,0.44,0.35,1.43,-0.55,0.02,-0.07,966.72
1.059,-0.68,-0.09,0.65,0.15,0.54,1.08,-0.55,0.02,-0.07,966.72
1.077,-0.68,-0.09,0.65,0.15,0.54,1.08,-0.55,0.02,-0.07,966.83
1.121,-0.60,-0.12,0.64,0.15,0.54,1.08,-0.55,0.02,-0.07,966.83
1.122,-0.60,-0.12,0.64,0.15,0.54,1.08,-0.74,0.83,-0.06,966.83
1.122,-0.60,-0.12,0.64,-0.88,0.50,0.91,-0.74,0.83,-0.06,966.83
1.144,-0.60,-0.12,0.64,-0.88,0.50,0.91,-0.74,0.83,-0.06,966.83
1.185,-0.71,-0.19,0.53,-0.88,0.50,0.91,-0.74,0.83,-0.06,966.83
1.185,-0.71,-0.19,0.53,-0.88,0.50,0.91,-1.07,1.95,-0.07,966.83
1.186,-0.71,-0.19,0.53,-0.61,0.68,1.04,-1.07,1.95,-0.07,966.83
1.211,-0.71,-0.19,0.53,-0.61,0.68,1.04,-1.07,1.95,-0.07,966.83
1.248,-0.84,-0.24,0.43,-0.61,0.68,1.04,-1.07,1.95,-0.07,966.83
1.249,-0.84,-0.24,0.43,-0.61,0.68,1.04,-1.41,2.00,-0.12,966.83
1.249,-0.84,-0.24,0.43,-0.07,0.58,0.85,-1.41,2.00,-0.12,966.83
1.277,-0.84,-0.24,0.43,-0.07,0.58,0.85,-1.41,2.00,-0.12,966.93
1.311,-0.90,-0.25,0.34,-0.07,0.58,0.85,-1.41,2.00,-0.12,966.93
1.312,-0.90,-0.25,0.34,-0.07,0.58,0.85,-1.66,2.05,-0.25,966.93
1.312,-0.90,-0.25,0.34,0.00,0.15,0.43,-1.66,2.05,-0.25,966.93
1.345,-0.90,-0.25,0.34,0.00,0.15,0.43,-1.66,2.05,-0.25,966.93
1.375,-0.81,-0.26,0.26,0.00,0.15,0.43,-1.66,2.05,-0.25,966.93
1.378,-0.81,-0.26,0.26,-1.11,-0.43,0.03,-1.66,2.05,-0.25,966.93
1.378,-0.81,-0.26,0.26,-1.11,-0.43,0.03,-1.80,1.63,-0.55,966.93
1.411,-0.81,-0.26,0.26,-1.11,-0.43,0.03,-1.80,1.63,-0.55,967.01
1.439,-0.91,-0.35,0.13,-1.11,-0.43,0.03,-1.80,1.63,-0.55,967.01
1.441,-0.91,-0.35,0.13,-1.11,-0.43,0.03,-1.77,1.45,-1.05,967.01
1.442,-0.91,-0.35,0.13,-0.15,-0.30,0.02,-1.77,1.45,-1.05,967.01
1.478,-0.91,-0.35,0.13,-0.15,-0.30,0.02,-1.77,1.45,-1.05,967.01
1.51,-0.94,-0.46,0.19,-0.15,-0.30,0.02,-1.77,1.45,-1.05,967.01
1.511,-0.94,-0.46,0.19,-0.15,-0.30,0.02,-1.54,-0.34,-1.32,967.01
1.512,-0.94,-0.46,0.19,0.54,-0.08,-0.82,-1.54,-0.34,-1.32,967.01
1.545,-0.94,-0.46,0.19,0.54,-0.08,-0.82,-1.54,-0.34,-1.32,966.98
1.565,-0.95,-0.59,0.25,0.54,-0.08,-0.82,-1.54,-0.34,-1.32,966.98
1.566,-0.95,-0.59,0.25,0.54,-0.08,-0.82,-1.14,-0.35,-1.28,966.98
1.566,-0.95,-0.59,0.25,1.00,0.46,-1.63,-1.14,-0.35,-1.28,966.98
1.612,-0.95,-0.59,0.25,1.00,0.46,-1.63,-1.14,-0.35,-1.28,966.98
1.629,-0.89,-0.62,0.32,1.00,0.46,-1.63,-1.14,-0.35,-1.28,966.98
1.63,-0.89,-0.62,0.32,1.00,0.46,-1.63,-0.67,-0.81,-1.07,966.98
1.631,-0.89,-0.62,0.32,0.85,0.20,-2.16,-0.67,-0.81,-1.07,966.98
1.678,-0.89,-0.62,0.32,0.85,0.20,-2.16,-0.67,-0.81,-1.07,966.78
1.692,-0.88,-0.65,0.32,0.85,0.20,-2.16,-0.67,-0.81,-1.07,966.78
1.693,-0.88,-0.65,0.32,0.85,0.20,-2.16,-0.25,-0.35,-0.78,966.78
1.693,-0.88,-0.65,0.32,1.11,0.08,-2.02,-0.25,-0.35,-0.78,966.78
1.745,-0.88,-0.65,0.32,1.11,0.08,-2.02,-0.25,-0.35,-0.78,966.78
1.755,-0.82,-0.61,0.29,1.11,0.08,-2.02,-0.25,-0.35,-0.78,966.78
1.757,-0.82,-0.61,0.29,1.11,0.08,-2.02,0.03,-0.26,-0.59,966.78
1.757,-0.82,-0.61,0.29,0.81,-0.60,-1.57,0.03,-0.26,-0.59,966.78
1.812,-0.82,-0.61,0.29,0.81,-0.60,-1.57,0.03,-0.26,-0.59,966.78
1.818,-0.85,-0.66,0.22,0.81,-0.60,-1.57,0.03,-0.26,-0.59,966.78
1.819,-0.85,-0.66,0.22,0.81,-0.60,-1.57,0.10,-0.46,-0.37,966.78
1.819,-0.85,-0.66,0.22,1.26,-0.27,-0.72,0.10,-0.46,-0.37,966.78
1.878,-0.85,-0.66,0.22,1.26,-0.27,-0.72,0.10,-0.46,-0.37,966.61
1.881,-0.82,-0.72,0.26,1.26,-0.27,-0.72,0.10,-0.46,-0.37,966.61
1.881,-0.82,-0.72,0.26,1.26,-0.27,-0.72,0.07,-0.71,-0.23,966.61
1.882,-0.82,-0.72,0.26,1.18,0.20,-0.70,0.07,-0.71,-0.23,966.61
1.948,-0.82,-0.72,0.26,1.18,0.20,-0.70,0.07,-0.71,-0.23,966.61
1.949,-0.97,-0.88,0.37,1.18,0.20,-0.70,0.07,-0.71,-0.23,966.61
1.949,-0.97,-0.88,0.37,1.18,0.20,-0.70,0.02,-0.57,0.41,966.61
1.95,-0.97,-0.88,0.37,2.50,1.89,-1.53,0.02,-0.57,0.41,966.61
2.009,-1.03,-0.85,0.39,2.50,1.89,-1.53,0.02,-0.57,0.41,966.61
2.011,-1.03,-0.85,0.39,2.50,1.89,-1.53,0.87,0.12,1.15,966.61
2.012,-1.03,-0.85,0.39,2.65,2.26,-1.46,0.87,0.12,1.15,966.61
2.012,-1.03,-0.85,0.39,2.65,2.26,-1.46,0.87,0.12,1.15,966.83
2.072,-0.73,-0.52,0.35,2.65,2.26,-1.46,0.87,0.12,1.15,966.83
2.073,-0.73,-0.52,0.35,2.65,2.26,-1.46,1.59,-0.34,0.98,966.83
2.073,-0.73,-0.52,0.35,-0.53,-0.29,-0.33,1.59,-0.34,0.98,966.83
2.077,-0.73,-0.52,0.35,-0.53,-0.29,-0.33,1.59,-0.34,0.98,966.83
2.135,-0.65,-0.30,0.39,-0.53,-0.29,-0.33,1.59,-0.34,0.98,966.83
2.137,-0.65,-0.30,0.39,-0.53,-0.29,-0.33,1.60,1.09,0.90,966.83
2.138,-0.65,-0.30,0.39,-1.83,-1.63,-0.75,1.60,1.09,0.90,966.83
2.144,-0.65,-0.30,0.39,-1.83,-1.63,-0.75,1.60,1.09,0.90,966.79
2.199,-0.91,-0.28,0.21,-1.83,-1.63,-0.75,1.60,1.09,0.90,966.79
2.201,-0.91,-0.28,0.21,-1.83,-1.63,-0.75,1.09,1.75,1.11,966.79
2.201,-0.91,-0.28,0.21,0.13,-1.08,0.40,1.09,1.75,1.11,966.79
2.211,-0.91,-0.28,0.21,0.13,-1.08,0.40,1.09,1.75,1.11,966.79
2.262,-0.90,-0.33,0.20,0.13,-1.08,0.40,1.09,1.75,1.11,966.79
2.262,-0.90,-0.33,0.20,0.13,-1.08,0.40,0.95,1.70,1.21,966.79
2.263,-0.90,-0.33,0.20,-0.42,0.24,-0.20,0.95,1.70,1.21,966.79
2.278,-0.90,-0.33,0.20,-0.42,0.24,-0.20,0.95,1.70,1.21,966.79
2.325,-0.99,-0.31,-0.06,-0.42,0.24,-0.20,0.95,1.70,1.21,966.79
2.327,-0.99,-0.31,-0.06,-0.42,0.24,-0.20,0.73,2.09,1.30,966.79
2.327,-0.99,-0.31,-0.06,0.08,0.86,1.13,0.73,2.09,1.30,966.79
2.345,-0.99,-0.31,-0.06,0.08,0.86,1.13,0.73,2.09,1.30,966.72
2.389,-0.89,-0.24,-0.12,0.08,0.86,1.13,0.73,2.09,1.30,966.72
2.39,-0.89,-0.24,-0.12,0.08,0.86,1.13,0.25,1.13,1.15,966.72
2.391,-0.89,-0.24,-0.12,-1.04,0.91,1.02,0.25,1.13,1.15,966.72
2.412,-0.89,-0.24,-0.12,-1.04,0.91,1.02,0.25,1.13,1.15,966.72
2.465,-0.90,-0.27,-0.10,-1.04,0.91,1.02,0.25,1.13,1.15,966.72
2.466,-0.90,-0.27,-0.10,-1.04,0.91,1.02,-0.03,0.75,0.95,966.72
2.467,-0.90,-0.27,-0.10,-0.93,1.83,0.41,-0.03,0.75,0.95,966.72
2.487,-0.90,-0.27,-0.10,-0.93,1.83,0.41,-0.03,0.75,0.95,966.69
2.515,-0.87,-0.21,-0.17,-0.93,1.83,0.41,-0.03,0.75,0.95,966.69
2.516,-0.87,-0.21,-0.17,-0.93,1.83,0.41,-0.21,0.43,0.27,966.69
2.516,-0.87,-0.21,-0.17,-1.30,1.39,0.77,-0.21,0.43,0.27,966.69
2.545,-0.87,-0.21,-0.17,-1.30,1.39,0.77,-0.21,0.43,0.27,966.69
2.579,-0.91,-0.14,-0.04,-1.30,1.39,0.77,-0.21,0.43,0.27,966.69
2.58,-0.91,-0.14,-0.04,-1.30,1.39,0.77,-0.11,-0.23,0.45,966.69
2.58,-0.91,-0.14,-0.04,-0.88,1.02,-0.35,-0.11,-0.23,0.45,966.69
2.612,-0.91,-0.14,-0.04,-0.88,1.02,-0.35,-0.11,-0.23,0.45,966.72
2.642,-0.91,-0.14,-0.04,-0.50,0.45,-0.66,-0.11,-0.23,0.45,966.72
2.642,-0.95,-0.09,-0.03,-0.50,0.45,-0.66,-0.11,-0.23,0.45,966.72
2.643,-0.95,-0.09,-0.03,-0.50,0.45,-0.66,0.13,0.36,-0.07,966.72
2.679,-0.95,-0.09,-0.03,-0.50,0.45,-0.66,0.13,0.36,-0.07,966.72
2.713,-0.96,-0.04,-0.12,-0.50,0.45,-0.66,0.13,0.36,-0.07,966.72
2.714,-0.96,-0.04,-0.12,-0.50,0.45,-0.66,0.26,0.59,-0.18,966.72
2.715,-0.96,-0.04,-0.12,-0.34,-0.18,-0.10,0.26,0.59,-0.18,966.72
2.747,-0.96,-0.04,-0.12,-0.34,-0.18,-0.10,0.26,0.59,-0.18,966.71
2.768,-0.99,-0.03,-0.22,-0.34,-0.18,-0.10,0.26,0.59,-0.18,966.71
2.769,-0.99,-0.03,-0.22,-0.34,-0.18,-0.10,0.16,0.30,0.14,966.71
2.77,-0.99,-0.03,-0.22,-0.03,-0.20,0.64,0.16,0.30,0.14,966.71
2.812,-0.99,-0.03,-0.22,-0.03,-0.20,0.64,0.16,0.30,0.14,966.71
2.832,-0.97,-0.02,-0.19,-0.03,-0.20,0.64,0.16,0.30,0.14,966.71
2.833,-0.97,-0.02,-0.19,-0.18,-0.29,0.31,0.16,0.30,0.14,966.71
2.834,-0.97,-0.02,-0.19,-0.18,-0.29,0.31,0.10,0.08,-0.01,966.71
2.878,-0.97,-0.02,-0.19,-0.18,-0.29,0.31,0.10,0.08,-0.01,966.71
2.896,-0.99,-0.02,-0.21,-0.18,-0.29,0.31,0.10,0.08,-0.01,966.71
2.897,-0.99,-0.02,-0.21,0.00,-0.25,0.46,0.10,0.08,-0.01,966.71
2.897,-0.99,-0.02,-0.21,0.00,-0.25,0.46,0.05,0.02,0.03,966.71
2.945,-0.99,-0.02,-0.21,0.00,-0.25,0.46,0.05,0.02,0.03,966.67
2.959,-0.99,-0.05,-0.17,0.00,-0.25,0.46,0.05,0.02,0.03,966.67
2.96,-0.99,-0.05,-0.17,0.00,-0.25,0.46,0.07,-0.09,-0.06,966.67
2.961,-0.99,-0.05,-0.17,-0.00,0.01,0.14,0.07,-0.09,-0.06,966.67
3.012,-0.99,-0.05,-0.17,-0.00,0.01,0.14,0.07,-0.09,-0.06,966.67
3.022,-0.93,-0.06,-0.16,-0.00,0.01,0.14,0.07,-0.09,-0.06,966.67
3.023,-0.93,-0.06,-0.16,-0.00,0.01,0.14,0.12,-0.12,-0.23,966.67
3.023,-0.93,-0.06,-0.16,-0.61,-0.03,0.08,0.12,-0.12,-0.23,966.67
3.08,-0.93,-0.06,-0.16,-0.61,-0.03,0.08,0.12,-0.12,-0.23,966.59
3.085,-0.98,-0.09,-0.15,-0.61,-0.03,0.08,0.12,-0.12,-0.23,966.59
3.086,-0.98,-0.09,-0.15,-0.61,-0.03,0.08,0.09,-0.15,-0.51,966.59
3.087,-0.98,-0.09,-0.15,-0.10,-0.14,0.08,0.09,-0.15,-0.51,966.59
3.146,-0.98,-0.09,-0.15,-0.10,-0.14,0.08,0.09,-0.15,-0.51,966.59
3.148,-1.02,-0.08,-0.17,-0.10,-0.14,0.08,0.09,-0.15,-0.51,966.59
3.149,-1.02,-0.08,-0.17,-0.10,-0.14,0.08,0.14,-0.02,-0.11,966.59
3.149,-1.02,-0.08,-0.17,0.29,-0.27,0.36,0.14,-0.02,-0.11,966.59
3.212,-1.00,-0.07,-0.19,0.29,-0.27,0.36,0.14,-0.02,-0.11,966.59
3.214,-1.00,-0.07,-0.19,0.05,-0.44,0.65,0.14,-0.02,-0.11,966.59
3.216,-1.00,-0.07,-0.19,0.05,-0.44,0.65,0.13,-0.28,-0.07,966.59
3.217,-1.00,-0.07,-0.19,0.05,-0.44,0.65,0.13,-0.28,-0.07,966.58
3.278,-0.98,-0.09,-0.07,0.05,-0.44,0.65,0.13,-0.28,-0.07,966.58
3.279,-0.98,-0.09,-0.07,-0.08,-0.29,-0.37,0.13,-0.28,-0.07,966.58
3.28,-0.98,-0.09,-0.07,-0.08,-0.29,-0.37,0.13,-0.11,0.03,966.58
3.281,-0.98,-0.09,-0.07,-0.08,-0.29,-0.37,0.13,-0.11,0.03,966.58
3.34,-0.98,-0.09,-0.07,1.07,-0.37,1.13,0.13,-0.11,0.03,966.58
3.342,-1.10,-0.05,-0.24,1.07,-0.37,1.13,0.13,-0.11,0.03,966.58
3.343,-1.10,-0.05,-0.24,1.07,-0.37,1.13,-0.15,0.17,0.42,966.58
3.345,-1.10,-0.05,-0.24,1.07,-0.37,1.13,-0.15,0.17,0.42,966.58
3.404,-0.99,-0.13,-0.06,1.07,-0.37,1.13,-0.15,0.17,0.42,966.58
3.405,-0.99,-0.13,-0.06,-0.01,0.70,-0.61,-0.15,0.17,0.42,966.58
3.405,-0.99,-0.13,-0.06,-0.01,0.70,-0.61,-0.22,-0.01,0.52,966.58
3.412,-0.99,-0.13,-0.06,-0.01,0.70,-0.61,-0.22,-0.01,0.52,966.66
3.468,-0.99,-0.13,-0.06,-0.60,1.12,-1.06,-0.22,-0.01,0.52,966.66
3.47,-0.93,-0.13,-0.04,-0.60,1.12,-1.06,-0.22,-0.01,0.52,966.66
3.47,-0.93,-0.13,-0.04,-0.60,1.12,-1.06,-0.05,0.54,0.63,966.66
3.479,-0.93,-0.13,-0.04,-0.60,1.12,-1.06,-0.05,0.54,0.63,966.66
3.528,-0.93,0.03,-0.18,-0.60,1.12,-1.06,-0.05,0.54,0.63,966.66
3.529,-0.93,0.03,-0.18,-0.60,1.12,-1.06,-0.09,1.11,0.59,966.66
3.53,-0.93,0.03,-0.18,-0.50,-0.06,-0.42,-0.09,1.11,0.59,966.66
3.546,-0.93,0.03,-0.18,-0.50,-0.06,-0.42,-0.09,1.11,0.59,966.79
3.592,-0.96,0.02,-0.33,-0.50,-0.06,-0.42,-0.09,1.11,0.59,966.79
3.593,-0.96,0.02,-0.33,-0.50,-0.06,-0.42,-0.05,0.66,0.39,966.79
3.594,-0.96,0.02,-0.33,-0.10,0.29,0.60,-0.05,0.66,0.39,966.79
3.612,-0.96,0.02,-0.33,-0.10,0.29,0.60,-0.05,0.66,0.39,966.79
3.655,-0.97,0.01,-0.32,-0.10,0.29,0.60,-0.05,0.66,0.39,966.79
3.657,-0.97,0.01,-0.32,-0.10,0.29,0.60,0.04,0.07,0.57,966.79
3.659,-0.97,0.01,-0.32,0.06,0.70,0.54,0.04,0.07,0.57,966.79
3.678,-0.97,0.01,-0.32,0.06,0.70,0.54,0.04,0.07,0.57,966.81
3.719,-0.93,0.13,-0.30,0.06,0.70,0.54,0.04,0.07,0.57,966.81
3.72,-0.93,0.13,-0.30,0.06,0.70,0.54,-0.02,0.03,0.63,966.81
3.721,-0.93,0.13,-0.30,-0.24,-0.08,0.32,-0.02,0.03,0.63,966.81
3.745,-0.93,0.13,-0.30,-0.24,-0.08,0.32,-0.02,0.03,0.63,966.81
3.783,-0.90,0.19,-0.27,-0.24,-0.08,0.32,-0.02,0.03,0.63,966.81
3.784,-0.90,0.19,-0.27,-0.24,-0.08,0.32,-0.02,-0.09,0.19,966.81
3.786,-0.90,0.19,-0.27,-0.52,-0.57,0.08,-0.02,-0.09,0.19,966.81
3.812,-0.90,0.19,-0.27,-0.52,-0.57,0.08,-0.02,-0.09,0.19,966.81
3.845,-0.87,0.17,-0.23,-0.52,-0.57,0.08,-0.02,-0.09,0.19,966.81
3.847,-0.87,0.17,-0.23,-0.52,-0.57,0.08,0.07,-0.17,-0.45,966.81
3.848,-0.87,0.17,-0.23,-0.94,-0.58,-0.30,0.07,-0.17,-0.45,966.81
3.878,-0.87,0.17,-0.23,-0.94,-0.58,-0.30,0.07,-0.17,-0.45,966.72
3.917,-1.04,-0.03,-0.29,-0.94,-0.58,-0.30,0.07,-0.17,-0.45,966.72
3.919,-1.04,-0.03,-0.29,-0.94,-0.58,-0.30,0.15,-0.26,-0.90,966.72
3.924,-1.04,-0.03,-0.29,0.62,0.77,0.44,0.15,-0.26,-0.90,966.72
3.946,-1.04,-0.03,-0.29,0.62,0.77,0.44,0.15,-0.26,-0.90,966.72
3.972,-0.94,0.08,-0.28,0.62,0.77,0.44,0.15,-0.26,-0.90,966.72
3.974,-0.94,0.08,-0.28,0.62,0.77,0.44,0.03,-0.58,-0.37,966.72
3.974,-0.94,0.08,-0.28,-0.38,-0.48,0.70,0.03,-0.58,-0.37,966.72
4.012,-0.94,0.08,-0.28,-0.38,-0.48,0.70,0.03,-0.58,-0.37,966.63
4.035,-0.88,-0.03,-0.29,-0.38,-0.48,0.70,0.03,-0.58,-0.37,966.63
4.036,-0.88,-0.03,-0.29,-0.38,-0.48,0.70,-0.10,-0.69,-0.33,966.63
4.036,-0.88,-0.03,-0.29,-1.04,0.33,1.24,-0.10,-0.69,-0.33,966.63
4.079,-0.88,-0.03,-0.29,-1.04,0.33,1.24,-0.10,-0.69,-0.33,966.63
4.098,-1.08,0.12,-0.61,-1.04,0.33,1.24,-0.10,-0.69,-0.33,966.63
4.099,-1.08,0.12,-0.61,-1.04,0.33,1.24,-0.50,-2.04,0.24,966.63
4.099,-1.08,0.12,-0.61,0.76,-0.94,5.43,-0.50,-2.04,0.24,966.63
4.145,-1.08,0.12,-0.61,0.76,-0.94,5.43,-0.50,-2.04,0.24,966.64
4.17,-0.50,-0.33,-0.01,0.76,-0.94,5.43,-0.50,-2.04,0.24,966.64
4.172,-0.50,-0.33,-0.01,0.76,-0.94,5.43,-1.38,-2.25,-0.92,966.64
4.173,-0.50,-0.33,-0.01,-4.91,2.87,1.10,-1.38,-2.25,-0.92,966.64
4.212,-0.50,-0.33,-0.01,-4.91,2.87,1.10,-1.38,-2.25,-0.92,966.64
4.225,-0.51,-0.31,0.04,-4.91,2.87,1.10,-1.38,-2.25,-0.92,966.64
4.225,-0.51,-0.31,0.04,-4.91,2.87,1.10,-1.35,1.33,-1.54,966.64
4.225,-0.51,-0.31,0.04,-4.81,1.70,-0.20,-1.35,1.33,-1.54,966.64
4.279,-0.51,-0.31,0.04,-4.81,1.70,-0.20,-1.35,1.33,-1.54,966.68
4.288,-0.70,-0.34,-0.01,-4.81,1.70,-0.20,-1.35,1.33,-1.54,966.68
4.289,-0.70,-0.34,-0.01,-4.81,1.70,-0.20,-1.05,1.09,-2.44,966.68
4.29,-0.70,-0.34,-0.01,-2.59,0.57,-0.49,-1.05,1.09,-2.44,966.68
4.346,-0.70,-0.34,-0.01,-2.59,0.57,-0.49,-1.05,1.09,-2.44,966.68
4.351,-0.93,-0.52,0.09,-2.59,0.57,-0.49,-1.05,1.09,-2.44,966.68
4.351,-0.93,-0.52,0.09,-2.59,0.57,-0.49,-0.61,0.66,-2.84,966.68
4.352,-0.93,-0.52,0.09,0.38,0.74,-1.99,-0.61,0.66,-2.84,966.68
4.412,-0.93,-0.52,0.09,0.38,0.74,-1.99,-0.61,0.66,-2.84,966.68
4.415,-1.09,-0.72,0.15,0.38,0.74,-1.99,-0.61,0.66,-2.84,966.68
4.416,-1.09,-0.72,0.15,0.38,0.74,-1.99,0.09,0.22,-2.60,966.68
4.417,-1.09,-0.72,0.15,2.73,1.27,-2.67,0.09,0.22,-2.60,966.68
4.479,-1.07,-0.65,-0.03,2.73,1.27,-2.67,0.09,0.22,-2.60,966.68
4.48,-1.07,-0.65,-0.03,2.73,1.27,-2.67,0.61,0.58,-1.82,966.68
4.48,-1.07,-0.65,-0.03,3.29,-0.35,-0.92,0.61,0.58,-1.82,966.68
4.481,-1.07,-0.65,-0.03,3.29,-0.35,-0.92,0.61,0.58,-1.82,966.62
4.543,-1.25,-0.71,-0.22,3.29,-0.35,-0.92,0.61,0.58,-1.82,966.62
4.544,-1.25,-0.71,-0.22,3.29,-0.35,-0.92,0.91,0.28,-1.01,966.62
4.545,-1.25,-0.71,-0.22,5.59,-0.26,1.11,0.91,0.28,-1.01,966.62
4.546,-1.25,-0.71,-0.22,5.59,-0.26,1.11,0.91,0.28,-1.01,966.62
4.606,-1.25,-0.71,-0.22,2.03,-2.59,2.12,0.91,0.28,-1.01,966.62
4.608,-0.87,-0.50,-0.24,2.03,-2.59,2.12,0.91,0.28,-1.01,966.62
4.609,-0.87,-0.50,-0.24,2.03,-2.59,2.12,0.74,-1.01,-0.53,966.62
4.612,-0.87,-0.50,-0.24,2.03,-2.59,2.12,0.74,-1.01,-0.53,966.50
4.668,-0.61,-0.60,-0.13,2.03,-2.59,2.12,0.74,-1.01,-0.53,966.50
4.67,-0.61,-0.60,-0.13,2.03,-2.59,2.12,-0.18,-1.16,-0.62,966.50
4.671,-0.61,-0.60,-0.13,-0.16,-1.83,1.39,-0.18,-1.16,-0.62,966.50
4.678,-0.61,-0.60,-0.13,-0.16,-1.83,1.39,-0.18,-1.16,-0.62,966.50
4.732,-0.42,-0.91,0.26,-0.16,-1.83,1.39,-0.18,-1.16,-0.62,966.50
4.734,-0.42,-0.91,0.26,-0.16,-1.83,1.39,-0.32,-0.26,-0.68,966.50
4.734,-0.42,-0.91,0.26,-1.74,0.98,-2.38,-0.32,-0.26,-0.68,966.50
4.745,-0.42,-0.91,0.26,-1.74,0.98,-2.38,-0.32,-0.26,-0.68,966.45
4.795,-0.59,-1.22,0.11,-1.74,0.98,-2.38,-0.32,-0.26,-0.68,966.45
4.797,-0.59,-1.22,0.11,-1.74,0.98,-2.38,-0.19,0.59,-0.21,966.45
4.797,-0.59,-1.22,0.11,0.04,3.92,-1.29,-0.19,0.59,-0.21,966.45
4.812,-0.59,-1.22,0.11,0.04,3.92,-1.29,-0.19,0.59,-0.21,966.45
4.859,-0.54,-0.79,-0.22,0.04,3.92,-1.29,-0.19,0.59,-0.21,966.45
4.86,-0.54,-0.79,-0.22,0.04,3.92,-1.29,-0.06,0.57,-0.56,966.45
4.861,-0.54,-0.79,-0.22,-0.11,-0.47,1.79,-0.06,0.57,-0.56,966.45
4.878,-0.54,-0.79,-0.22,-0.11,-0.47,1.79,-0.06,0.57,-0.56,966.45
4.922,-0.68,-0.93,-0.07,-0.11,-0.47,1.79,-0.06,0.57,-0.56,966.45
4.924,-0.68,-0.93,-0.07,-0.11,-0.47,1.79,-0.03,0.36,-0.57,966.45
4.925,-0.68,-0.93,-0.07,1.59,0.70,0.09,-0.03,0.36,-0.57,966.45
4.946,-0.68,-0.93,-0.07,1.59,0.70,0.09,-0.03,0.36,-0.57,966.35
4.985,-0.49,-0.80,-0.07,1.59,0.70,0.09,-0.03,0.36,-0.57,966.35
4.987,-0.49,-0.80,-0.07,1.59,0.70,0.09,-0.21,0.18,-0.38,966.35
4.988,-0.49,-0.80,-0.07,-0.09,-0.75,-0.04,-0.21,0.18,-0.38,966.35
5.012,-0.49,-0.80,-0.07,-0.09,-0.75,-0.04,-0.21,0.18,-0.38,966.35
5.049,-0.43,-0.91,-0.10,-0.09,-0.75,-0.04,-0.21,0.18,-0.38,966.35
5.05,-0.43,-0.91,-0.10,-0.09,-0.75,-0.04,-0.17,0.29,-0.21,966.35
5.051,-0.43,-0.91,-0.10,-0.50,0.29,0.11,-0.17,0.29,-0.21,966.35
5.079,-0.43,-0.91,-0.10,-0.50,0.29,0.11,-0.17,0.29,-0.21,966.25
5.112,-0.50,-0.86,-0.08,-0.50,0.29,0.11,-0.17,0.29,-0.21,966.25
5.113,-0.50,-0.86,-0.08,-0.50,0.29,0.11,-0.22,0.38,0.03,966.25
5.114,-0.50,-0.86,-0.08,0.17,-0.16,-0.39,-0.22,0.38,0.03,966.25
5.155,-0.50,-0.86,-0.08,0.17,-0.16,-0.39,-0.22,0.38,0.03,966.25
5.176,-0.52,-0.95,-0.21,0.17,-0.16,-0.39,-0.22,0.38,0.03,966.25
5.177,-0.52,-0.95,-0.21,0.17,-0.16,-0.39,-0.21,0.18,-0.03,966.25
5.177,-0.52,-0.95,-0.21,0.37,0.71,0.78,-0.21,0.18,-0.03,966.25
5.212,-0.52,-0.95,-0.21,0.37,0.71,0.78,-0.21,0.18,-0.03,966.22
5.239,-0.49,-0.85,-0.16,0.37,0.71,0.78,-0.21,0.18,-0.03,966.22
5.24,-0.49,-0.85,-0.16,0.37,0.71,0.78,-0.17,0.19,-0.36,966.22
5.241,-0.49,-0.85,-0.16,0.31,-0.33,0.11,-0.17,0.19,-0.36,966.22
5.291,-0.49,-0.85,-0.16,0.31,-0.33,0.11,-0.17,0.19,-0.36,966.22
5.312,-0.39,-0.92,-0.20,0.31,-0.33,0.11,-0.17,0.19,-0.36,966.22
5.313,-0.39,-0.92,-0.20,0.31,-0.33,0.11,0.17,0.05,-0.22,966.22
5.314,-0.39,-0.92,-0.20,-0.54,0.24,0.58,0.17,0.05,-0.22,966.22
5.346,-0.39,-0.92,-0.20,-0.54,0.24,0.58,0.17,0.05,-0.22,966.29
5.365,-0.37,-0.92,-0.11,-0.54,0.24,0.58,0.17,0.05,-0.22,966.29
5.366,-0.37,-0.92,-0.11,-0.54,0.24,0.58,0.14,-0.07,0.70,966.29
5.367,-0.37,-0.92,-0.11,-1.10,0.39,-0.23,0.14,-0.07,0.70,966.29
5.424,-0.37,-0.92,-0.11,-1.10,0.39,-0.23,0.14,-0.07,0.70,966.29
5.451,-0.55,-0.84,-0.17,-1.10,0.39,-0.23,0.14,-0.07,0.70,966.29
5.452,-0.55,-0.84,-0.17,-1.10,0.39,-0.23,-0.04,-0.21,1.08,966.29
5.453,-0.55,-0.84,-0.17,0.10,0.03,0.39,-0.04,-0.21,1.08,966.29
5.479,-0.55,-0.84,-0.17,0.10,0.03,0.39,-0.04,-0.21,1.08,966.29
5.491,-0.64,-0.81,-0.19,0.10,0.03,0.39,-0.04,-0.21,1.08,966.29
5.492,-0.64,-0.81,-0.19,0.10,0.03,0.39,0.11,-0.05,0.16,966.29
5.493,-0.64,-0.81,-0.19,0.84,-0.23,0.65,0.11,-0.05,0.16,966.29
5.556,-0.64,-0.81,-0.19,0.84,-0.23,0.65,0.11,-0.05,0.16,966.34
5.558,-0.50,-0.76,-0.12,0.84,-0.23,0.65,0.11,-0.05,0.16,966.34
5.564,-0.50,-0.76,-0.12,0.84,-0.23,0.65,0.24,0.15,-0.86,966.34
5.565,-0.50,-0.76,-0.12,-0.14,-0.96,0.02,0.24,0.15,-0.86,966.34
5.612,-0.50,-0.76,-0.12,-0.14,-0.96,0.02,0.24,0.15,-0.86,966.34
5.618,-0.44,-0.89,-0.10,-0.14,-0.96,0.02,0.24,0.15,-0.86,966.34
5.619,-0.44,-0.89,-0.10,-0.14,-0.96,0.02,0.07,0.39,-0.99,966.34
5.62,-0.44,-0.89,-0.10,-0.16,-0.01,-0.17,0.07,0.39,-0.99,966.34
5.679,-0.44,-0.89,-0.10,-0.16,-0.01,-0.17,0.07,0.39,-0.99,966.42
5.683,-0.41,-0.93,-0.13,-0.16,-0.01,-0.17,0.07,0.39,-0.99,966.42
5.684,-0.41,-0.93,-0.13,-0.16,-0.01,-0.17,-0.31,0.16,-0.23,966.42
5.685,-0.41,-0.93,-0.13,-0.24,0.30,-0.09,-0.31,0.16,-0.23,966.42
5.745,-0.33,-0.95,-0.22,-0.24,0.30,-0.09,-0.31,0.16,-0.23,966.42
5.747,-0.33,-0.95,-0.22,-0.24,0.30,-0.09,-0.35,-0.04,1.00,966.42
5.748,-0.33,-0.95,-0.22,-0.24,0.30,-0.09,-0.35,-0.04,1.00,966.42
5.749,-0.33,-0.95,-0.22,-1.50,0.81,0.56,-0.35,-0.04,1.00,966.42
5.81,-0.53,-0.82,-0.20,-1.50,0.81,0.56,-0.35,-0.04,1.00,966.42
5.811,-0.53,-0.82,-0.20,-1.50,0.81,0.56,-0.28,0.55,1.32,966.42
5.812,-0.53,-0.82,-0.20,-0.21,0.02,0.13,-0.28,0.55,1.32,966.42
5.814,-0.53,-0.82,-0.20,-0.21,0.02,0.13,-0.28,0.55,1.32,966.35
5.872,-0.75,-0.76,-0.14,-0.21,0.02,0.13,-0.28,0.55,1.32,966.35
5.874,-0.75,-0.76,-0.14,-0.21,0.02,0.13,-0.31,-0.28,0.56,966.35
5.875,-0.75,-0.76,-0.14,1.64,-0.36,-0.60,-0.31,-0.28,0.56,966.35
5.88,-0.75,-0.76,-0.14,1.64,-0.36,-0.60,-0.31,-0.28,0.56,966.35
5.935,-0.76,-0.86,-0.34,1.64,-0.36,-0.60,-0.31,-0.28,0.56,966.35
5.937,-0.76,-0.86,-0.34,1.64,-0.36,-0.60,-0.18,0.23,-0.47,966.35
5.938,-0.76,-0.86,-0.34,1.90,0.55,1.22,-0.18,0.23,-0.47,966.35
5.948,-0.76,-0.86,-0.34,1.90,0.55,1.22,-0.18,0.23,-0.47,966.35
5.999,-0.42,-0.80,-0.20,1.90,0.55,1.22,-0.18,0.23,-0.47,966.35
6.001,-0.42,-0.80,-0.20,1.90,0.55,1.22,0.18,-0.32,-0.65,966.35
6.002,-0.42,-0.80,-0.20,-1.11,-0.32,-0.03,0.18,-0.32,-0.65,966.35
6.015,-0.42,-0.80,-0.20,-1.11,-0.32,-0.03,0.18,-0.32,-0.65,966.31
6.062,-0.34,-0.67,-0.12,-1.11,-0.32,-0.03,0.18,-0.32,-0.65,966.31
6.063,-0.34,-0.67,-0.12,-1.11,-0.32,-0.03,0.21,-0.65,0.12,966.31
6.064,-0.34,-0.67,-0.12,-1.91,-1.60,-0.46,0.21,-0.65,0.12,966.31
6.079,-0.34,-0.67,-0.12,-1.91,-1.60,-0.46,0.21,-0.65,0.12,966.31
6.126,-0.42,-1.04,-0.23,-1.91,-1.60,-0.46,0.21,-0.65,0.12,966.31
6.127,-0.42,-1.04,-0.23,-1.91,-1.60,-0.46,0.40,-0.46,1.53,966.31
6.128,-0.42,-1.04,-0.23,-1.94,2.52,1.02,0.40,-0.46,1.53,966.31
6.146,-0.42,-1.04,-0.23,-1.94,2.52,1.02,0.40,-0.46,1.53,966.47
6.196,-0.87,-1.22,0.04,-1.94,2.52,1.02,0.40,-0.46,1.53,966.47
6.197,-0.87,-1.22,0.04,-1.94,2.52,1.02,0.24,-0.56,1.02,966.47
6.198,-0.87,-1.22,0.04,1.92,4.67,-1.29,0.24,-0.56,1.02,966.47
6.213,-0.87,-1.22,0.04,1.92,4.67,-1.29,0.24,-0.56,1.02,966.47
6.252,-1.38,-1.51,0.11,1.92,4.67,-1.29,0.24,-0.56,1.02,966.47
6.253,-1.38,-1.51,0.11,1.92,4.67,-1.29,-0.13,1.14,1.30,966.47
6.254,-1.38,-1.51,0.11,6.43,8.06,-2.53,-0.13,1.14,1.30,966.47
6.279,-1.38,-1.51,0.11,6.43,8.06,-2.53,-0.13,1.14,1.30,966.84
6.328,-0.77,-0.82,-0.05,6.43,8.06,-2.53,-0.13,1.14,1.30,966.84
6.33,-0.77,-0.82,-0.05,6.43,8.06,-2.53,1.33,0.73,1.30,966.84
6.331,-0.77,-0.82,-0.05,-0.02,1.75,-0.79,1.33,0.73,1.30,966.84
6.35,-0.77,-0.82,-0.05,-0.02,1.75,-0.79,1.33,0.73,1.30,966.84
6.378,-0.09,-0.23,-0.19,-0.02,1.75,-0.79,1.33,0.73,1.30,966.84
6.38,-0.09,-0.23,-0.19,-0.02,1.75,-0.79,2.13,0.45,0.46,966.84
6.381,-0.09,-0.23,-0.19,-6.84,-3.93,1.16,2.13,0.45,0.46,966.84
6.413,-0.09,-0.23,-0.19,-6.84,-3.93,1.16,2.13,0.45,0.46,966.84
6.442,-0.08,-0.01,-0.49,-6.84,-3.93,1.16,2.13,0.45,0.46,966.84
6.444,-0.08,-0.01,-0.49,-6.84,-3.93,1.16,0.95,-0.92,0.31,966.84
6.444,-0.08,-0.01,-0.49,-6.99,-5.96,4.75,0.95,-0.92,0.31,966.84
6.48,-0.08,-0.01,-0.49,-6.99,-5.96,4.75,0.95,-0.92,0.31,966.66
6.506,0.01,-0.22,-0.00,-6.99,-5.96,4.75,0.95,-0.92,0.31,966.66
6.506,0.01,-0.22,-0.00,-6.99,-5.96,4.75,-0.85,-3.53,0.54,966.66
6.507,0.01,-0.22,-0.00,-7.86,-3.68,1.52,-0.85,-3.53,0.54,966.66
6.546,0.01,-0.22,-0.00,-7.86,-3.68,1.52,-0.85,-3.53,0.54,966.66
6.568,-1.56,-1.32,0.52,-7.86,-3.68,1.52,-0.85,-3.53,0.54,966.66
6.57,-1.56,-1.32,0.52,-7.86,-3.68,1.52,-2.26,0.26,-0.15,966.66
6.57,-1.56,-1.32,0.52,7.50,6.88,-4.48,-2.26,0.26,-0.15,966.66
6.613,-1.56,-1.32,0.52,7.50,6.88,-4.48,-2.26,0.26,-0.15,966.67
6.636,-1.47,-1.39,-0.23,7.50,6.88,-4.48,-2.26,0.26,-0.15,966.67
6.637,-1.47,-1.39,-0.23,7.50,6.88,-4.48,-0.90,-2.50,0.33,966.67
6.637,-1.47,-1.39,-0.23,6.63,7.60,3.53,-0.90,-2.50,0.33,966.67
6.679,-1.47,-1.39,-0.23,6.63,7.60,3.53,-0.90,-2.50,0.33,966.67
6.695,-0.62,0.01,0.12,6.63,7.60,3.53,-0.90,-2.50,0.33,966.67
6.697,-0.62,0.01,0.12,6.63,7.60,3.53,-0.25,-2.82,0.77,966.67
6.698,-0.62,0.01,0.12,-1.64,-5.76,1.44,-0.25,-2.82,0.77,966.67
6.746,-0.62,0.01,0.12,-1.64,-5.76,1.44,-0.25,-2.82,0.77,966.73
6.758,-0.65,0.05,0.46,-1.64,-5.76,1.44,-0.25,-2.82,0.77,966.73
6.759,-0.65,0.05,0.46,-1.64,-5.76,1.44,-0.33,-1.35,0.56,966.73
6.76,-0.65,0.05,0.46,-1.24,-5.90,-1.31,-0.33,-1.35,0.56,966.73
6.813,-0.65,0.05,0.46,-1.24,-5.90,-1.31,-0.33,-1.35,0.56,966.73
6.821,-0.74,0.23,0.34,-1.24,-5.90,-1.31,-0.33,-1.35,0.56,966.73
6.823,-0.74,0.23,0.34,-1.24,-5.90,-1.31,1.20,-0.65,1.06,966.73
6.824,-0.74,0.23,0.34,-0.59,-6.93,0.58,1.20,-0.65,1.06,966.73
6.879,-0.74,0.23,0.34,-0.59,-6.93,0.58,1.20,-0.65,1.06,966.64
6.885,-0.37,0.39,0.32,-0.59,-6.93,0.58,1.20,-0.65,1.06,966.64
6.885,-0.37,0.39,0.32,-0.59,-6.93,0.58,2.34,0.76,1.13,966.64
6.886,-0.37,0.39,0.32,-4.68,-7.27,1.07,2.34,0.76,1.13,966.64
6.946,-0.37,0.39,0.32,-4.68,-7.27,1.07,2.34,0.76,1.13,966.64
6.948,-2.13,-0.35,1.38,-4.68,-7.27,1.07,2.34,0.76,1.13,966.64
6.949,-2.13,-0.35,1.38,-4.68,-7.27,1.07,1.43,1.31,0.30,966.64
6.963,-2.13,-0.35,1.38,12.13,0.58,-9.83,1.43,1.31,0.30,966.64
7.011,-1.52,-1.36,1.10,12.13,0.58,-9.83,1.43,1.31,0.30,966.64
7.012,-1.52,-1.36,1.10,12.13,0.58,-9.83,2.41,-0.36,1.19,966.64
7.012,-1.52,-1.36,1.10,6.12,11.62,-6.50,2.41,-0.36,1.19,966.64
7.013,-1.52,-1.36,1.10,6.12,11.62,-6.50,2.41,-0.36,1.19,966.64
7.075,-0.25,-0.62,0.07,6.12,11.62,-6.50,2.41,-0.36,1.19,966.64
7.076,-0.25,-0.62,0.07,6.12,11.62,-6.50,3.11,1.70,0.57,966.64
7.077,-0.25,-0.62,0.07,-6.76,5.53,2.84,3.11,1.70,0.57,966.64
7.079,-0.25,-0.62,0.07,-6.76,5.53,2.84,3.11,1.70,0.57,966.75
7.138,0.14,-0.20,-0.22,-6.76,5.53,2.84,3.11,1.70,0.57,966.75
7.139,0.14,-0.20,-0.22,-6.76,5.53,2.84,1.42,0.74,-0.48,966.75
7.14,0.14,-0.20,-0.22,-10.75,1.40,5.22,1.42,0.74,-0.48,966.75
7.145,0.14,-0.20,-0.22,-10.75,1.40,5.22,1.42,0.74,-0.48,966.75
7.202,0.07,-0.20,-0.17,-10.75,1.40,5.22,1.42,0.74,-0.48,966.75
7.203,0.07,-0.20,-0.17,-10.75,1.40,5.22,-0.75,0.01,-0.92,966.75
7.205,0.07,-0.20,-0.17,-10.02,0.75,4.62,-0.75,0.01,-0.92,966.75
7.213,0.07,-0.20,-0.17,-10.02,0.75,4.62,-0.75,0.01,-0.92,966.76
7.265,-0.47,-0.42,0.07,-10.02,0.75,4.62,-0.75,0.01,-0.92,966.76
7.266,-0.47,-0.42,0.07,-10.02,0.75,4.62,-2.11,-0.41,-0.79,966.76
7.267,-0.47,-0.42,0.07,-4.54,2.08,2.28,-2.11,-0.41,-0.79,966.76
7.279,-0.47,-0.42,0.07,-4.54,2.08,2.28,-2.11,-0.41,-0.79,966.76
7.328,-2.43,-1.77,0.92,-4.54,2.08,2.28,-2.11,-0.41,-0.79,966.76
7.329,-2.43,-1.77,0.92,-4.54,2.08,2.28,-2.54,-2.64,-1.43,966.76
7.33,-2.43,-1.77,0.92,15.38,13.85,-5.17,-2.54,-2.64,-1.43,966.76
7.346,-2.43,-1.77,0.92,15.38,13.85,-5.17,-2.54,-2.64,-1.43,966.97
7.392,-1.11,-0.52,0.72,15.38,13.85,-5.17,-2.54,-2.64,-1.43,966.97
7.393,-1.11,-0.52,0.72,15.38,13.85,-5.17,-1.03,0.88,0.48,966.97
7.394,-1.11,-0.52,0.72,2.26,1.63,-3.60,-1.03,0.88,0.48,966.97
7.412,-1.11,-0.52,0.72,2.26,1.63,-3.60,-1.03,0.88,0.48,966.97
7.456,-1.04,0.38,-0.02,2.26,1.63,-3.60,-1.03,0.88,0.48,966.97
7.458,-1.04,0.38,-0.02,1.38,-7.44,2.69,-1.03,0.88,0.48,966.97
7.459,-1.04,0.38,-0.02,1.38,-7.44,2.69,-2.19,0.44,0.04,966.97
7.48,-1.04,0.38,-0.02,1.38,-7.44,2.69,-2.19,0.44,0.04,966.97
7.518,-0.61,0.21,0.41,1.38,-7.44,2.69,-2.19,0.44,0.04,966.97
7.519,-0.61,0.21,0.41,1.38,-7.44,2.69,-2.29,-2.71,0.40,966.97
7.52,-0.61,0.21,0.41,-2.37,-6.06,-0.62,-2.29,-2.71,0.40,966.97
7.546,-0.61,0.21,0.41,-2.37,-6.06,-0.62,-2.29,-2.71,0.40,966.97
7.582,-0.56,0.36,0.74,-2.37,-6.06,-0.62,-2.29,-2.71,0.40,966.97
7.583,-0.56,0.36,0.74,-2.37,-6.06,-0.62,-0.34,-0.69,0.90,966.97
7.584,-0.56,0.36,0.74,-2.94,-7.15,-3.57,-0.34,-0.69,0.90,966.97
7.613,-0.56,0.36,0.74,-2.94,-7.15,-3.57,-0.34,-0.69,0.90,966.97
7.645,-0.31,0.46,0.50,-2.94,-7.15,-3.57,-0.34,-0.69,0.90,966.97
7.646,-0.31,0.46,0.50,-2.94,-7.15,-3.57,2.08,0.15,0.60,966.97
7.647,-0.31,0.46,0.50,-5.54,-7.27,-0.84,2.08,0.15,0.60,966.97
7.68,-0.31,0.46,0.50,-5.54,-7.27,-0.84,2.08,0.15,0.60,966.96
7.708,-2.17,-0.16,1.60,-5.54,-7.27,-0.84,2.08,0.15,0.60,966.96
7.71,-2.17,-0.16,1.60,-5.54,-7.27,-0.84,2.45,0.58,-0.22,966.96
7.711,-2.17,-0.16,1.60,12.55,-0.69,-11.58,2.45,0.58,-0.22,966.96
7.749,-2.17,-0.16,1.60,12.55,-0.69,-11.58,2.45,0.58,-0.22,966.96
7.772,-1.75,-1.33,1.48,12.55,-0.69,-11.58,2.45,0.58,-0.22,966.96
7.773,-1.75,-1.33,1.48,12.55,-0.69,-11.58,3.61,0.73,1.12,966.96
7.773,-1.75,-1.33,1.48,8.21,12.27,-10.33,3.61,0.73,1.12,966.96
7.812,-1.75,-1.33,1.48,8.21,12.27,-10.33,3.61,0.73,1.12,966.92
7.834,-0.37,-0.69,-0.06,8.21,12.27,-10.33,3.61,0.73,1.12,966.92
7.835,-0.37,-0.69,-0.06,8.21,12.27,-10.33,3.84,2.16,0.78,966.92
7.835,-0.37,-0.69,-0.06,-5.78,7.30,3.42,3.84,2.16,0.78,966.92
7.88,-0.37,-0.69,-0.06,-5.78,7.30,3.42,3.84,2.16,0.78,966.92
7.898,0.23,-0.22,-0.37,-5.78,7.30,3.42,3.84,2.16,0.78,966.92
7.9,0.23,-0.22,-0.37,-5.78,7.30,3.42,2.00,0.30,-0.92,966.92
7.901,0.23,-0.22,-0.37,-11.76,2.58,6.07,2.00,0.30,-0.92,966.92
7.949,0.23,-0.22,-0.37,-11.76,2.58,6.07,2.00,0.30,-0.92,966.92
7.969,0.24,-0.16,-0.26,-11.76,2.58,6.07,2.00,0.30,-0.92,966.92
7.971,0.24,-0.16,-0.26,-11.76,2.58,6.07,-0.59,0.45,-1.60,966.92
7.971,0.24,-0.16,-0.26,-11.97,0.93,4.66,-0.59,0.45,-1.60,966.92
8.013,0.24,-0.16,-0.26,-11.97,0.93,4.66,-0.59,0.45,-1.60,966.83
8.025,-0.27,-0.43,-0.14,-11.97,0.93,4.66,-0.59,0.45,-1.60,966.83
8.027,-0.27,-0.43,-0.14,-11.97,0.93,4.66,-2.52,-0.02,-1.34,966.83
8.027,-0.27,-0.43,-0.14,-6.84,2.48,3.27,-2.52,-0.02,-1.34,966.83
8.08,-0.27,-0.43,-0.14,-6.84,2.48,3.27,-2.52,-0.02,-1.34,966.83
8.088,-2.80,-1.70,0.74,-6.84,2.48,3.27,-2.52,-0.02,-1.34,966.83
8.089,-2.80,-1.70,0.74,-6.84,2.48,3.27,-3.38,-2.25,-1.82,966.83
8.089,-2.80,-1.70,0.74,18.45,13.37,-4.76,-3.38,-2.25,-1.82,966.83
8.147,-2.80,-1.70,0.74,18.45,13.37,-4.76,-3.38,-2.25,-1.82,967.02
8.151,-1.27,-0.78,0.71,18.45,13.37,-4.76,-3.38,-2.25,-1.82,967.02
8.152,-1.27,-0.78,0.71,18.45,13.37,-4.76,-1.31,-1.41,0.09,967.02
8.154,-1.27,-0.78,0.71,3.86,4.03,-3.67,-1.31,-1.41,0.09,967.02
8.213,-1.27,-0.78,0.71,3.86,4.03,-3.67,-1.31,-1.41,0.09,967.02
8.214,-0.97,0.41,0.15,3.86,4.03,-3.67,-1.31,-1.41,0.09,967.02
8.215,-0.97,0.41,0.15,3.86,4.03,-3.67,-1.78,1.79,0.26,967.02
8.215,-0.97,0.41,0.15,0.54,-7.63,0.35,-1.78,1.79,0.26,967.02
8.278,-0.66,0.31,0.15,0.54,-7.63,0.35,-1.78,1.79,0.26,967.02
8.28,-0.66,0.31,0.15,0.54,-7.63,0.35,-2.10,-2.76,0.14,967.02
8.28,-0.66,0.31,0.15,-2.21,-6.87,1.29,-2.10,-2.76,0.14,967.02
8.281,-0.66,0.31,0.15,-2.21,-6.87,1.29,-2.10,-2.76,0.14,966.96
8.342,-0.41,0.47,0.71,-2.21,-6.87,1.29,-2.10,-2.76,0.14,966.96
8.343,-0.41,0.47,0.71,-2.21,-6.87,1.29,-0.20,-1.07,0.54,966.96
8.343,-0.41,0.47,0.71,-4.57,-8.18,-3.64,-0.20,-1.07,0.54,966.96
8.346,-0.41,0.47,0.71,-4.57,-8.18,-3.64,-0.20,-1.07,0.54,966.96
8.405,-0.35,0.47,0.43,-4.57,-8.18,-3.64,-0.20,-1.07,0.54,966.96
8.407,-0.35,0.47,0.43,-4.57,-8.18,-3.64,2.44,0.64,0.29,966.96
8.408,-0.35,0.47,0.43,-5.38,-7.48,-0.71,2.44,0.64,0.29,966.96
8.413,-0.35,0.47,0.43,-5.38,-7.48,-0.71,2.44,0.64,0.29,966.87
8.468,-2.11,0.02,1.31,-5.38,-7.48,-0.71,2.44,0.64,0.29,966.87
8.47,-2.11,0.02,1.31,-5.38,-7.48,-0.71,2.73,1.17,-0.29,966.87
8.47,-2.11,0.02,1.31,11.62,-2.54,-9.55,2.73,1.17,-0.29,966.87
8.479,-2.11,0.02,1.31,11.62,-2.54,-9.55,2.73,1.17,-0.29,966.87
8.532,-2.23,-1.52,1.41,11.62,-2.54,-9.55,2.73,1.17,-0.29,966.87
8.533,-2.23,-1.52,1.41,11.62,-2.54,-9.55,2.94,0.43,1.39,966.87
8.534,-2.23,-1.52,1.41,12.67,13.80,-10.34,2.94,0.43,1.39,966.87
8.547,-2.23,-1.52,1.41,12.67,13.80,-10.34,2.94,0.43,1.39,966.87
8.595,-0.41,-0.80,0.15,12.67,13.80,-10.34,2.94,0.43,1.39,966.87
8.596,-0.41,-0.80,0.15,12.67,13.80,-10.34,3.11,2.56,1.67,966.87
8.597,-0.41,-0.80,0.15,-5.61,8.31,0.49,3.11,2.56,1.67,966.87
8.613,-0.41,-0.80,0.15,-5.61,8.31,0.49,3.11,2.56,1.67,966.82
8.658,0.27,-0.42,-0.41,-5.61,8.31,0.49,3.11,2.56,1.67,966.82
8.66,0.27,-0.42,-0.41,-5.61,8.31,0.49,2.23,0.68,-0.73,966.82
8.661,0.27,-0.42,-0.41,-12.42,4.41,5.31,2.23,0.68,-0.73,966.82
8.68,0.27,-0.42,-0.41,-12.42,4.41,5.31,2.23,0.68,-0.73,966.82
8.722,0.38,-0.06,-0.37,-12.42,4.41,5.31,2.23,0.68,-0.73,966.82
8.723,0.38,-0.06,-0.37,-12.42,4.41,5.31,-0.19,0.34,-1.83,966.82
8.724,0.38,-0.06,-0.37,-13.48,-0.21,4.70,-0.19,0.34,-1.83,966.82
8.746,0.38,-0.06,-0.37,-13.48,-0.21,4.70,-0.19,0.34,-1.83,966.70
8.784,0.00,-0.22,-0.25,-13.48,-0.21,4.70,-0.19,0.34,-1.83,966.70
8.785,0.00,-0.22,-0.25,-13.48,-0.21,4.70,-2.41,0.16,-1.73,966.70
8.785,0.00,-0.22,-0.25,-9.65,0.12,3.20,-2.41,0.16,-1.73,966.70
8.813,0.00,-0.22,-0.25,-9.65,0.12,3.20,-2.41,0.16,-1.73,966.70
8.848,-3.27,-1.85,0.54,-9.65,0.12,3.20,-2.41,0.16,-1.73,966.70
8.849,-3.27,-1.85,0.54,-9.65,0.12,3.20,-3.56,-1.41,-1.71,966.70
8.85,-3.27,-1.85,0.54,22.70,14.95,-4.49,-3.56,-1.41,-1.71,966.70
8.88,-3.27,-1.85,0.54,22.70,14.95,-4.49,-3.56,-1.41,-1.71,966.87
8.912,-1.37,-0.90,0.49,22.70,14.95,-4.49,-3.56,-1.41,-1.71,966.87
8.913,-1.37,-0.90,0.49,22.70,14.95,-4.49,-1.11,-2.36,0.35,966.87
8.913,-1.37,-0.90,0.49,4.37,5.61,-2.57,-1.11,-2.36,0.35,966.87
8.946,-1.37,-0.90,0.49,4.37,5.61,-2.57,-1.11,-2.36,0.35,966.87
8.975,-0.79,0.54,0.01,4.37,5.61,-2.57,-1.11,-2.36,0.35,966.87
8.976,-0.79,0.54,0.01,4.37,5.61,-2.57,-1.56,2.09,0.18,966.87
8.976,-0.79,0.54,0.01,-1.65,-8.44,0.54,-1.56,2.09,0.18,966.87
9.013,-0.79,0.54,0.01,-1.65,-8.44,0.54,-1.56,2.09,0.18,966.87
9.038,-0.84,0.41,0.00,-1.65,-8.44,0.54,-1.56,2.09,0.18,966.87
9.039,-0.84,0.41,0.00,-1.65,-8.44,0.54,-2.37,-3.17,-0.43,966.87
9.04,-0.84,0.41,0.00,-0.88,-7.56,1.74,-2.37,-3.17,-0.43,966.87
9.084,-0.84,0.41,0.00,-0.88,-7.56,1.74,-2.37,-3.17,-0.43,966.80
9.106,-0.48,0.27,0.69,-0.88,-7.56,1.74,-2.37,-3.17,-0.43,966.80
9.107,-0.48,0.27,0.69,-0.88,-7.56,1.74,-0.67,-1.08,0.66,966.80
9.107,-0.48,0.27,0.69,-4.32,-5.90,-4.37,-0.67,-1.08,0.66,966.80
9.146,-0.48,0.27,0.69,-4.32,-5.90,-4.37,-0.67,-1.08,0.66,966.80
9.165,-0.45,0.46,0.44,-4.32,-5.90,-4.37,-0.67,-1.08,0.66,966.80
9.166,-0.45,0.46,0.44,-4.32,-5.90,-4.37,2.03,0.76,1.14,966.80
9.167,-0.45,0.46,0.44,-4.92,-6.83,-1.95,2.03,0.76,1.14,966.80
9.213,-0.45,0.46,0.44,-4.92,-6.83,-1.95,2.03,0.76,1.14,966.75
9.234,-1.94,0.15,0.88,-4.92,-6.83,-1.95,2.03,0.76,1.14,966.75
9.235,-1.94,0.15,0.88,-4.92,-6.83,-1.95,2.52,1.82,0.42,966.75
9.236,-1.94,0.15,0.88,9.43,-3.09,-7.04,2.52,1.82,0.42,966.75
9.28,-1.94,0.15,0.88,9.43,-3.09,-7.04,2.52,1.82,0.42,966.75
9.291,-2.50,-1.36,0.94,9.43,-3.09,-7.04,2.52,1.82,0.42,966.75
9.291,-2.50,-1.36,0.94,9.43,-3.09,-7.04,2.77,-0.58,1.29,966.75
9.292,-2.50,-1.36,0.94,14.86,12.68,-7.14,2.77,-0.58,1.29,966.75
9.346,-2.50,-1.36,0.94,14.86,12.68,-7.14,2.77,-0.58,1.29,966.70
9.354,-0.25,-0.77,0.10,14.86,12.68,-7.14,2.77,-0.58,1.29,966.70
9.355,-0.25,-0.77,0.10,14.86,12.68,-7.14,3.40,2.69,1.12,966.70
9.355,-0.25,-0.77,0.10,-7.38,7.91,-0.44,3.40,2.69,1.12,966.70
9.413,-0.25,-0.77,0.10,-7.38,7.91,-0.44,3.40,2.69,1.12,966.70
9.418,0.30,-0.28,-0.56,-7.38,7.91,-0.44,3.40,2.69,1.12,966.70
9.418,0.30,-0.28,-0.56,-7.38,7.91,-0.44,1.99,0.64,-0.92,966.70
9.418,0.30,-0.28,-0.56,-12.77,2.59,5.39,1.99,0.64,-0.92,966.70
9.48,0.30,-0.28,-0.56,-12.77,2.59,5.39,1.99,0.64,-0.92,966.62
9.481,0.37,-0.12,-0.40,-12.77,2.59,5.39,1.99,0.64,-0.92,966.62
9.482,0.37,-0.12,-0.40,-12.77,2.59,5.39,-0.86,-0.91,-2.18,966.62
9.482,0.37,-0.12,-0.40,-13.32,-0.37,4.32,-0.86,-0.91,-2.18,966.62
9.544,-0.64,-0.60,-0.06,-13.32,-0.37,4.32,-0.86,-0.91,-2.18,966.62
9.545,-0.64,-0.60,-0.06,-13.32,-0.37,4.32,-2.97,-1.13,-1.50,966.62
9.545,-0.64,-0.60,-0.06,-3.27,3.29,1.27,-2.97,-1.13,-1.50,966.62
9.546,-0.64,-0.60,-0.06,-3.27,3.29,1.27,-2.97,-1.13,-1.50,966.63
9.608,-2.76,-1.75,0.87,-3.27,3.29,1.27,-2.97,-1.13,-1.50,966.63
9.61,-2.76,-1.75,0.87,-3.27,3.29,1.27,-3.11,-2.95,-1.31,966.63
9.611,-2.76,-1.75,0.87,17.94,13.58,-6.87,-3.11,-2.95,-1.31,966.63
9.614,-2.76,-1.75,0.87,17.94,13.58,-6.87,-3.11,-2.95,-1.31,966.63
9.672,-1.22,-0.67,0.46,17.94,13.58,-6.87,-3.11,-2.95,-1.31,966.63
9.673,-1.22,-0.67,0.46,17.94,13.58,-6.87,-0.99,-0.26,0.44,966.63
9.674,-1.22,-0.67,0.46,2.91,3.08,-2.63,-0.99,-0.26,0.44,966.63
9.68,-1.22,-0.67,0.46,2.91,3.08,-2.63,-0.99,-0.26,0.44,966.81
9.735,-0.85,0.61,0.01,2.91,3.08,-2.63,-0.99,-0.26,0.44,966.81
9.736,-0.85,0.61,0.01,2.91,3.08,-2.63,-1.81,1.73,0.41,966.81
9.736,-0.85,0.61,0.01,-1.02,-9.28,0.30,-1.81,1.73,0.41,966.81
9.746,-0.85,0.61,0.01,-1.02,-9.28,0.30,-1.81,1.73,0.41,966.81
9.8,-0.76,0.43,0.02,-1.02,-9.28,0.30,-1.81,1.73,0.41,966.81
9.801,-0.76,0.43,0.02,-1.02,-9.28,0.30,-2.32,-2.55,-0.19,966.81
9.801,-0.76,0.43,0.02,-1.70,-7.63,1.02,-2.32,-2.55,-0.19,966.81
9.813,-0.76,0.43,0.02,-1.70,-7.63,1.02,-2.32,-2.55,-0.19,966.77
9.861,-0.47,0.26,0.56,-1.70,-7.63,1.02,-2.32,-2.55,-0.19,966.77
9.862,-0.47,0.26,0.56,-1.70,-7.63,1.02,-0.24,-0.74,0.76,966.77
9.862,-0.47,0.26,0.56,-4.60,-5.64,-3.77,-0.24,-0.74,0.76,966.77
9.88,-0.47,0.26,0.56,-4.60,-5.64,-3.77,-0.24,-0.74,0.76,966.77
9.925,-0.37,0.41,0.29,-4.60,-5.64,-3.77,-0.24,-0.74,0.76,966.77
9.926,-0.37,0.41,0.29,-4.60,-5.64,-3.77,2.26,1.06,1.01,966.77
9.926,-0.37,0.41,0.29,-5.84,-6.21,-1.34,2.26,1.06,1.01,966.77
9.947,-0.37,0.41,0.29,-5.84,-6.21,-1.34,2.26,1.06,1.01,966.69
9.989,-2.62,-0.19,0.89,-5.84,-6.21,-1.34,2.26,1.06,1.01,966.69
9.99,-2.62,-0.19,0.89,-5.84,-6.21,-1.34,2.56,1.11,-0.00,966.69
9.99,-2.62,-0.19,0.89,16.07,-0.15,-7.64,2.56,1.11,-0.00,966.69
10.015,-2.62,-0.19,0.89,16.07,-0.15,-7.64,2.56,1.11,-0.00,966.69
10.051,-2.04,-1.19,0.87,16.07,-0.15,-7.64,2.56,1.11,-0.00,966.69
10.052,-2.04,-1.19,0.87,16.07,-0.15,-7.64,3.09,-0.46,1.48,966.69
10.052,-2.04,-1.19,0.87,10.33,10.76,-6.74,3.09,-0.46,1.48,966.69
10.079,-2.04,-1.19,0.87,10.33,10.76,-6.74,3.09,-0.46,1.48,966.69
10.114,-0.35,-0.67,-0.01,10.33,10.76,-6.74,3.09,-0.46,1.48,966.69
10.114,-0.35,-0.67,-0.01,10.33,10.76,-6.74,3.18,1.94,1.07,966.69
10.115,-0.35,-0.67,-0.01,-6.44,6.64,0.66,3.18,1.94,1.07,966.69
10.146,-0.35,-0.67,-0.01,-6.44,6.64,0.66,3.18,1.94,1.07,966.62
10.177,0.35,-0.34,-0.38,-6.44,6.64,0.66,3.18,1.94,1.07,966.62
10.178,0.35,-0.34,-0.38,-6.44,6.64,0.66,1.80,-0.10,-0.76,966.62
10.178,0.35,-0.34,-0.38,-13.27,2.96,4.25,1.80,-0.10,-0.76,966.62
10.213,0.35,-0.34,-0.38,-13.27,2.96,4.25,1.80,-0.10,-0.76,966.62
10.241,0.37,-0.18,-0.33,-13.27,2.96,4.25,1.80,-0.10,-0.76,966.62
10.241,0.37,-0.18,-0.33,-13.27,2.96,4.25,-0.70,-0.23,-1.75,966.62
10.241,0.37,-0.18,-0.33,-13.32,0.36,3.83,-0.70,-0.23,-1.75,966.62
10.279,0.37,-0.18,-0.33,-13.32,0.36,3.83,-0.70,-0.23,-1.75,966.58
10.304,-0.37,-0.55,-0.12,-13.32,0.36,3.83,-0.70,-0.23,-1.75,966.58
10.305,-0.37,-0.55,-0.12,-13.32,0.36,3.83,-2.67,-0.07,-1.65,966.58
10.305,-0.37,-0.55,-0.12,-5.91,2.79,1.51,-2.67,-0.07,-1.65,966.58
10.348,-0.37,-0.55,-0.12,-5.91,2.79,1.51,-2.67,-0.07,-1.65,966.58
10.368,-3.27,-1.81,0.54,-5.91,2.79,1.51,-2.67,-0.07,-1.65,966.58
10.368,-3.27,-1.81,0.54,-5.91,2.79,1.51,-2.70,-3.47,-1.78,966.58
10.368,-3.27,-1.81,0.54,23.00,13.95,-3.69,-2.70,-3.47,-1.78,966.58
10.413,-3.27,-1.81,0.54,23.00,13.95,-3.69,-2.70,-3.47,-1.78,966.73
10.431,-1.05,-0.49,0.51,23.00,13.95,-3.69,-2.70,-3.47,-1.78,966.73
10.431,-1.05,-0.49,0.51,23.00,13.95,-3.69,-1.20,-0.10,0.88,966.73
10.431,-1.05,-0.49,0.51,1.20,1.36,-3.24,-1.20,-0.10,0.88,966.73
10.485,-1.05,-0.49,0.51,1.20,1.36,-3.24,-1.20,-0.10,0.88,966.73
10.494,-0.94,0.55,-0.05,1.20,1.36,-3.24,-1.20,-0.10,0.88,966.73
10.494,-0.94,0.55,-0.05,1.20,1.36,-3.24,-2.23,1.89,0.56,966.73
10.495,-0.94,0.55,-0.05,-0.19,-8.53,0.44,-2.23,1.89,0.56,966.73
10.546,-0.94,0.55,-0.05,-0.19,-8.53,0.44,-2.23,1.89,0.56,966.73
10.557,-0.67,0.25,0.12,-0.19,-8.53,0.44,-2.23,1.89,0.56,966.73
10.557,-0.67,0.25,0.12,-0.19,-8.53,0.44,-2.18,-3.32,0.05,966.73
10.558,-0.67,0.25,0.12,-2.67,-5.60,0.27,-2.18,-3.32,0.05,966.73
10.613,-0.67,0.25,0.12,-2.67,-5.60,0.27,-2.18,-3.32,0.05,966.75
10.621,-0.46,0.18,0.68,-2.67,-5.60,0.27,-2.18,-3.32,0.05,966.75
10.621,-0.46,0.18,0.68,-2.67,-5.60,0.27,-0.06,-0.78,0.79,966.75
10.621,-0.46,0.18,0.68,-4.78,-4.48,-4.63,-0.06,-0.78,0.79,966.75
10.68,-0.46,0.18,0.68,-4.78,-4.48,-4.63,-0.06,-0.78,0.79,966.75
10.684,-0.37,0.34,0.30,-4.78,-4.48,-4.63,-0.06,-0.78,0.79,966.75
10.685,-0.37,0.34,0.30,-4.78,-4.48,-4.63,2.47,0.86,1.03,966.75
10.685,-0.37,0.34,0.30,-5.88,-5.16,-1.08,2.47,0.86,1.03,966.75
10.746,-0.37,0.34,0.30,-5.88,-5.16,-1.08,2.47,0.86,1.03,966.70
10.747,-2.12,0.19,0.77,-5.88,-5.16,-1.08,2.47,0.86,1.03,966.70
10.747,-2.12,0.19,0.77,-5.88,-5.16,-1.08,2.79,1.65,0.07,966.70
10.748,-2.12,0.19,0.77,11.04,-3.26,-6.44,2.79,1.65,0.07,966.70
10.811,-2.36,-1.13,0.93,11.04,-3.26,-6.44,2.79,1.65,0.07,966.70
10.811,-2.36,-1.13,0.93,11.04,-3.26,-6.44,3.15,-0.51,0.97,966.70
10.811,-2.36,-1.13,0.93,13.38,10.39,-7.46,3.15,-0.51,0.97,966.70
10.812,-2.36,-1.13,0.93,13.38,10.39,-7.46,3.15,-0.51,0.97,966.70
10.874,-0.49,-0.71,0.04,13.38,10.39,-7.46,3.15,-0.51,0.97,966.70
10.875,-0.49,-0.71,0.04,13.38,10.39,-7.46,3.26,2.10,1.01,966.70
10.875,-0.49,-0.71,0.04,-5.05,7.10,-0.03,3.26,2.10,1.01,966.70
10.879,-0.49,-0.71,0.04,-5.05,7.10,-0.03,3.26,2.10,1.01,966.62
10.938,0.22,-0.37,-0.43,-5.05,7.10,-0.03,3.26,2.10,1.01,966.62
10.938,0.22,-0.37,-0.43,-5.05,7.10,-0.03,1.84,-0.21,-0.61,966.62
10.939,0.22,-0.37,-0.43,-12.03,3.54,4.58,1.84,-0.21,-0.61,966.62
10.949,0.22,-0.37,-0.43,-12.03,3.54,4.58,1.84,-0.21,-0.61,966.62
11.002,0.31,-0.22,-0.35,-12.03,3.54,4.58,1.84,-0.21,-0.61,966.62
11.004,0.31,-0.22,-0.35,-12.03,3.54,4.58,-0.75,-0.52,-1.56,966.62
11.004,0.31,-0.22,-0.35,-12.79,1.00,4.08,-0.75,-0.52,-1.56,966.62
11.013,0.31,-0.22,-0.35,-12.79,1.00,4.08,-0.75,-0.52,-1.56,966.59
11.065,-0.47,-0.60,-0.14,-12.79,1.00,4.08,-0.75,-0.52,-1.56,966.59
11.066,-0.47,-0.60,-0.14,-12.79,1.00,4.08,-2.68,-0.11,-1.09,966.59
11.066,-0.47,-0.60,-0.14,-5.04,3.96,1.84,-2.68,-0.11,-1.09,966.59
11.08,-0.47,-0.60,-0.14,-5.04,3.96,1.84,-2.68,-0.11,-1.09,966.59
11.129,-2.78,-1.64,0.56,-5.04,3.96,1.84,-2.68,-0.11,-1.09,966.59
11.13,-2.78,-1.64,0.56,-5.04,3.96,1.84,-3.07,-1.73,-1.72,966.59
11.13,-2.78,-1.64,0.56,17.85,13.06,-4.65,-3.07,-1.73,-1.72,966.59
11.147,-2.78,-1.64,0.56,17.85,13.06,-4.65,-3.07,-1.73,-1.72,966.59
11.194,-2.78,-1.64,0.56,3.05,2.32,-3.51,-3.07,-1.73,-1.72,966.59
11.195,-1.25,-0.58,0.47,3.05,2.32,-3.51,-3.07,-1.73,-1.72,966.59
11.195,-1.25,-0.58,0.47,3.05,2.32,-3.51,-1.94,-0.67,-0.13,966.59
11.213,-1.25,-0.58,0.47,3.05,2.32,-3.51,-1.94,-0.67,-0.13,966.68
11.255,-1.02,0.31,-0.01,3.05,2.32,-3.51,-1.94,-0.67,-0.13,966.68
11.256,-1.02,0.31,-0.01,3.05,2.32,-3.51,-2.69,0.86,-0.34,966.68
11.257,-1.02,0.31,-0.01,0.74,-6.54,0.06,-2.69,0.86,-0.34,966.68
11.285,-1.02,0.31,-0.01,0.74,-6.54,0.06,-2.69,0.86,-0.34,966.68
11.318,-0.67,0.32,0.04,0.74,-6.54,0.06,-2.69,0.86,-0.34,966.68
11.318,-0.67,0.32,0.04,0.74,-6.54,0.06,-3.04,-2.32,-0.28,966.68
11.319,-0.67,0.32,0.04,-2.53,-6.81,0.13,-3.04,-2.32,-0.28,966.68
11.347,-0.67,0.32,0.04,-2.53,-6.81,0.13,-3.04,-2.32,-0.28,966.66
11.382,-0.74,0.40,0.55,-2.53,-6.81,0.13,-3.04,-2.32,-0.28,966.66
11.383,-0.74,0.40,0.55,-2.53,-6.81,0.13,-1.24,-0.27,0.98,966.66
11.383,-0.74,0.40,0.55,-2.02,-7.14,-4.86,-1.24,-0.27,0.98,966.66
11.414,-0.74,0.40,0.55,-2.02,-7.14,-4.86,-1.24,-0.27,0.98,966.66
11.445,-0.44,0.56,0.38,-2.02,-7.14,-4.86,-1.24,-0.27,0.98,966.66
11.445,-0.44,0.56,0.38,-2.02,-7.14,-4.86,1.57,1.10,1.84,966.66
11.446,-0.44,0.56,0.38,-5.37,-7.56,-3.58,1.57,1.10,1.84,966.66
11.48,-0.44,0.56,0.38,-5.37,-7.56,-3.58,1.57,1.10,1.84,966.59
11.507,-2.24,0.11,0.77,-5.37,-7.56,-3.58,1.57,1.10,1.84,966.59
11.508,-2.24,0.11,0.77,-5.37,-7.56,-3.58,2.26,0.96,0.94,966.59
11.508,-2.24,0.11,0.77,12.20,-2.54,-7.89,2.26,0.96,0.94,966.59
11.551,-2.24,0.11,0.77,12.20,-2.54,-7.89,2.26,0.96,0.94,966.59
11.571,-2.25,-1.02,0.73,12.20,-2.54,-7.89,2.26,0.96,0.94,966.59
11.571,-2.25,-1.02,0.73,12.20,-2.54,-7.89,2.93,-0.65,1.80,966.59
11.572,-2.25,-1.02,0.73,12.23,9.51,-6.82,2.93,-0.65,1.80,966.59
11.614,-2.25,-1.02,0.73,12.23,9.51,-6.82,2.93,-0.65,1.80,966.59
11.635,-0.65,-0.76,-0.01,12.23,9.51,-6.82,2.93,-0.65,1.80,966.59
11.636,-0.65,-0.76,-0.01,12.23,9.51,-6.82,3.04,0.37,1.16,966.59
11.637,-0.65,-0.76,-0.01,-3.45,7.75,0.15,3.04,0.37,1.16,966.59
11.697,-0.65,-0.76,-0.01,-3.45,7.75,0.15,3.04,0.37,1.16,966.56
11.699,0.09,-0.49,-0.37,-3.45,7.75,0.15,3.04,0.37,1.16,966.56
11.7,0.09,-0.49,-0.37,-3.45,7.75,0.15,2.45,-0.50,-0.56,966.56
11.701,0.09,-0.49,-0.37,-10.69,4.81,3.85,2.45,-0.50,-0.56,966.56
11.747,0.09,-0.49,-0.37,-10.69,4.81,3.85,2.45,-0.50,-0.56,966.56
11.761,-0.06,-0.33,-0.41,-10.69,4.81,3.85,2.45,-0.50,-0.56,966.56
11.761,-0.06,-0.33,-0.41,-10.69,4.81,3.85,0.33,-0.73,-1.50,966.56
11.762,-0.06,-0.33,-0.41,-9.19,2.36,4.67,0.33,-0.73,-1.50,966.56
11.814,-0.06,-0.33,-0.41,-9.19,2.36,4.67,0.33,-0.73,-1.50,966.58
11.824,-0.74,-0.63,-0.02,-9.19,2.36,4.67,0.33,-0.73,-1.50,966.58
11.825,-0.74,-0.63,-0.02,-9.19,2.36,4.67,-2.02,-1.07,-0.89,966.58
11.827,-0.74,-0.63,-0.02,-2.37,4.58,1.35,-2.02,-1.07,-0.89,966.58
11.88,-0.74,-0.63,-0.02,-2.37,4.58,1.35,-2.02,-1.07,-0.89,966.58
11.888,-1.84,-1.33,0.65,-2.37,4.58,1.35,-2.02,-1.07,-0.89,966.58
11.888,-1.84,-1.33,0.65,-2.37,4.58,1.35,-3.28,-1.21,-0.96,966.58
11.889,-1.84,-1.33,0.65,8.54,10.54,-4.92,-3.28,-1.21,-0.96,966.58
11.947,-1.84,-1.33,0.65,8.54,10.54,-4.92,-3.28,-1.21,-0.96,966.64
11.952,-1.39,-0.37,0.39,8.54,10.54,-4.92,-3.28,-1.21,-0.96,966.64
11.953,-1.39,-0.37,0.39,8.54,10.54,-4.92,-2.63,0.59,-0.84,966.64
11.954,-1.39,-0.37,0.39,4.25,0.48,-3.08,-2.63,0.59,-0.84,966.64
12.013,-1.39,-0.37,0.39,4.25,0.48,-3.08,-2.63,0.59,-0.84,966.64
12.014,-1.25,0.21,0.05,4.25,0.48,-3.08,-2.63,0.59,-0.84,966.64
12.014,-1.25,0.21,0.05,4.25,0.48,-3.08,-2.84,-0.92,-0.98,966.64
12.015,-1.25,0.21,0.05,3.12,-5.81,0.09,-2.84,-0.92,-0.98,966.64
12.079,-0.94,0.23,0.29,3.12,-5.81,0.09,-2.84,-0.92,-0.98,966.64
12.081,-0.94,0.23,0.29,3.12,-5.81,0.09,-2.64,-1.60,-0.02,966.64
12.081,-0.94,0.23,0.29,0.24,-6.16,-1.93,-2.64,-1.60,-0.02,966.64
12.082,-0.94,0.23,0.29,0.24,-6.16,-1.93,-2.64,-1.60,-0.02,966.64
12.142,-0.74,0.44,0.33,0.24,-6.16,-1.93,-2.64,-1.60,-0.02,966.64
12.144,-0.74,0.44,0.33,0.24,-6.16,-1.93,-0.45,1.06,1.52,966.64
12.145,-0.74,0.44,0.33,-2.09,-7.42,-3.00,-0.45,1.06,1.52,966.64
12.147,-0.74,0.44,0.33,-2.09,-7.42,-3.00,-0.45,1.06,1.52,966.65
12.205,-0.47,0.72,0.31,-2.09,-7.42,-3.00,-0.45,1.06,1.52,966.65
12.207,-0.47,0.72,0.31,-2.09,-7.42,-3.00,1.65,1.88,2.35,966.65
12.207,-0.47,0.72,0.31,-5.03,-8.80,-3.76,1.65,1.88,2.35,966.65
12.213,-0.47,0.72,0.31,-5.03,-8.80,-3.76,1.65,1.88,2.35,966.65
12.268,-2.31,0.36,0.94,-5.03,-8.80,-3.76,1.65,1.88,2.35,966.65
12.269,-2.31,0.36,0.94,-5.03,-8.80,-3.76,2.45,1.13,1.60,966.65
12.269,-2.31,0.36,0.94,12.87,-4.38,-10.49,2.45,1.13,1.60,966.65
12.28,-2.31,0.36,0.94,12.87,-4.38,-10.49,2.45,1.13,1.60,966.61
12.332,-2.36,-0.88,0.92,12.87,-4.38,-10.49,2.45,1.13,1.60,966.61
12.333,-2.36,-0.88,0.92,12.87,-4.38,-10.49,3.80,0.39,2.78,966.61
12.333,-2.36,-0.88,0.92,13.34,9.13,-10.40,3.80,0.39,2.78,966.61
12.347,-2.36,-0.88,0.92,13.34,9.13,-10.40,3.80,0.39,2.78,966.61
12.395,-0.66,-1.24,-0.12,13.34,9.13,-10.40,3.80,0.39,2.78,966.61
12.397,-0.66,-1.24,-0.12,13.34,9.13,-10.40,4.03,1.22,2.34,966.61
12.398,-0.66,-1.24,-0.12,-2.96,13.56,-1.21,4.03,1.22,2.34,966.61
12.414,-0.66,-1.24,-0.12,-2.96,13.56,-1.21,4.03,1.22,2.34,966.53
12.458,0.38,-0.88,-0.54,-2.96,13.56,-1.21,4.03,1.22,2.34,966.53
12.46,0.38,-0.88,-0.54,-2.96,13.56,-1.21,2.87,0.07,-0.05,966.53
12.461,0.38,-0.88,-0.54,-13.07,9.56,2.46,2.87,0.07,-0.05,966.53
12.48,0.38,-0.88,-0.54,-13.07,9.56,2.46,2.87,0.07,-0.05,966.53
12.522,0.17,-0.64,-0.50,-13.07,9.56,2.46,2.87,0.07,-0.05,966.53
12.523,0.17,-0.64,-0.50,-13.07,9.56,2.46,-0.23,-0.60,-1.94,966.53
12.524,0.17,-0.64,-0.50,-11.22,6.03,2.33,-0.23,-0.60,-1.94,966.53
12.547,0.17,-0.64,-0.50,-11.22,6.03,2.33,-0.23,-0.60,-1.94,966.55
12.585,-0.83,-0.83,-0.09,-11.22,6.03,2.33,-0.23,-0.60,-1.94,966.55
12.591,-0.83,-0.83,-0.09,-11.22,6.03,2.33,-2.90,-1.37,-2.46,966.55
12.591,-0.83,-0.83,-0.09,-1.45,6.83,-1.04,-2.90,-1.37,-2.46,966.55
12.614,-0.83,-0.83,-0.09,-1.45,6.83,-1.04,-2.90,-1.37,-2.46,966.55
12.648,-1.96,-0.95,0.49,-1.45,6.83,-1.04,-2.90,-1.37,-2.46,966.55
12.65,-1.96,-0.95,0.49,-1.45,6.83,-1.04,-3.65,-2.42,-2.42,966.55
12.651,-1.96,-0.95,0.49,9.74,6.79,-5.65,-3.65,-2.42,-2.42,966.55
12.681,-1.96,-0.95,0.49,9.74,6.79,-5.65,-3.65,-2.42,-2.42,966.55
12.711,-1.66,-0.17,0.12,9.74,6.79,-5.65,-3.65,-2.42,-2.42,966.55
12.712,-1.66,-0.17,0.12,9.74,6.79,-5.65,-2.92,-0.55,-1.92,966.55
12.712,-1.66,-0.17,0.12,7.05,-1.78,-2.13,-2.92,-0.55,-1.92,966.55
12.747,-1.66,-0.17,0.12,7.05,-1.78,-2.13,-2.92,-0.55,-1.92,966.58
12.775,-1.50,0.21,-0.03,7.05,-1.78,-2.13,-2.92,-0.55,-1.92,966.58
12.777,-1.50,0.21,-0.03,7.05,-1.78,-2.13,-2.58,-2.14,-1.41,966.58
12.778,-1.50,0.21,-0.03,5.79,-6.15,-0.19,-2.58,-2.14,-1.41,966.58
12.814,-1.50,0.21,-0.03,5.79,-6.15,-0.19,-2.58,-2.14,-1.41,966.58
12.838,-1.13,0.23,0.24,5.79,-6.15,-0.19,-2.58,-2.14,-1.41,966.58
12.839,-1.13,0.23,0.24,5.79,-6.15,-0.19,-1.68,-0.73,0.39,966.58
12.84,-1.13,0.23,0.24,2.03,-6.17,-2.74,-1.68,-0.73,0.39,966.58
12.88,-1.13,0.23,0.24,2.03,-6.17,-2.74,-1.68,-0.73,0.39,966.59
12.901,-0.85,0.51,0.21,2.03,-6.17,-2.74,-1.68,-0.73,0.39,966.59
12.902,-0.85,0.51,0.21,2.03,-6.17,-2.74,0.48,1.88,2.23,966.59
12.903,-0.85,0.51,0.21,-1.01,-7.67,-3.42,0.48,1.88,2.23,966.59
12.948,-0.85,0.51,0.21,-1.01,-7.67,-3.42,0.48,1.88,2.23,966.59
12.978,-0.74,0.65,0.52,-1.01,-7.67,-3.42,0.48,1.88,2.23,966.59
12.979,-0.74,0.65,0.52,-1.01,-7.67,-3.42,1.83,1.95,3.02,966.59
12.98,-0.74,0.65,0.52,-2.26,-7.41,-7.38,1.83,1.95,3.02,966.59
13.014,-0.74,0.65,0.52,-2.26,-7.41,-7.38,1.83,1.95,3.02,966.59
13.028,-2.48,-0.12,0.81,-2.26,-7.41,-7.38,1.83,1.95,3.02,966.59
13.028,-2.48,-0.12,0.81,-2.26,-7.41,-7.38,2.40,0.44,2.56,966.59
13.029,-2.48,-0.12,0.81,14.78,1.20,-10.56,2.40,0.44,2.56,966.59
13.08,-2.48,-0.12,0.81,14.78,1.20,-10.56,2.40,0.44,2.56,966.59
13.091,-1.71,-0.97,0.46,14.78,1.20,-10.56,2.40,0.44,2.56,966.59
13.092,-1.71,-0.97,0.46,14.78,1.20,-10.56,3.64,-0.17,2.62,966.59
13.092,-1.71,-0.97,0.46,7.36,10.56,-7.10,3.64,-0.17,2.62,966.59
13.147,-1.71,-0.97,0.46,7.36,10.56,-7.10,3.64,-0.17,2.62,966.59
13.154,-0.44,-1.07,-0.35,7.36,10.56,-7.10,3.64,-0.17,2.62,966.59
13.155,-0.44,-1.07,-0.35,7.36,10.56,-7.10,3.66,0.07,1.13,966.59
13.156,-0.44,-1.07,-0.35,-5.00,11.53,0.50,3.66,0.07,1.13,966.59
13.214,-0.44,-1.07,-0.35,-5.00,11.53,0.50,3.66,0.07,1.13,966.53
13.217,0.21,-0.79,-0.58,-5.00,11.53,0.50,3.66,0.07,1.13,966.53
13.218,0.21,-0.79,-0.58,-5.00,11.53,0.50,2.02,-0.98,-0.93,966.53
13.218,0.21,-0.79,-0.58,-11.58,7.93,3.12,2.02,-0.98,-0.93,966.53
13.281,0.21,-0.79,-0.58,-11.58,7.93,3.12,2.02,-0.98,-0.93,966.53
13.283,-0.03,-0.60,-0.53,-11.58,7.93,3.12,2.02,-0.98,-0.93,966.53
13.284,-0.03,-0.60,-0.53,-11.58,7.93,3.12,-0.68,-1.08,-2.06,966.53
13.285,-0.03,-0.60,-0.53,-9.25,4.90,3.26,-0.68,-1.08,-2.06,966.53
13.35,-1.09,-0.87,0.03,-9.25,4.90,3.26,-0.68,-1.08,-2.06,966.53
13.351,-1.09,-0.87,0.03,-9.25,4.90,3.26,-3.24,-1.36,-2.38,966.53
13.352,-1.09,-0.87,0.03,1.19,6.41,-1.74,-3.24,-1.36,-2.38,966.53
13.353,-1.09,-0.87,0.03,1.19,6.41,-1.74,-3.24,-1.36,-2.38,966.57
13.408,-2.04,-0.87,0.47,1.19,6.41,-1.74,-3.24,-1.36,-2.38,966.57
13.409,-2.04,-0.87,0.47,1.19,6.41,-1.74,-3.78,-2.94,-1.97,966.57
13.409,-2.04,-0.87,0.47,10.64,5.43,-4.93,-3.78,-2.94,-1.97,966.57
13.414,-2.04,-0.87,0.47,10.64,5.43,-4.93,-3.78,-2.94,-1.97,966.57
13.484,-1.40,-0.04,0.29,10.64,5.43,-4.93,-3.78,-2.94,-1.97,966.57
13.489,-1.40,-0.04,0.29,10.64,5.43,-4.93,-2.74,-0.68,-0.92,966.57
13.49,-1.40,-0.04,0.29,4.55,-3.21,-3.26,-2.74,-0.68,-0.92,966.57
13.491,-1.40,-0.04,0.29,4.55,-3.21,-3.26,-2.74,-0.68,-0.92,966.66
13.549,-1.12,0.41,0.17,4.55,-3.21,-3.26,-2.74,-0.68,-0.92,966.66
13.55,-1.12,0.41,0.17,4.55,-3.21,-3.26,-2.21,-1.33,-0.93,966.66
13.551,-1.12,0.41,0.17,1.95,-8.07,-1.90,-2.21,-1.33,-0.93,966.66
13.552,-1.12,0.41,0.17,1.95,-8.07,-1.90,-2.21,-1.33,-0.93,966.66
13.599,-0.94,0.39,0.43,1.95,-8.07,-1.90,-2.21,-1.33,-0.93,966.66
13.6,-0.94,0.39,0.43,1.95,-8.07,-1.90,-0.86,-0.68,-0.06,966.66
13.601,-0.94,0.39,0.43,0.25,-7.94,-4.31,-0.86,-0.68,-0.06,966.66
13.614,-0.94,0.39,0.43,0.25,-7.94,-4.31,-0.86,-0.68,-0.06,966.68
13.661,-0.52,0.38,0.14,0.25,-7.94,-4.31,-0.86,-0.68,-0.06,966.68
13.662,-0.52,0.38,0.14,0.25,-7.94,-4.31,1.50,0.57,1.38,966.68
13.663,-0.52,0.38,0.14,-4.22,-7.06,-1.37,1.50,0.57,1.38,966.68
13.681,-0.52,0.38,0.14,-4.22,-7.06,-1.37,1.50,0.57,1.38,966.68
13.725,-0.70,0.58,0.27,-4.22,-7.06,-1.37,1.50,0.57,1.38,966.68
13.726,-0.70,0.58,0.27,-4.22,-7.06,-1.37,2.37,1.32,1.72,966.68
13.727,-0.70,0.58,0.27,-2.74,-7.91,-3.05,2.37,1.32,1.72,966.68
13.748,-0.70,0.58,0.27,-2.74,-7.91,-3.05,2.37,1.32,1.72,966.68
13.789,-3.40,-0.92,1.04,-2.74,-7.91,-3.05,2.37,1.32,1.72,966.68
13.79,-3.40,-0.92,1.04,-2.74,-7.91,-3.05,2.57,-0.55,1.31,966.68
13.791,-3.40,-0.92,1.04,23.58,7.47,-10.06,2.57,-0.55,1.31,966.68
13.814,-3.40,-0.92,1.04,23.58,7.47,-10.06,2.57,-0.55,1.31,966.75
13.852,-1.19,-1.22,0.38,23.58,7.47,-10.06,2.57,-0.55,1.31,966.75
13.853,-1.19,-1.22,0.38,23.58,7.47,-10.06,3.95,0.76,2.16,966.75
13.854,-1.19,-1.22,0.38,1.77,11.85,-3.69,3.95,0.76,2.16,966.75
13.88,-1.19,-1.22,0.38,1.77,11.85,-3.69,3.95,0.76,2.16,966.75
13.914,-0.28,-0.60,-0.44,1.77,11.85,-3.69,3.95,0.76,2.16,966.75
13.915,-0.28,-0.60,-0.44,1.77,11.85,-3.69,3.08,1.52,0.57,966.75
13.915,-0.28,-0.60,-0.44,-7.06,5.94,3.19,3.08,1.52,0.57,966.75
13.947,-0.28,-0.60,-0.44,-7.06,5.94,3.19,3.08,1.52,0.57,966.68
13.978,0.25,-0.16,-0.35,-7.06,5.94,3.19,3.08,1.52,0.57,966.68
13.979,0.25,-0.16,-0.35,-7.06,5.94,3.19,1.06,-1.43,-1.16,966.68
13.98,0.25,-0.16,-0.35,-12.28,0.89,3.14,1.06,-1.43,-1.16,966.68
14.014,0.25,-0.16,-0.35,-12.28,0.89,3.14,1.06,-1.43,-1.16,966.68
14.045,0.23,-0.17,-0.13,-12.28,0.89,3.14,1.06,-1.43,-1.16,966.68
14.046,0.23,-0.17,-0.13,-12.28,0.89,3.14,-1.11,-1.26,-1.67,966.68
14.046,0.23,-0.17,-0.13,-11.98,-0.01,1.68,-1.11,-1.26,-1.67,966.68
14.081,0.23,-0.17,-0.13,-11.98,-0.01,1.68,-1.11,-1.26,-1.67,966.68
14.104,-1.08,-0.76,0.19,-11.98,-0.01,1.68,-1.11,-1.26,-1.67,966.68
14.105,-1.08,-0.76,0.19,-11.98,-0.01,1.68,-2.65,0.49,-1.30,966.68
14.105,-1.08,-0.76,0.19,1.10,4.95,-2.05,-2.65,0.49,-1.30,966.68
14.153,-1.08,-0.76,0.19,1.10,4.95,-2.05,-2.65,0.49,-1.30,966.68
14.176,-2.92,-1.71,0.52,1.10,4.95,-2.05,-2.65,0.49,-1.30,966.68
14.177,-2.92,-1.71,0.52,1.10,4.95,-2.05,-1.73,-2.94,-1.03,966.68
14.178,-2.92,-1.71,0.52,19.31,13.52,-3.95,-1.73,-2.94,-1.03,966.68
14.214,-2.92,-1.71,0.52,19.31,13.52,-3.95,-1.73,-2.94,-1.03,966.68
14.231,-0.93,-0.08,0.20,19.31,13.52,-3.95,-1.73,-2.94,-1.03,966.68
14.232,-0.93,-0.08,0.20,19.31,13.52,-3.95,-0.84,2.02,0.43,966.68
14.233,-0.93,-0.08,0.20,-0.30,-2.27,-1.97,-0.84,2.02,0.43,966.68
14.281,-0.93,-0.08,0.20,-0.30,-2.27,-1.97,-0.84,2.02,0.43,966.65
14.295,-1.05,0.54,-0.29,-0.30,-2.27,-1.97,-0.84,2.02,0.43,966.65
14.296,-1.05,0.54,-0.29,-0.30,-2.27,-1.97,-1.93,-0.39,-0.36,966.65
14.297,-1.05,0.54,-0.29,0.95,-8.37,2.42,-1.93,-0.39,-0.36,966.65
14.347,-1.05,0.54,-0.29,0.95,-8.37,2.42,-1.93,-0.39,-0.36,966.65
14.358,-0.47,0.35,0.29,0.95,-8.37,2.42,-1.93,-0.39,-0.36,966.65
14.359,-0.47,0.35,0.29,0.95,-8.37,2.42,-1.73,-3.17,0.15,966.65
14.36,-0.47,0.35,0.29,-4.73,-6.49,-1.66,-1.73,-3.17,0.15,966.65
14.414,-0.47,0.35,0.29,-4.73,-6.49,-1.66,-1.73,-3.17,0.15,966.69
14.421,-0.34,0.54,0.41,-4.73,-6.49,-1.66,-1.73,-3.17,0.15,966.69
14.421,-0.34,0.54,0.41,-4.73,-6.49,-1.66,0.46,1.15,1.37,966.69
14.423,-0.34,0.54,0.41,-6.24,-7.52,-3.36,0.46,1.15,1.37,966.69
14.481,-0.34,0.54,0.41,-6.24,-7.52,-3.36,0.46,1.15,1.37,966.69
14.484,-0.16,0.59,0.10,-6.24,-7.52,-3.36,0.46,1.15,1.37,966.69
14.485,-0.16,0.59,0.10,-6.24,-7.52,-3.36,2.40,1.14,1.55,966.69
14.487,-0.16,0.59,0.10,-8.24,-6.93,-0.77,2.40,1.14,1.55,966.69
14.548,-0.16,0.59,0.10,-8.24,-6.93,-0.77,2.40,1.14,1.55,966.69
14.549,-3.53,-0.10,0.93,-8.24,-6.93,-0.77,2.40,1.14,1.55,966.69
14.55,-3.53,-0.10,0.93,-8.24,-6.93,-0.77,2.26,0.43,0.11,966.69
14.55,-3.53,-0.10,0.93,24.79,-0.10,-9.17,2.26,0.43,0.11,966.69
14.611,-1.78,-1.29,0.82,24.79,-0.10,-9.17,2.26,0.43,0.11,966.69
14.612,-1.78,-1.29,0.82,24.79,-0.10,-9.17,3.30,-0.63,1.99,966.69
14.613,-1.78,-1.29,0.82,7.59,12.77,-7.30,3.30,-0.63,1.99,966.69
14.614,-1.78,-1.29,0.82,7.59,12.77,-7.30,3.30,-0.63,1.99,966.69
14.675,0.07,-0.62,-0.16,7.59,12.77,-7.30,3.30,-0.63,1.99,966.69
14.676,0.07,-0.62,-0.16,7.59,12.77,-7.30,3.42,3.23,1.04,966.69
14.677,0.07,-0.62,-0.16,-10.36,6.84,0.11,3.42,3.23,1.04,966.69
14.68,0.07,-0.62,-0.16,-10.36,6.84,0.11,3.42,3.23,1.04,966.69
14.738,0.60,-0.27,-0.40,-10.36,6.84,0.11,3.42,3.23,1.04,966.69
14.74,0.60,-0.27,-0.40,-10.36,6.84,0.11,1.54,-0.46,-1.57,966.69
14.741,0.60,-0.27,-0.40,-15.63,2.38,2.48,1.54,-0.46,-1.57,966.69
14.748,0.60,-0.27,-0.40,-15.63,2.38,2.48,1.54,-0.46,-1.57,966.59
14.801,0.39,-0.31,-0.24,-15.63,2.38,2.48,1.54,-0.46,-1.57,966.59
14.803,0.39,-0.31,-0.24,-15.63,2.38,2.48,-0.84,-1.17,-3.10,966.59
14.803,0.39,-0.31,-0.24,-13.36,0.90,1.56,-0.84,-1.17,-3.10,966.59
14.814,0.39,-0.31,-0.24,-13.36,0.90,1.56,-0.84,-1.17,-3.10,966.59
14.864,-1.13,-1.07,0.09,-13.36,0.90,1.56,-0.84,-1.17,-3.10,966.59
14.866,-1.13,-1.07,0.09,-13.36,0.90,1.56,-2.73,-1.05,-2.55,966.59
14.867,-1.13,-1.07,0.09,1.93,6.87,-1.59,-2.73,-1.05,-2.55,966.59
14.881,-1.13,-1.07,0.09,1.93,6.87,-1.59,-2.73,-1.05,-2.55,966.58
14.928,-3.09,-2.06,0.62,1.93,6.87,-1.59,-2.73,-1.05,-2.55,966.58
14.93,-3.09,-2.06,0.62,1.93,6.87,-1.59,-2.63,-3.95,-1.53,966.58
14.93,-3.09,-2.06,0.62,21.48,15.67,-5.34,-2.63,-3.95,-1.53,966.58
14.948,-3.09,-2.06,0.62,21.48,15.67,-5.34,-2.63,-3.95,-1.53,966.58
14.992,-0.94,-0.26,0.29,21.48,15.67,-5.34,-2.63,-3.95,-1.53,966.58
14.993,-0.94,-0.26,0.29,21.48,15.67,-5.34,-0.94,1.33,0.58,966.58
14.994,-0.94,-0.26,0.29,0.29,-1.65,-2.84,-0.94,1.33,0.58,966.58
15.014,-0.94,-0.26,0.29,0.29,-1.65,-2.84,-0.94,1.33,0.58,966.59
15.055,-1.14,0.48,-0.19,0.29,-1.65,-2.84,-0.94,1.33,0.58,966.59
15.057,-1.14,0.48,-0.19,0.29,-1.65,-2.84,-1.81,-0.28,-0.33,966.59
15.057,-1.14,0.48,-0.19,2.25,-8.98,1.20,-1.81,-0.28,-0.33,966.59
15.081,-1.14,0.48,-0.19,2.25,-8.98,1.20,-1.81,-0.28,-0.33,966.59
15.118,-0.45,0.33,0.14,2.25,-8.98,1.20,-1.81,-0.28,-0.33,966.59
15.119,-0.45,0.33,0.14,2.25,-8.98,1.20,-2.10,-4.03,-0.18,966.59
15.12,-0.45,0.33,0.14,-4.39,-7.59,-0.23,-2.10,-4.03,-0.18,966.59
15.148,-0.45,0.33,0.14,-4.39,-7.59,-0.23,-2.10,-4.03,-0.18,966.58
15.183,-0.29,0.61,0.45,-4.39,-7.59,-0.23,-2.10,-4.03,-0.18,966.58
15.184,-0.29,0.61,0.45,-4.39,-7.59,-0.23,-0.24,0.97,1.01,966.58
15.184,-0.29,0.61,0.45,-6.19,-9.85,-3.78,-0.24,0.97,1.01,966.58
15.214,-0.29,0.61,0.45,-6.19,-9.85,-3.78,-0.24,0.97,1.01,966.58
15.245,-0.49,0.45,0.26,-6.19,-9.85,-3.78,-0.24,0.97,1.01,966.58
15.247,-0.49,0.45,0.26,-6.19,-9.85,-3.78,1.93,1.13,1.10,966.58
15.247,-0.49,0.45,0.26,-4.54,-7.47,-2.14,1.93,1.13,1.10,966.58
15.281,-0.49,0.45,0.26,-4.54,-7.47,-2.14,1.93,1.13,1.10,966.58
15.308,-3.64,-0.79,1.16,-4.54,-7.47,-2.14,1.93,1.13,1.10,966.58
15.309,-3.64,-0.79,1.16,-4.54,-7.47,-2.14,2.61,0.99,0.71,966.58
15.309,-3.64,-0.79,1.16,26.17,5.00,-11.22,2.61,0.99,0.71,966.58
15.347,-3.64,-0.79,1.16,26.17,5.00,-11.22,2.61,0.99,0.71,966.66
15.371,-1.60,-1.36,0.49,26.17,5.00,-11.22,2.61,0.99,0.71,966.66
15.371,-1.60,-1.36,0.49,26.17,5.00,-11.22,3.32,1.18,2.97,966.66
15.371,-1.60,-1.36,0.49,5.91,12.40,-4.87,3.32,1.18,2.97,966.66
15.414,-1.60,-1.36,0.49,5.91,12.40,-4.87,3.32,1.18,2.97,966.66
15.434,-0.13,-0.75,-0.14,5.91,12.40,-4.87,3.32,1.18,2.97,966.66
15.435,-0.13,-0.75,-0.14,5.91,12.40,-4.87,2.92,2.02,1.57,966.66
15.435,-0.13,-0.75,-0.14,-8.50,7.34,0.06,2.92,2.02,1.57,966.66
15.481,-0.13,-0.75,-0.14,-8.50,7.34,0.06,2.92,2.02,1.57,966.62
15.498,0.50,-0.26,-0.30,-8.50,7.34,0.06,2.92,2.02,1.57,966.62
15.499,0.50,-0.26,-0.30,-8.50,7.34,0.06,1.47,-1.12,-0.75,966.62
15.5,0.50,-0.26,-0.30,-14.71,1.98,2.17,1.47,-1.12,-0.75,966.62
15.548,0.50,-0.26,-0.30,-14.71,1.98,2.17,1.47,-1.12,-0.75,966.62
15.561,0.47,-0.11,-0.24,-14.71,1.98,2.17,1.47,-1.12,-0.75,966.62
15.561,0.47,-0.11,-0.24,-14.71,1.98,2.17,-0.70,-0.60,-2.03,966.62
15.561,0.47,-0.11,-0.24,-14.28,-0.70,2.00,-0.70,-0.60,-2.03,966.62
15.614,0.47,-0.11,-0.24,-14.28,-0.70,2.00,-0.70,-0.60,-2.03,966.60
15.624,-0.64,-0.85,-0.08,-14.28,-0.70,2.00,-0.70,-0.60,-2.03,966.60
15.625,-0.64,-0.85,-0.08,-14.28,-0.70,2.00,-2.58,0.18,-2.25,966.60
15.625,-0.64,-0.85,-0.08,-3.04,5.26,-0.07,-2.58,0.18,-2.25,966.60
15.681,-0.64,-0.85,-0.08,-3.04,5.26,-0.07,-2.58,0.18,-2.25,966.60
15.687,-3.32,-2.11,0.45,-3.04,5.26,-0.07,-2.58,0.18,-2.25,966.60
15.687,-3.32,-2.11,0.45,-3.04,5.26,-0.07,-2.35,-3.42,-2.00,966.60
15.688,-3.32,-2.11,0.45,23.58,16.48,-4.04,-2.35,-3.42,-2.00,966.60
15.755,-3.32,-2.11,0.45,0.97,-1.93,-1.64,-2.35,-3.42,-2.00,966.60
15.756,-3.32,-2.11,0.45,0.97,-1.93,-1.64,-2.35,-3.42,-2.00,966.60
15.757,-1.02,-0.22,0.17,0.97,-1.93,-1.64,-2.35,-3.42,-2.00,966.60
15.757,-1.02,-0.22,0.17,0.97,-1.93,-1.64,-1.44,0.45,0.29,966.60
15.815,-1.02,-0.22,0.17,0.97,-1.93,-1.64,-1.44,0.45,0.29,966.57
15.817,-0.98,0.58,-0.10,0.97,-1.93,-1.64,-1.44,0.45,0.29,966.57
15.818,-0.98,0.58,-0.10,0.97,-1.93,-1.64,-2.56,0.51,-0.34,966.57
15.819,-0.98,0.58,-0.10,0.65,-9.78,-0.15,-2.56,0.51,-0.34,966.57
15.878,-0.60,0.25,0.25,0.65,-9.78,-0.15,-2.56,0.51,-0.34,966.57
15.88,-0.60,0.25,0.25,0.65,-9.78,-0.15,-2.42,-2.27,-0.19,966.57
15.88,-0.60,0.25,0.25,-3.13,-6.54,-2.86,-2.42,-2.27,-0.19,966.57
15.881,-0.60,0.25,0.25,-3.13,-6.54,-2.86,-2.42,-2.27,-0.19,966.57
15.941,-0.51,0.53,0.54,-3.13,-6.54,-2.86,-2.42,-2.27,-0.19,966.57
15.943,-0.51,0.53,0.54,-3.13,-6.54,-2.86,-0.02,0.35,1.10,966.57
15.944,-0.51,0.53,0.54,-4.23,-8.58,-5.91,-0.02,0.35,1.10,966.57
15.947,-0.51,0.53,0.54,-4.23,-8.58,-5.91,-0.02,0.35,1.10,966.60
16.006,-0.40,0.49,0.30,-4.23,-8.58,-5.91,-0.02,0.35,1.10,966.60
16.007,-0.40,0.49,0.30,-4.23,-8.58,-5.91,2.57,0.58,1.29,966.60
16.008,-0.40,0.49,0.30,-5.52,-7.49,-3.31,2.57,0.58,1.29,966.60
16.031,-0.40,0.49,0.30,-5.52,-7.49,-3.31,2.57,0.58,1.29,966.60
16.068,-3.90,-1.03,0.78,-5.52,-7.49,-3.31,2.57,0.58,1.29,966.60
16.068,-3.90,-1.03,0.78,-5.52,-7.49,-3.31,2.82,0.83,0.92,966.60
16.069,-3.90,-1.03,0.78,28.66,7.75,-8.25,2.82,0.83,0.92,966.60
16.081,-3.90,-1.03,0.78,28.66,7.75,-8.25,2.82,0.83,0.92,966.65
16.131,-1.29,-1.26,0.28,28.66,7.75,-8.25,2.82,0.83,0.92,966.65
16.133,-1.29,-1.26,0.28,28.66,7.75,-8.25,3.35,0.83,3.10,966.65
16.134,-1.29,-1.26,0.28,2.86,11.76,-3.33,3.35,0.83,3.10,966.65
16.148,-1.29,-1.26,0.28,2.86,11.76,-3.33,3.35,0.83,3.10,966.65
16.195,0.08,-0.64,-0.26,2.86,11.76,-3.33,3.35,0.83,3.10,966.65
16.196,0.08,-0.64,-0.26,2.86,11.76,-3.33,2.76,2.29,1.35,966.65
16.196,0.08,-0.64,-0.26,-10.35,6.30,0.40,2.76,2.29,1.35,966.65
16.214,0.08,-0.64,-0.26,-10.35,6.30,0.40,2.76,2.29,1.35,966.65
16.258,0.50,-0.19,-0.36,-10.35,6.30,0.40,2.76,2.29,1.35,966.65
16.259,0.50,-0.19,-0.36,-10.35,6.30,0.40,1.09,-1.28,-1.06,966.65
16.26,0.50,-0.19,-0.36,-14.57,1.18,2.03,1.09,-1.28,-1.06,966.65
16.282,0.50,-0.19,-0.36,-14.57,1.18,2.03,1.09,-1.28,-1.06,966.62
16.321,0.41,-0.13,-0.20,-14.57,1.18,2.03,1.09,-1.28,-1.06,966.62
16.323,0.41,-0.13,-0.20,-14.57,1.18,2.03,-1.21,-1.27,-2.14,966.62
16.323,0.41,-0.13,-0.20,-13.70,-0.60,1.21,-1.21,-1.27,-2.14,966.62
16.348,0.41,-0.13,-0.20,-13.70,-0.60,1.21,-1.21,-1.27,-2.14,966.62
16.393,-1.00,-0.95,-0.01,-13.70,-0.60,1.21,-1.21,-1.27,-2.14,966.62
16.394,-1.00,-0.95,-0.01,-13.70,-0.60,1.21,-3.07,-0.08,-1.81,966.62
16.394,-1.00,-0.95,-0.01,0.42,6.44,-0.99,-3.07,-0.08,-1.81,966.62
16.419,-1.00,-0.95,-0.01,0.42,6.44,-0.99,-3.07,-0.08,-1.81,966.62
16.448,-3.39,-1.88,0.33,0.42,6.44,-0.99,-3.07,-0.08,-1.81,966.62
16.449,-3.39,-1.88,0.33,0.42,6.44,-0.99,-2.25,-3.39,-1.44,966.62
16.449,-3.39,-1.88,0.33,24.04,14.76,-3.01,-2.25,-3.39,-1.44,966.62
16.482,-3.39,-1.88,0.33,24.04,14.76,-3.01,-2.25,-3.39,-1.44,966.62
16.511,-0.82,0.02,0.17,24.04,14.76,-3.01,-2.25,-3.39,-1.44,966.62
16.512,-0.82,0.02,0.17,24.04,14.76,-3.01,-1.40,1.78,0.73,966.62
16.513,-0.82,0.02,0.17,-1.27,-3.46,-2.45,-1.40,1.78,0.73,966.62
16.548,-0.82,0.02,0.17,-1.27,-3.46,-2.45,-1.40,1.78,0.73,966.57
16.574,-0.87,0.54,-0.22,-1.27,-3.46,-2.45,-1.40,1.78,0.73,966.57
16.574,-0.87,0.54,-0.22,-1.27,-3.46,-2.45,-2.28,0.56,-0.30,966.57
16.575,-0.87,0.54,-0.22,-0.61,-8.38,0.24,-2.28,0.56,-0.30,966.57
16.614,-0.87,0.54,-0.22,-0.61,-8.38,0.24,-2.28,0.56,-0.30,966.57
16.638,-0.47,0.28,0.27,-0.61,-8.38,0.24,-2.28,0.56,-0.30,966.57
16.64,-0.47,0.28,0.27,-0.61,-8.38,0.24,-1.80,-2.09,-0.02,966.57
16.64,-0.47,0.28,0.27,-4.78,-5.66,-3.56,-1.80,-2.09,-0.02,966.57
16.681,-0.47,0.28,0.27,-4.78,-5.66,-3.56,-1.80,-2.09,-0.02,966.58
16.701,-0.54,0.49,0.51,-4.78,-5.66,-3.56,-1.80,-2.09,-0.02,966.58
16.702,-0.54,0.49,0.51,-4.78,-5.66,-3.56,0.42,0.66,1.29,966.58
16.702,-0.54,0.49,0.51,-4.28,-7.02,-6.19,0.42,0.66,1.29,966.58
16.748,-0.54,0.49,0.51,-4.28,-7.02,-6.19,0.42,0.66,1.29,966.58
16.765,-0.71,0.52,0.34,-4.28,-7.02,-6.19,0.42,0.66,1.29,966.58
16.767,-0.71,0.52,0.34,-4.28,-7.02,-6.19,2.46,1.00,1.32,966.58
16.768,-0.71,0.52,0.34,-2.67,-6.58,-4.77,2.46,1.00,1.32,966.58
16.815,-0.71,0.52,0.34,-2.67,-6.58,-4.77,2.46,1.00,1.32,966.58
16.828,-3.87,-1.03,0.45,-2.67,-6.58,-4.77,2.46,1.00,1.32,966.58
16.828,-3.87,-1.03,0.45,-2.67,-6.58,-4.77,2.79,-0.16,1.01,966.58
16.829,-3.87,-1.03,0.45,28.26,8.82,-5.66,2.79,-0.16,1.01,966.58
16.882,-3.87,-1.03,0.45,28.26,8.82,-5.66,2.79,-0.16,1.01,966.65
16.891,-0.87,-1.00,0.08,28.26,8.82,-5.66,2.79,-0.16,1.01,966.65
16.892,-0.87,-1.00,0.08,28.26,8.82,-5.66,3.53,0.54,2.43,966.65
16.893,-0.87,-1.00,0.08,-1.19,9.74,-2.03,3.53,0.54,2.43,966.65
16.948,-0.87,-1.00,0.08,-1.19,9.74,-2.03,3.53,0.54,2.43,966.65
16.954,0.12,-0.47,-0.39,-1.19,9.74,-2.03,3.53,0.54,2.43,966.65
16.954,0.12,-0.47,-0.39,-1.19,9.74,-2.03,2.81,1.34,0.59,966.65
16.955,0.12,-0.47,-0.39,-10.70,4.64,1.54,2.81,1.34,0.59,966.65
17.015,0.12,-0.47,-0.39,-10.70,4.64,1.54,2.81,1.34,0.59,966.62
17.018,0.43,-0.18,-0.33,-10.70,4.64,1.54,2.81,1.34,0.59,966.62
17.019,0.43,-0.18,-0.33,-10.70,4.64,1.54,0.75,-1.59,-1.46,966.62
17.02,0.43,-0.18,-0.33,-13.94,0.84,1.81,0.75,-1.59,-1.46,966.62
17.081,0.20,-0.31,-0.17,-13.94,0.84,1.81,0.75,-1.59,-1.46,966.62
17.082,0.20,-0.31,-0.17,-13.94,0.84,1.81,-1.52,-1.48,-2.05,966.62
17.083,0.20,-0.31,-0.17,-11.53,0.89,1.05,-1.52,-1.48,-2.05,966.62
17.083,0.20,-0.31,-0.17,-11.53,0.89,1.05,-1.52,-1.48,-2.05,966.62
17.146,-1.89,-1.25,0.20,-11.53,0.89,1.05,-1.52,-1.48,-2.05,966.62
17.147,-1.89,-1.25,0.20,-11.53,0.89,1.05,-3.31,0.08,-1.68,966.62
17.148,-1.89,-1.25,0.20,9.20,9.27,-3.18,-3.31,0.08,-1.68,966.62
17.149,-1.89,-1.25,0.20,9.20,9.27,-3.18,-3.31,0.08,-1.68,966.63
17.208,-2.62,-1.41,0.27,9.20,9.27,-3.18,-3.31,0.08,-1.68,966.63
17.21,-2.62,-1.41,0.27,9.20,9.27,-3.18,-1.97,-3.10,-0.89,966.63
17.211,-2.62,-1.41,0.27,16.43,10.33,-2.53,-1.97,-3.10,-0.89,966.63
17.214,-2.62,-1.41,0.27,16.43,10.33,-2.53,-1.97,-3.10,-0.89,966.63
17.271,-0.85,0.13,0.22,16.43,10.33,-2.53,-1.97,-3.10,-0.89,966.63
17.273,-0.85,0.13,0.22,16.43,10.33,-2.53,-1.50,1.43,0.32,966.63
17.274,-0.85,0.13,0.22,-0.91,-4.53,-2.98,-1.50,1.43,0.32,966.63
17.281,-0.85,0.13,0.22,-0.91,-4.53,-2.98,-1.50,1.43,0.32,966.63
17.335,-0.88,0.52,-0.03,-0.91,-4.53,-2.98,-1.50,1.43,0.32,966.63
17.337,-0.88,0.52,-0.03,-0.91,-4.53,-2.98,-2.18,-0.68,-0.35,966.63
17.339,-0.88,0.52,-0.03,-0.63,-8.29,-0.72,-2.18,-0.68,-0.35,966.63
17.348,-0.88,0.52,-0.03,-0.63,-8.29,-0.72,-2.18,-0.68,-0.35,966.59
17.398,-0.37,0.47,0.36,-0.63,-8.29,-0.72,-2.18,-0.68,-0.35,966.59
17.4,-0.37,0.47,0.36,-0.63,-8.29,-0.72,-1.51,-1.28,0.14,966.59
17.401,-0.37,0.47,0.36,-5.70,-7.69,-3.96,-1.51,-1.28,0.14,966.59
17.414,-0.37,0.47,0.36,-5.70,-7.69,-3.96,-1.51,-1.28,0.14,966.59
17.462,-0.38,0.57,0.38,-5.70,-7.69,-3.96,-1.51,-1.28,0.14,966.59
17.463,-0.38,0.57,0.38,-5.70,-7.69,-3.96,0.79,0.18,0.90,966.59
17.464,-0.38,0.57,0.38,-5.82,-8.13,-4.18,0.79,0.18,0.90,966.59
17.481,-0.38,0.57,0.38,-5.82,-8.13,-4.18,0.79,0.18,0.90,966.58
17.524,-1.05,0.46,0.46,-5.82,-8.13,-4.18,0.79,0.18,0.90,966.58
17.526,-1.05,0.46,0.46,-5.82,-8.13,-4.18,2.59,0.98,0.88,966.58
17.527,-1.05,0.46,0.46,0.66,-6.57,-5.12,2.59,0.98,0.88,966.58
17.548,-1.05,0.46,0.46,0.66,-6.57,-5.12,2.59,0.98,0.88,966.58
17.588,-3.90,-1.22,0.86,0.66,-6.57,-5.12,2.59,0.98,0.88,966.58
17.59,-3.90,-1.22,0.86,0.66,-6.57,-5.12,2.95,-0.36,1.09,966.58
17.591,-3.90,-1.22,0.86,28.48,10.31,-8.60,2.95,-0.36,1.09,966.58
17.615,-3.90,-1.22,0.86,28.48,10.31,-8.60,2.95,-0.36,1.09,966.68
17.651,-0.79,-1.06,0.18,28.48,10.31,-8.60,2.95,-0.36,1.09,966.68
17.654,-0.79,-1.06,0.18,28.48,10.31,-8.60,3.53,1.57,2.61,966.68
17.655,-0.79,-1.06,0.18,-2.04,10.38,-2.57,3.53,1.57,2.61,966.68
17.682,-0.79,-1.06,0.18,-2.04,10.38,-2.57,3.53,1.57,2.61,966.68
17.714,0.15,-0.61,-0.25,-2.04,10.38,-2.57,3.53,1.57,2.61,966.68
17.715,0.15,-0.61,-0.25,-2.04,10.38,-2.57,2.66,2.43,0.87,966.68
17.716,0.15,-0.61,-0.25,-10.99,6.18,-0.05,2.66,2.43,0.87,966.68
17.748,0.15,-0.61,-0.25,-10.99,6.18,-0.05,2.66,2.43,0.87,966.64
17.778,0.55,-0.20,-0.27,-10.99,6.18,-0.05,2.66,2.43,0.87,966.64
17.78,0.55,-0.20,-0.27,-10.99,6.18,-0.05,0.55,-0.85,-1.34,966.64
17.781,0.55,-0.20,-0.27,-15.01,1.39,0.56,0.55,-0.85,-1.34,966.64
17.815,0.55,-0.20,-0.27,-15.01,1.39,0.56,0.55,-0.85,-1.34,966.64
17.841,0.42,-0.36,-0.23,-15.01,1.39,0.56,0.55,-0.85,-1.34,966.64
17.843,0.42,-0.36,-0.23,-15.01,1.39,0.56,-1.64,-0.77,-2.66,966.64
17.843,0.42,-0.36,-0.23,-13.58,1.50,0.51,-1.64,-0.77,-2.66,966.64
17.881,0.42,-0.36,-0.23,-13.58,1.50,0.51,-1.64,-0.77,-2.66,966.64
17.905,-1.99,-1.58,-0.06,-13.58,1.50,0.51,-1.64,-0.77,-2.66,966.64
17.906,-1.99,-1.58,-0.06,-13.58,1.50,0.51,-3.17,-0.12,-3.11,966.64
17.907,-1.99,-1.58,-0.06,10.52,12.07,-1.68,-3.17,-0.12,-3.11,966.64
17.949,-1.99,-1.58,-0.06,10.52,12.07,-1.68,-3.17,-0.12,-3.11,966.62
17.97,-2.71,-1.39,0.21,10.52,12.07,-1.68,-3.17,-0.12,-3.11,966.62
17.971,-2.71,-1.39,0.21,10.52,12.07,-1.68,-1.68,-3.50,-1.14,966.62
17.972,-2.71,-1.39,0.21,17.60,9.57,-2.67,-1.68,-3.50,-1.14,966.62
18.015,-2.71,-1.39,0.21,17.60,9.57,-2.67,-1.68,-3.50,-1.14,966.62
18.035,-0.98,0.35,0.02,17.60,9.57,-2.67,-1.68,-3.50,-1.14,966.62
18.036,-0.98,0.35,0.02,17.60,9.57,-2.67,-1.80,2.25,0.22,966.62
18.037,-0.98,0.35,0.02,0.79,-7.12,-2.40,-1.80,2.25,0.22,966.62
18.082,-0.98,0.35,0.02,0.79,-7.12,-2.40,-1.80,2.25,0.22,966.56
18.094,-0.86,0.50,-0.20,0.79,-7.12,-2.40,-1.80,2.25,0.22,966.56
18.095,-0.86,0.50,-0.20,0.79,-7.12,-2.40,-2.34,-1.38,-0.39,966.56
18.096,-0.86,0.50,-0.20,-0.47,-8.49,-0.28,-2.34,-1.38,-0.39,966.56
18.148,-0.86,0.50,-0.20,-0.47,-8.49,-0.28,-2.34,-1.38,-0.39,966.56
18.158,-0.51,0.33,0.32,-0.47,-8.49,-0.28,-2.34,-1.38,-0.39,966.56
18.159,-0.51,0.33,0.32,-0.47,-8.49,-0.28,-1.63,-1.63,0.38,966.56
18.159,-0.51,0.33,0.32,-4.23,-6.39,-4.61,-1.63,-1.63,0.38,966.56
18.215,-0.51,0.33,0.32,-4.23,-6.39,-4.61,-1.63,-1.63,0.38,966.57
18.238,-0.54,0.40,0.37,-4.23,-6.39,-4.61,-1.63,-1.63,0.38,966.57
18.239,-0.54,0.40,0.37,-4.23,-6.39,-4.61,0.94,0.26,1.55,966.57
18.24,-0.54,0.40,0.37,-4.13,-6.20,-5.10,0.94,0.26,1.55,966.57
18.282,-0.54,0.40,0.37,-4.13,-6.20,-5.10,0.94,0.26,1.55,966.57
18.284,-1.08,0.44,0.32,-4.13,-6.20,-5.10,0.94,0.26,1.55,966.57
18.284,-1.08,0.44,0.32,-4.13,-6.20,-5.10,2.69,1.03,1.66,966.57
18.285,-1.08,0.44,0.32,0.97,-5.79,-4.82,2.69,1.03,1.66,966.57
18.348,-3.73,-1.15,0.32,0.97,-5.79,-4.82,2.69,1.03,1.66,966.57
18.349,-3.73,-1.15,0.32,0.97,-5.79,-4.82,2.75,-0.13,1.75,966.57
18.349,-3.73,-1.15,0.32,26.89,10.33,-4.66,2.75,-0.13,1.75,966.57
18.35,-3.73,-1.15,0.32,26.89,10.33,-4.66,2.75,-0.13,1.75,966.57
18.412,-0.57,-0.94,0.02,26.89,10.33,-4.66,2.75,-0.13,1.75,966.57
18.414,-0.57,-0.94,0.02,26.89,10.33,-4.66,3.30,1.33,2.48,966.57
18.415,-0.57,-0.94,0.02,-4.06,9.52,-2.31,3.30,1.33,2.48,966.57
18.416,-0.57,-0.94,0.02,-4.06,9.52,-2.31,3.30,1.33,2.48,966.61
18.475,0.34,-0.41,-0.36,-4.06,9.52,-2.31,3.30,1.33,2.48,966.61
18.477,0.34,-0.41,-0.36,-4.06,9.52,-2.31,2.49,1.23,0.19,966.61
18.477,0.34,-0.41,-0.36,-12.66,4.09,0.41,2.49,1.23,0.19,966.61
18.481,0.34,-0.41,-0.36,-12.66,4.09,0.41,2.49,1.23,0.19,966.61
18.538,0.51,-0.17,-0.28,-12.66,4.09,0.41,2.49,1.23,0.19,966.61
18.54,0.51,-0.17,-0.28,-12.66,4.09,0.41,0.50,-1.56,-2.10,966.61
18.541,0.51,-0.17,-0.28,-14.50,0.40,0.47,0.50,-1.56,-2.10,966.61
18.548,0.51,-0.17,-0.28,-14.50,0.40,0.47,0.50,-1.56,-2.10,966.62
18.601,0.10,-0.47,-0.18,-14.50,0.40,0.47,0.50,-1.56,-2.10,966.62
18.603,0.10,-0.47,-0.18,-14.50,0.40,0.47,-1.69,-1.41,-2.87,966.62
18.604,0.10,-0.47,-0.18,-10.30,1.78,0.19,-1.69,-1.41,-2.87,966.62
18.615,0.10,-0.47,-0.18,-10.30,1.78,0.19,-1.69,-1.41,-2.87,966.62
18.665,-2.78,-1.80,0.26,-10.30,1.78,0.19,-1.69,-1.41,-2.87,966.62
18.667,-2.78,-1.80,0.26,-10.30,1.78,0.19,-3.11,-1.69,-2.12,966.62
18.668,-2.78,-1.80,0.26,18.20,13.90,-3.91,-3.11,-1.69,-2.12,966.62
18.682,-2.78,-1.80,0.26,18.20,13.90,-3.91,-3.11,-1.69,-2.12,966.73
18.728,-1.79,-0.97,0.26,18.20,13.90,-3.91,-3.11,-1.69,-2.12,966.73
18.729,-1.79,-0.97,0.26,18.20,13.90,-3.91,-1.38,-2.29,-0.39,966.73
18.729,-1.79,-0.97,0.26,8.50,5.53,-2.83,-1.38,-2.29,-0.39,966.73
18.748,-1.79,-0.97,0.26,8.50,5.53,-2.83,-1.38,-2.29,-0.39,966.73
18.791,-1.10,0.19,0.03,8.50,5.53,-2.83,-1.38,-2.29,-0.39,966.73
18.792,-1.10,0.19,0.03,8.50,5.53,-2.83,-1.55,1.64,0.24,966.73
18.792,-1.10,0.19,0.03,1.83,-5.66,-1.87,-1.55,1.64,0.24,966.73
18.815,-1.10,0.19,0.03,1.83,-5.66,-1.87,-1.55,1.64,0.24,966.73
18.855,-0.83,0.41,-0.04,1.83,-5.66,-1.87,-1.55,1.64,0.24,966.73
18.857,-0.83,0.41,-0.04,1.83,-5.66,-1.87,-2.19,-2.31,-0.05,966.73
18.857,-0.83,0.41,-0.04,-1.00,-7.55,-0.44,-2.19,-2.31,-0.05,966.73
18.881,-0.83,0.41,-0.04,-1.00,-7.55,-0.44,-2.19,-2.31,-0.05,966.66
18.918,-0.41,0.46,0.42,-1.00,-7.55,-0.44,-2.19,-2.31,-0.05,966.66
18.918,-0.41,0.46,0.42,-1.00,-7.55,-0.44,-1.18,-0.78,0.85,966.66
18.918,-0.41,0.46,0.42,-5.33,-7.55,-4.66,-1.18,-0.78,0.85,966.66
18.948,-0.41,0.46,0.42,-5.33,-7.55,-4.66,-1.18,-0.78,0.85,966.66
18.981,-0.38,0.53,0.31,-5.33,-7.55,-4.66,-1.18,-0.78,0.85,966.66
18.982,-0.38,0.53,0.31,-5.33,-7.55,-4.66,1.69,0.64,1.61,966.66
18.983,-0.38,0.53,0.31,-5.90,-7.31,-3.74,1.69,0.64,1.61,966.66
19.015,-0.38,0.53,0.31,-5.90,-7.31,-3.74,1.69,0.64,1.61,966.65
19.044,-1.64,0.40,0.47,-5.90,-7.31,-3.74,1.69,0.64,1.61,966.65
19.046,-1.64,0.40,0.47,-5.90,-7.31,-3.74,2.91,1.77,1.36,966.65
19.046,-1.64,0.40,0.47,6.39,-5.26,-5.94,2.91,1.77,1.36,966.65
19.082,-1.64,0.40,0.47,6.39,-5.26,-5.94,2.91,1.77,1.36,966.65
19.107,-3.40,-1.19,0.54,6.39,-5.26,-5.94,2.91,1.77,1.36,966.65
19.108,-3.40,-1.19,0.54,6.39,-5.26,-5.94,2.82,-0.40,1.97,966.65
19.109,-3.40,-1.19,0.54,23.52,11.11,-6.34,2.82,-0.40,1.97,966.65
19.149,-3.40,-1.19,0.54,23.52,11.11,-6.34,2.82,-0.40,1.97,966.67
19.182,-0.49,-0.92,0.03,23.52,11.11,-6.34,2.82,-0.40,1.97,966.67
19.187,-0.49,-0.92,0.03,23.52,11.11,-6.34,3.19,1.83,2.30,966.67
19.187,-0.49,-0.92,0.03,-4.76,9.68,-2.37,3.19,1.83,2.30,966.67
19.215,-0.49,-0.92,0.03,-4.76,9.68,-2.37,3.19,1.83,2.30,966.67
19.234,0.30,-0.46,-0.33,-4.76,9.68,-2.37,3.19,1.83,2.30,966.67
19.235,0.30,-0.46,-0.33,-4.76,9.68,-2.37,2.40,1.09,0.04,966.67
19.236,0.30,-0.46,-0.33,-12.33,4.81,0.29,2.40,1.09,0.04,966.67
19.281,0.30,-0.46,-0.33,-12.33,4.81,0.29,2.40,1.09,0.04,966.64
19.304,0.48,-0.17,-0.28,-12.33,4.81,0.29,2.40,1.09,0.04,966.64
19.304,0.48,-0.17,-0.28,-12.33,4.81,0.29,0.35,-0.99,-2.18,966.64
19.305,0.48,-0.17,-0.28,-14.15,0.68,0.30,0.35,-0.99,-2.18,966.64
19.349,0.48,-0.17,-0.28,-14.15,0.68,0.30,0.35,-0.99,-2.18,966.64
19.361,0.21,-0.40,-0.19,-14.15,0.68,0.30,0.35,-0.99,-2.18,966.64
19.363,0.21,-0.40,-0.19,-14.15,0.68,0.30,-1.75,-1.35,-2.99,966.64
19.364,0.21,-0.40,-0.19,-11.35,1.28,0.03,-1.75,-1.35,-2.99,966.64
19.416,0.21,-0.40,-0.19,-11.35,1.28,0.03,-1.75,-1.35,-2.99,966.64
19.437,-2.85,-1.76,0.08,-11.35,1.28,0.03,-1.75,-1.35,-2.99,966.64
19.438,-2.85,-1.76,0.08,-11.35,1.28,0.03,-3.08,-0.85,-2.71,966.64
19.439,-2.85,-1.76,0.08,19.12,13.45,-2.86,-3.08,-0.85,-2.71,966.64
19.482,-2.85,-1.76,0.08,19.12,13.45,-2.86,-3.08,-0.85,-2.71,966.72
19.487,-2.04,-0.97,0.13,19.12,13.45,-2.86,-3.08,-0.85,-2.71,966.72
19.488,-2.04,-0.97,0.13,19.12,13.45,-2.86,-1.51,-1.75,-0.23,966.72
19.488,-2.04,-0.97,0.13,10.98,5.59,-2.52,-1.51,-1.75,-0.23,966.72
19.549,-2.04,-0.97,0.13,10.98,5.59,-2.52,-1.51,-1.75,-0.23,966.72
19.55,-0.97,0.32,-0.21,10.98,5.59,-2.52,-1.51,-1.75,-0.23,966.72
19.551,-0.97,0.32,-0.21,10.98,5.59,-2.52,-2.04,2.08,-0.03,966.72
19.552,-0.97,0.32,-0.21,0.80,-6.74,-0.92,-2.04,2.08,-0.03,966.72
19.615,-0.65,0.40,-0.11,0.80,-6.74,-0.92,-2.04,2.08,-0.03,966.72
19.616,-0.65,0.40,-0.11,0.80,-6.74,-0.92,-2.52,-2.73,-0.41,966.72
19.616,-0.65,0.40,-0.11,-2.64,-7.20,-0.98,-2.52,-2.73,-0.41,966.72
19.617,-0.65,0.40,-0.11,-2.64,-7.20,-0.98,-2.52,-2.73,-0.41,966.66
19.678,-0.51,0.31,0.48,-2.64,-7.20,-0.98,-2.52,-2.73,-0.41,966.66
19.68,-0.51,0.31,0.48,-2.64,-7.20,-0.98,-1.16,-0.41,0.49,966.66
19.681,-0.51,0.31,0.48,-4.20,-5.91,-6.61,-1.16,-0.41,0.49,966.66
19.681,-0.51,0.31,0.48,-4.20,-5.91,-6.61,-1.16,-0.41,0.49,966.66
19.741,-0.62,0.40,0.37,-4.20,-5.91,-6.61,-1.16,-0.41,0.49,966.66
19.743,-0.62,0.40,0.37,-4.20,-5.91,-6.61,1.47,-0.05,1.55,966.66
19.743,-0.62,0.40,0.37,-3.42,-6.03,-5.40,1.47,-0.05,1.55,966.66
19.748,-0.62,0.40,0.37,-3.42,-6.03,-5.40,1.47,-0.05,1.55,966.65
19.804,-1.92,0.29,0.39,-3.42,-6.03,-5.40,1.47,-0.05,1.55,966.65
19.806,-1.92,0.29,0.39,-3.42,-6.03,-5.40,2.64,1.29,1.36,966.65
19.807,-1.92,0.29,0.39,9.35,-4.39,-5.93,2.64,1.29,1.36,966.65
19.815,-1.92,0.29,0.39,9.35,-4.39,-5.93,2.64,1.29,1.36,966.65
19.867,-2.95,-1.33,0.30,9.35,-4.39,-5.93,2.64,1.29,1.36,966.65
19.868,-2.95,-1.33,0.30,9.35,-4.39,-5.93,3.11,-0.84,2.23,966.65
19.869,-2.95,-1.33,0.30,19.20,12.31,-4.35,3.11,-0.84,2.23,966.65
19.881,-2.95,-1.33,0.30,19.20,12.31,-4.35,3.11,-0.84,2.23,966.65
19.931,-0.35,-0.86,-0.16,19.20,12.31,-4.35,3.11,-0.84,2.23,966.65
19.933,-0.35,-0.86,-0.16,19.20,12.31,-4.35,3.64,2.03,1.92,966.65
19.934,-0.35,-0.86,-0.16,-6.12,8.52,-0.95,3.64,2.03,1.92,966.65
19.953,-0.35,-0.86,-0.16,-6.12,8.52,-0.95,3.64,2.03,1.92,966.65
19.994,0.29,-0.31,-0.44,-6.12,8.52,-0.95,3.64,2.03,1.92,966.65
19.995,0.29,-0.31,-0.44,-6.12,8.52,-0.95,2.16,0.52,-0.15,966.65
19.995,0.29,-0.31,-0.44,-12.18,2.66,1.25,2.16,0.52,-0.15,966.65
20.015,0.29,-0.31,-0.44,-12.18,2.66,1.25,2.16,0.52,-0.15,966.65
20.057,0.42,-0.15,-0.28,-12.18,2.66,1.25,2.16,0.52,-0.15,966.65
20.058,0.42,-0.15,-0.28,-12.18,2.66,1.25,-0.35,-1.73,-2.02,966.65
20.058,0.42,-0.15,-0.28,-13.65,-0.05,0.65,-0.35,-1.73,-2.02,966.65
20.082,0.42,-0.15,-0.28,-13.65,-0.05,0.65,-0.35,-1.73,-2.02,966.64
20.121,0.12,-0.49,-0.09,-13.65,-0.05,0.65,-0.35,-1.73,-2.02,966.64
20.123,0.12,-0.49,-0.09,-13.65,-0.05,0.65,-2.34,-1.19,-2.51,966.64
20.123,0.12,-0.49,-0.09,-10.43,1.99,-0.76,-2.34,-1.19,-2.51,966.64
20.149,0.12,-0.49,-0.09,-10.43,1.99,-0.76,-2.34,-1.19,-2.51,966.64
20.185,-3.04,-1.79,0.13,-10.43,1.99,-0.76,-2.34,-1.19,-2.51,966.64
20.187,-3.04,-1.79,0.13,-10.43,1.99,-0.76,-2.97,-0.99,-2.18,966.64
20.188,-3.04,-1.79,0.13,20.87,13.86,-3.08,-2.97,-0.99,-2.18,966.64
20.219,-3.04,-1.79,0.13,20.87,13.86,-3.08,-2.97,-0.99,-2.18,966.73
20.247,-1.70,-0.79,0.09,20.87,13.86,-3.08,-2.97,-0.99,-2.18,966.73
20.248,-1.70,-0.79,0.09,20.87,13.86,-3.08,-1.49,-1.68,0.04,966.73
20.248,-1.70,-0.79,0.09,7.60,4.08,-1.87,-1.49,-1.68,0.04,966.73
20.282,-1.70,-0.79,0.09,7.60,4.08,-1.87,-1.49,-1.68,0.04,966.73
20.311,-0.90,0.44,-0.08,7.60,4.08,-1.87,-1.49,-1.68,0.04,966.73
20.313,-0.90,0.44,-0.08,7.60,4.08,-1.87,-2.31,2.01,0.15,966.73
20.314,-0.90,0.44,-0.08,-0.11,-7.56,-1.90,-2.31,2.01,0.15,966.73
20.351,-0.90,0.44,-0.08,-0.11,-7.56,-1.90,-2.31,2.01,0.15,966.73
20.385,-0.61,0.50,-0.06,-0.11,-7.56,-1.90,-2.31,2.01,0.15,966.73
20.387,-0.61,0.50,-0.06,-0.11,-7.56,-1.90,-2.37,-2.67,-0.37,966.73
20.387,-0.61,0.50,-0.06,-3.26,-7.96,-1.16,-2.37,-2.67,-0.37,966.73
20.415,-0.61,0.50,-0.06,-3.26,-7.96,-1.16,-2.37,-2.67,-0.37,966.70
20.437,-0.53,0.36,0.54,-3.26,-7.96,-1.16,-2.37,-2.67,-0.37,966.70
20.438,-0.53,0.36,0.54,-3.26,-7.96,-1.16,-0.67,-0.69,0.41,966.70
20.438,-0.53,0.36,0.54,-4.23,-6.21,-6.64,-0.67,-0.69,0.41,966.70
20.482,-0.53,0.36,0.54,-4.23,-6.21,-6.64,-0.67,-0.69,0.41,966.70
20.501,-0.55,0.34,0.45,-4.23,-6.21,-6.64,-0.67,-0.69,0.41,966.70
20.501,-0.55,0.34,0.45,-4.23,-6.21,-6.64,1.90,0.33,1.23,966.70
20.502,-0.55,0.34,0.45,-4.17,-5.44,-5.64,1.90,0.33,1.23,966.70
20.549,-0.55,0.34,0.45,-4.17,-5.44,-5.64,1.90,0.33,1.23,966.71
20.564,-2.75,-0.24,0.64,-4.17,-5.44,-5.64,1.90,0.33,1.23,966.71
20.566,-2.75,-0.24,0.64,-4.17,-5.44,-5.64,2.62,1.47,1.08,966.71
20.566,-2.75,-0.24,0.64,17.40,0.63,-8.17,2.62,1.47,1.08,966.71
20.616,-2.75,-0.24,0.64,17.40,0.63,-8.17,2.62,1.47,1.08,966.71
20.635,-2.23,-1.33,0.44,17.40,0.63,-8.17,2.62,1.47,1.08,966.71
20.637,-2.23,-1.33,0.44,17.40,0.63,-8.17,3.26,-0.97,2.49,966.71
20.638,-2.23,-1.33,0.44,12.07,12.43,-5.25,3.26,-0.97,2.49,966.71
20.682,-2.23,-1.33,0.44,12.07,12.43,-5.25,3.26,-0.97,2.49,966.68
20.691,-0.18,-0.72,-0.20,12.07,12.43,-5.25,3.26,-0.97,2.49,966.68
20.692,-0.18,-0.72,-0.20,12.07,12.43,-5.25,3.75,2.38,1.48,966.68
20.693,-0.18,-0.72,-0.20,-7.83,7.06,-0.40,3.75,2.38,1.48,966.68
20.749,-0.18,-0.72,-0.20,-7.83,7.06,-0.40,3.75,2.38,1.48,966.68
20.754,0.34,-0.25,-0.51,-7.83,7.06,-0.40,3.75,2.38,1.48,966.68
20.754,0.34,-0.25,-0.51,-7.83,7.06,-0.40,2.23,0.59,-0.57,966.68
20.755,0.34,-0.25,-0.51,-12.69,1.80,2.17,2.23,0.59,-0.57,966.68
20.816,0.34,-0.25,-0.51,-12.69,1.80,2.17,2.23,0.59,-0.57,966.64
20.818,0.39,-0.20,-0.32,-12.69,1.80,2.17,2.23,0.59,-0.57,966.64
20.819,0.39,-0.20,-0.32,-12.69,1.80,2.17,-0.28,-1.14,-2.36,966.64
20.82,0.39,-0.20,-0.32,-13.19,-0.03,0.90,-0.28,-1.14,-2.36,966.64
20.881,-0.12,-0.75,-0.17,-13.19,-0.03,0.90,-0.28,-1.14,-2.36,966.64
20.882,-0.12,-0.75,-0.17,-13.19,-0.03,0.90,-2.25,-0.82,-2.72,966.64
20.883,-0.12,-0.75,-0.17,-7.86,3.99,-0.44,-2.25,-0.82,-2.72,966.64
20.883,-0.12,-0.75,-0.17,-7.86,3.99,-0.44,-2.25,-0.82,-2.72,966.64
20.945,-3.21,-2.03,-0.06,-7.86,3.99,-0.44,-2.25,-0.82,-2.72,966.64
20.947,-3.21,-2.03,-0.06,-7.86,3.99,-0.44,-2.80,-0.64,-2.26,966.64
20.948,-3.21,-2.03,-0.06,22.95,15.68,-1.95,-2.80,-0.64,-2.26,966.64
20.949,-3.21,-2.03,-0.06,22.95,15.68,-1.95,-2.80,-0.64,-2.26,966.64
21.008,-1.49,-0.48,-0.02,22.95,15.68,-1.95,-2.80,-0.64,-2.26,966.64
21.01,-1.49,-0.48,-0.02,22.95,15.68,-1.95,-1.52,-0.72,0.01,966.64
21.01,-1.49,-0.48,-0.02,5.89,0.70,-2.22,-1.52,-0.72,0.01,966.64
21.021,-1.49,-0.48,-0.02,5.89,0.70,-2.22,-1.52,-0.72,0.01,966.69
21.072,-0.93,0.39,-0.15,5.89,0.70,-2.22,-1.52,-0.72,0.01,966.69
21.073,-0.93,0.39,-0.15,5.89,0.70,-2.22,-2.23,0.49,-0.28,966.69
21.074,-0.93,0.39,-0.15,0.57,-7.50,-1.79,-2.23,0.49,-0.28,966.69
21.082,-0.93,0.39,-0.15,0.57,-7.50,-1.79,-2.23,0.49,-0.28,966.69
21.135,-0.56,0.33,0.13,0.57,-7.50,-1.79,-2.23,0.49,-0.28,966.69
21.136,-0.56,0.33,0.13,0.57,-7.50,-1.79,-2.26,-2.56,-0.34,966.69
21.137,-0.56,0.33,0.13,-3.47,-6.66,-3.62,-2.26,-2.56,-0.34,966.69
21.15,-0.56,0.33,0.13,-3.47,-6.66,-3.62,-2.26,-2.56,-0.34,966.70
21.198,-0.51,0.41,0.45,-3.47,-6.66,-3.62,-2.26,-2.56,-0.34,966.70
21.2,-0.51,0.41,0.45,-3.47,-6.66,-3.62,-0.48,-0.79,0.65,966.70
21.201,-0.51,0.41,0.45,-4.18,-7.00,-6.37,-0.48,-0.79,0.65,966.70
21.216,-0.51,0.41,0.45,-4.18,-7.00,-6.37,-0.48,-0.79,0.65,966.70
21.261,-0.37,0.42,0.31,-4.18,-7.00,-6.37,-0.48,-0.79,0.65,966.70
21.262,-0.37,0.42,0.31,-4.18,-7.00,-6.37,2.14,-0.50,1.30,966.70
21.262,-0.37,0.42,0.31,-5.89,-6.48,-4.39,2.14,-0.50,1.30,966.70
21.282,-0.37,0.42,0.31,-5.89,-6.48,-4.39,2.14,-0.50,1.30,966.68
21.324,-3.13,-0.22,0.56,-5.89,-6.48,-4.39,2.14,-0.50,1.30,966.68
21.325,-3.13,-0.22,0.56,-5.89,-6.48,-4.39,2.99,0.90,0.94,966.68
21.326,-3.13,-0.22,0.56,21.15,0.04,-7.04,2.99,0.90,0.94,966.68
21.356,-3.13,-0.22,0.56,21.15,0.04,-7.04,2.99,0.90,0.94,966.68
21.387,-2.36,-1.43,0.45,21.15,0.04,-7.04,2.99,0.90,0.94,966.68
21.388,-2.36,-1.43,0.45,21.15,0.04,-7.04,3.59,-0.38,2.85,966.68
21.388,-2.36,-1.43,0.45,13.29,13.29,-5.25,3.59,-0.38,2.85,966.68
21.416,-2.36,-1.43,0.45,13.29,13.29,-5.25,3.59,-0.38,2.85,966.68
21.451,-0.12,-0.83,-0.18,13.29,13.29,-5.25,3.59,-0.38,2.85,966.68
21.452,-0.12,-0.83,-0.18,13.29,13.29,-5.25,3.52,2.58,2.15,966.68
21.453,-0.12,-0.83,-0.18,-8.40,8.44,-0.56,3.52,2.58,2.15,966.68
21.482,-0.12,-0.83,-0.18,-8.40,8.44,-0.56,3.52,2.58,2.15,966.59
21.514,0.53,-0.28,-0.36,-8.40,8.44,-0.56,3.52,2.58,2.15,966.59
21.515,0.53,-0.28,-0.36,-8.40,8.44,-0.56,1.78,-0.05,-0.40,966.59
21.515,0.53,-0.28,-0.36,-14.65,2.59,0.99,1.78,-0.05,-0.40,966.59
21.549,0.53,-0.28,-0.36,-14.65,2.59,0.99,1.78,-0.05,-0.40,966.59
21.578,0.52,-0.23,-0.22,-14.65,2.59,0.99,1.78,-0.05,-0.40,966.59
21.578,0.52,-0.23,-0.22,-14.65,2.59,0.99,-0.54,-1.24,-2.46,966.59
21.579,0.52,-0.23,-0.22,-14.64,0.64,0.33,-0.54,-1.24,-2.46,966.59
21.624,0.52,-0.23,-0.22,-14.64,0.64,0.33,-0.54,-1.24,-2.46,966.59
21.652,0.10,-0.61,-0.14,-14.64,0.64,0.33,-0.54,-1.24,-2.46,966.59
21.653,0.10,-0.61,-0.14,-14.64,0.64,0.33,-2.41,-0.29,-3.00,966.59
21.653,0.10,-0.61,-0.14,-10.12,2.86,-0.61,-2.41,-0.29,-3.00,966.59
21.683,0.10,-0.61,-0.14,-10.12,2.86,-0.61,-2.41,-0.29,-3.00,966.59
21.704,-3.38,-2.35,0.06,-10.12,2.86,-0.61,-2.41,-0.29,-3.00,966.59
21.706,-3.38,-2.35,0.06,-10.12,2.86,-0.61,-3.29,-0.93,-3.39,966.59
21.707,-3.38,-2.35,0.06,24.68,18.53,-3.03,-3.29,-0.93,-3.39,966.59
21.749,-3.38,-2.35,0.06,24.68,18.53,-3.03,-3.29,-0.93,-3.39,966.75
21.767,-1.57,-0.84,0.08,24.68,18.53,-3.03,-3.29,-0.93,-3.39,966.75
21.768,-1.57,-0.84,0.08,24.68,18.53,-3.03,-1.28,-1.58,-0.32,966.75
21.768,-1.57,-0.84,0.08,6.81,3.63,-2.53,-1.28,-1.58,-0.32,966.75
21.816,-1.57,-0.84,0.08,6.81,3.63,-2.53,-1.28,-1.58,-0.32,966.75
21.831,-0.89,0.45,-0.12,6.81,3.63,-2.53,-1.28,-1.58,-0.32,966.75
21.832,-0.89,0.45,-0.12,6.81,3.63,-2.53,-1.80,1.67,-0.37,966.75
21.834,-0.89,0.45,-0.12,0.57,-8.83,-2.06,-1.80,1.67,-0.37,966.75
21.894,-0.89,0.45,-0.12,0.57,-8.83,-2.06,-1.80,1.67,-0.37,966.71
21.896,-0.76,0.49,-0.09,0.57,-8.83,-2.06,-1.80,1.67,-0.37,966.71
21.897,-0.76,0.49,-0.09,0.57,-8.83,-2.06,-2.27,-3.09,-0.90,966.71
21.897,-0.76,0.49,-0.09,-1.02,-9.24,-1.47,-2.27,-3.09,-0.90,966.71
21.949,-0.76,0.49,-0.09,-1.02,-9.24,-1.47,-2.27,-3.09,-0.90,966.71
21.957,-0.59,0.44,0.52,-1.02,-9.24,-1.47,-2.27,-3.09,-0.90,966.71
21.957,-0.59,0.44,0.52,-1.02,-9.24,-1.47,-0.43,-0.70,0.66,966.71
21.958,-0.59,0.44,0.52,-3.02,-8.39,-7.03,-0.43,-0.70,0.66,966.71
22.016,-0.59,0.44,0.52,-3.02,-8.39,-7.03,-0.43,-0.70,0.66,966.71
22.02,-0.54,0.41,0.36,-3.02,-8.39,-7.03,-0.43,-0.70,0.66,966.71
22.021,-0.54,0.41,0.36,-3.02,-8.39,-7.03,2.11,0.80,1.77,966.71
22.021,-0.54,0.41,0.36,-3.83,-7.27,-5.41,2.11,0.80,1.77,966.71
22.083,-0.54,0.41,0.36,-3.83,-7.27,-5.41,2.11,0.80,1.77,966.68
22.084,-3.22,-0.50,0.37,-3.83,-7.27,-5.41,2.11,0.80,1.77,966.68
22.085,-3.22,-0.50,0.37,-3.83,-7.27,-5.41,2.67,1.28,1.52,966.68
22.086,-3.22,-0.50,0.37,22.34,2.10,-5.86,2.67,1.28,1.52,966.68
22.147,-2.01,-1.63,0.33,22.34,2.10,-5.86,2.67,1.28,1.52,966.68
22.149,-2.01,-1.63,0.33,22.34,2.10,-5.86,3.11,0.01,3.35,966.68
22.15,-2.01,-1.63,0.33,22.34,2.10,-5.86,3.11,0.01,3.35,966.68
22.151,-2.01,-1.63,0.33,10.08,14.79,-4.97,3.11,0.01,3.35,966.68
22.211,-0.06,-0.91,-0.24,10.08,14.79,-4.97,3.11,0.01,3.35,966.68
22.212,-0.06,-0.91,-0.24,10.08,14.79,-4.97,3.01,2.65,2.14,966.68
22.212,-0.06,-0.91,-0.24,-8.67,8.61,-0.83,3.01,2.65,2.14,966.68
22.216,-0.06,-0.91,-0.24,-8.67,8.61,-0.83,3.01,2.65,2.14,966.62
22.276,0.58,-0.23,-0.33,-8.67,8.61,-0.83,3.01,2.65,2.14,966.62
22.277,0.58,-0.23,-0.33,-8.67,8.61,-0.83,1.79,-0.14,-0.31,966.62
22.278,0.58,-0.23,-0.33,-14.94,1.42,-0.02,1.79,-0.14,-0.31,966.62
22.306,0.58,-0.23,-0.33,-14.94,1.42,-0.02,1.79,-0.14,-0.31,966.62
22.338,0.51,-0.14,-0.22,-14.94,1.42,-0.02,1.79,-0.14,-0.31,966.62
22.338,0.51,-0.14,-0.22,-14.94,1.42,-0.02,-0.34,-1.21,-2.43,966.62
22.339,0.51,-0.14,-0.22,-14.25,-0.87,-0.40,-0.34,-1.21,-2.43,966.62
22.349,0.51,-0.14,-0.22,-14.25,-0.87,-0.40,-0.34,-1.21,-2.43,966.62
22.401,-0.21,-0.83,-0.14,-14.25,-0.87,-0.40,-0.34,-1.21,-2.43,966.62
22.403,-0.21,-0.83,-0.14,-14.25,-0.87,-0.40,-2.27,-0.70,-3.06,966.62
22.403,-0.21,-0.83,-0.14,-6.69,4.49,-1.11,-2.27,-0.70,-3.06,966.62
22.419,-0.21,-0.83,-0.14,-6.69,4.49,-1.11,-2.27,-0.70,-3.06,966.62
22.464,-3.40,-2.32,0.06,-6.69,4.49,-1.11,-2.27,-0.70,-3.06,966.62
22.465,-3.40,-2.32,0.06,-6.69,4.49,-1.11,-2.67,-1.93,-2.53,966.62
22.465,-3.40,-2.32,0.06,24.94,18.16,-2.93,-2.67,-1.93,-2.53,966.62
22.484,-3.40,-2.32,0.06,24.94,18.16,-2.93,-2.67,-1.93,-2.53,966.62
22.528,-1.15,-0.38,-0.09,24.94,18.16,-2.93,-2.67,-1.93,-2.53,966.62
22.53,-1.15,-0.38,-0.09,24.94,18.16,-2.93,-1.34,0.28,-0.05,966.62
22.53,-1.15,-0.38,-0.09,2.91,-0.75,-1.79,-1.34,0.28,-0.05,966.62
22.554,-1.15,-0.38,-0.09,2.91,-0.75,-1.79,-1.34,0.28,-0.05,966.69
22.591,-0.91,0.43,-0.31,2.91,-0.75,-1.79,-1.34,0.28,-0.05,966.69
22.591,-0.91,0.43,-0.31,2.91,-0.75,-1.79,-2.12,0.38,-0.95,966.69
22.592,-0.91,0.43,-0.31,0.90,-8.69,-0.58,-2.12,0.38,-0.95,966.69
22.627,-0.91,0.43,-0.31,0.90,-8.69,-0.58,-2.12,0.38,-0.95,966.69
22.663,-0.60,0.38,0.00,0.90,-8.69,-0.58,-2.12,0.38,-0.95,966.69
22.665,-0.60,0.38,0.00,0.90,-8.69,-0.58,-2.17,-2.88,-0.76,966.69
22.666,-0.60,0.38,0.00,-2.55,-8.12,-2.72,-2.17,-2.88,-0.76,966.69
22.682,-0.60,0.38,0.00,-2.55,-8.12,-2.72,-2.17,-2.88,-0.76,966.66
22.718,-0.80,0.42,0.49,-2.55,-8.12,-2.72,-2.17,-2.88,-0.76,966.66
22.719,-0.80,0.42,0.49,-2.55,-8.12,-2.72,-0.20,-0.24,0.80,966.66
22.72,-0.80,0.42,0.49,-0.81,-8.05,-7.38,-0.20,-0.24,0.80,966.66
22.75,-0.80,0.42,0.49,-0.81,-8.05,-7.38,-0.20,-0.24,0.80,966.66
22.781,-0.76,0.30,0.38,-0.81,-8.05,-7.38,-0.20,-0.24,0.80,966.66
22.782,-0.76,0.30,0.38,-0.81,-8.05,-7.38,2.13,0.59,1.90,966.66
22.783,-0.76,0.30,0.38,-1.57,-6.08,-6.11,2.13,0.59,1.90,966.66
22.816,-0.76,0.30,0.38,-1.57,-6.08,-6.11,2.13,0.59,1.90,966.65
22.844,-3.56,-0.93,0.41,-1.57,-6.08,-6.11,2.13,0.59,1.90,966.65
22.845,-3.56,-0.93,0.41,-1.57,-6.08,-6.11,2.59,0.82,1.85,966.65
22.846,-3.56,-0.93,0.41,25.74,6.53,-6.45,2.59,0.82,1.85,966.65
22.883,-3.56,-0.93,0.41,25.74,6.53,-6.45,2.59,0.82,1.85,966.65
22.908,-1.42,-1.38,0.17,25.74,6.53,-6.45,2.59,0.82,1.85,966.65
22.909,-1.42,-1.38,0.17,25.74,6.53,-6.45,3.14,0.10,3.50,966.65
22.91,-1.42,-1.38,0.17,4.36,12.54,-3.71,3.14,0.10,3.50,966.65
22.949,-1.42,-1.38,0.17,4.36,12.54,-3.71,3.14,0.10,3.50,966.65
22.971,0.03,-0.81,-0.23,4.36,12.54,-3.71,3.14,0.10,3.50,966.65
22.972,0.03,-0.81,-0.23,4.36,12.54,-3.71,3.08,2.33,1.76,966.65
22.972,0.03,-0.81,-0.23,-9.50,7.53,-1.16,3.08,2.33,1.76,966.65
23.031,0.03,-0.81,-0.23,-9.50,7.53,-1.16,3.08,2.33,1.76,966.62
23.08,0.45,-0.27,-0.30,-9.50,7.53,-1.16,3.08,2.33,1.76,966.62
23.081,0.45,-0.27,-0.30,-9.50,7.53,-1.16,1.54,-0.28,-0.36,966.62
23.081,0.45,-0.27,-0.30,-13.62,1.73,-0.38,1.54,-0.28,-0.36,966.62
23.082,0.45,-0.27,-0.30,-13.62,1.73,-0.38,1.54,-0.28,-0.36,966.62
23.097,0.44,-0.22,-0.21,-13.62,1.73,-0.38,1.54,-0.28,-0.36,966.62
23.098,0.44,-0.22,-0.21,-13.62,1.73,-0.38,-0.62,-1.18,-2.27,966.62
23.098,0.44,-0.22,-0.21,-13.56,0.02,-0.67,-0.62,-1.18,-2.27,966.62
23.149,0.44,-0.22,-0.21,-13.56,0.02,-0.67,-0.62,-1.18,-2.27,966.61
23.16,-0.32,-0.93,-0.19,-13.56,0.02,-0.67,-0.62,-1.18,-2.27,966.61
23.165,-0.32,-0.93,-0.19,-13.56,0.02,-0.67,-2.45,-0.44,-3.03,966.61
23.165,-0.32,-0.93,-0.19,-5.61,5.57,-0.98,-2.45,-0.44,-3.03,966.61
23.217,-0.32,-0.93,-0.19,-5.61,5.57,-0.98,-2.45,-0.44,-3.03,966.61
23.224,-3.40,-2.19,-0.11,-5.61,5.57,-0.98,-2.45,-0.44,-3.03,966.61
23.225,-3.40,-2.19,-0.11,-5.61,5.57,-0.98,-2.40,-2.04,-2.66,966.61
23.226,-3.40,-2.19,-0.11,24.90,16.94,-1.36,-2.40,-2.04,-2.66,966.61
23.283,-3.40,-2.19,-0.11,24.90,16.94,-1.36,-2.40,-2.04,-2.66,966.66
23.3,-1.20,-0.27,-0.08,24.90,16.94,-1.36,-2.40,-2.04,-2.66,966.66
23.301,-1.20,-0.27,-0.08,24.90,16.94,-1.36,-1.60,0.54,-0.16,966.66
23.302,-1.20,-0.27,-0.08,3.40,-1.70,-2.23,-1.60,0.54,-0.16,966.66
23.35,-1.20,-0.27,-0.08,3.40,-1.70,-2.23,-1.60,0.54,-0.16,966.66
23.351,-1.01,0.54,-0.21,3.40,-1.70,-2.23,-1.60,0.54,-0.16,966.66
23.351,-1.01,0.54,-0.21,3.40,-1.70,-2.23,-2.34,-0.56,-0.86,966.66
23.351,-1.01,0.54,-0.21,1.69,-9.50,-1.51,-2.34,-0.56,-0.86,966.66
23.414,-0.57,0.40,0.22,1.69,-9.50,-1.51,-2.34,-0.56,-0.86,966.66
23.414,-0.57,0.40,0.22,1.69,-9.50,-1.51,-2.11,-2.82,-0.43,966.66
23.415,-0.57,0.40,0.22,-3.06,-7.94,-4.63,-2.11,-2.82,-0.43,966.66
23.415,-0.57,0.40,0.22,-3.06,-7.94,-4.63,-2.11,-2.82,-0.43,966.69
23.478,-0.57,0.49,0.51,-3.06,-7.94,-4.63,-2.11,-2.82,-0.43,966.69
23.479,-0.57,0.49,0.51,-3.06,-7.94,-4.63,0.12,0.06,1.24,966.69
23.479,-0.57,0.49,0.51,-3.29,-8.12,-7.54,0.12,0.06,1.24,966.69
23.482,-0.57,0.49,0.51,-3.29,-8.12,-7.54,0.12,0.06,1.24,966.69
23.541,-0.57,0.38,0.26,-3.29,-8.12,-7.54,0.12,0.06,1.24,966.69
23.543,-0.57,0.38,0.26,-3.29,-8.12,-7.54,2.49,0.69,1.71,966.69
23.544,-0.57,0.38,0.26,-3.63,-6.40,-4.88,2.49,0.69,1.71,966.69
23.549,-0.57,0.38,0.26,-3.63,-6.40,-4.88,2.49,0.69,1.71,966.69
23.604,-3.78,-0.97,0.27,-3.63,-6.40,-4.88,2.49,0.69,1.71,966.69
23.605,-3.78,-0.97,0.27,-3.63,-6.40,-4.88,2.87,0.88,1.53,966.69
23.605,-3.78,-0.97,0.27,27.85,7.14,-5.18,2.87,0.88,1.53,966.69
23.616,-3.78,-0.97,0.27,27.85,7.14,-5.18,2.87,0.88,1.53,966.65
23.668,-1.52,-1.33,0.01,27.85,7.14,-5.18,2.87,0.88,1.53,966.65
23.67,-1.52,-1.33,0.01,27.85,7.14,-5.18,2.93,0.40,3.48,966.65
23.671,-1.52,-1.33,0.01,5.34,12.26,-2.41,2.93,0.40,3.48,966.65
23.682,-1.52,-1.33,0.01,5.34,12.26,-2.41,2.93,0.40,3.48,966.65
23.731,0.11,-0.77,-0.23,5.34,12.26,-2.41,2.93,0.40,3.48,966.65
23.732,0.11,-0.77,-0.23,5.34,12.26,-2.41,2.60,1.80,1.67,966.65
23.732,0.11,-0.77,-0.23,-10.30,7.35,-1.14,2.60,1.80,1.67,966.65
23.749,0.11,-0.77,-0.23,-10.30,7.35,-1.14,2.60,1.80,1.67,966.61
23.794,0.57,-0.23,-0.25,-10.30,7.35,-1.14,2.60,1.80,1.67,966.61
23.795,0.57,-0.23,-0.25,-10.30,7.35,-1.14,1.24,-0.44,-0.80,966.61
23.796,0.57,-0.23,-0.25,-14.80,1.40,-0.76,1.24,-0.44,-0.80,966.61
23.816,0.57,-0.23,-0.25,-14.80,1.40,-0.76,1.24,-0.44,-0.80,966.61
23.858,0.43,-0.19,-0.17,-14.80,1.40,-0.76,1.24,-0.44,-0.80,966.61
23.859,0.43,-0.19,-0.17,-14.80,1.40,-0.76,-0.63,-1.15,-2.62,966.61
23.86,0.43,-0.19,-0.17,-13.37,-0.46,-0.95,-0.63,-1.15,-2.62,966.61
23.883,0.43,-0.19,-0.17,-13.37,-0.46,-0.95,-0.63,-1.15,-2.62,966.62
23.926,-0.70,-1.00,-0.14,-13.37,-0.46,-0.95,-0.63,-1.15,-2.62,966.62
23.927,-0.70,-1.00,-0.14,-13.37,-0.46,-0.95,-2.32,-0.24,-2.99,966.62
23.928,-0.70,-1.00,-0.14,-1.86,6.13,-1.54,-2.32,-0.24,-2.99,966.62
23.952,-0.70,-1.00,-0.14,-1.86,6.13,-1.54,-2.32,-0.24,-2.99,966.62
23.985,-3.30,-2.01,-0.01,-1.86,6.13,-1.54,-2.32,-0.24,-2.99,966.62
23.987,-3.30,-2.01,-0.01,-1.86,6.13,-1.54,-2.40,-3.21,-2.24,966.62
23.988,-3.30,-2.01,-0.01,23.81,15.21,-1.81,-2.40,-3.21,-2.24,966.62
24.016,-3.30,-2.01,-0.01,23.81,15.21,-1.81,-2.40,-3.21,-2.24,966.62
24.047,-0.99,-0.18,0.04,23.81,15.21,-1.81,-2.40,-3.21,-2.24,966.62
24.048,-0.99,-0.18,0.04,23.81,15.21,-1.81,-1.51,0.92,0.08,966.62
24.051,-0.99,-0.18,0.04,1.25,-2.53,-2.97,-1.51,0.92,0.08,966.62
24.083,-0.99,-0.18,0.04,1.25,-2.53,-2.97,-1.51,0.92,0.08,966.68
24.111,-1.17,0.52,-0.25,1.25,-2.53,-2.97,-1.51,0.92,0.08,966.68
24.111,-1.17,0.52,-0.25,1.25,-2.53,-2.97,-1.98,0.13,-0.55,966.68
24.112,-1.17,0.52,-0.25,3.14,-9.23,-0.92,-1.98,0.13,-0.55,966.68
24.15,-1.17,0.52,-0.25,3.14,-9.23,-0.92,-1.98,0.13,-0.55,966.68
24.174,-0.51,0.37,0.10,3.14,-9.23,-0.92,-1.98,0.13,-0.55,966.68
24.176,-0.51,0.37,0.10,3.14,-9.23,-0.92,-1.74,-2.72,-0.02,966.68
24.177,-0.51,0.37,0.10,-3.85,-7.41,-3.27,-1.74,-2.72,-0.02,966.68
24.216,-0.51,0.37,0.10,-3.85,-7.41,-3.27,-1.74,-2.72,-0.02,966.67
24.238,-0.53,0.43,0.37,-3.85,-7.41,-3.27,-1.74,-2.72,-0.02,966.67
24.239,-0.53,0.43,0.37,-3.85,-7.41,-3.27,-0.05,0.44,1.32,966.67
24.24,-0.53,0.43,0.37,-3.85,-7.19,-6.18,-0.05,0.44,1.32,966.67
24.283,-0.53,0.43,0.37,-3.85,-7.19,-6.18,-0.05,0.44,1.32,966.67
24.301,-0.68,0.32,0.29,-3.85,-7.19,-6.18,-0.05,0.44,1.32,966.67
24.302,-0.68,0.32,0.29,-3.85,-7.19,-6.18,2.12,0.79,1.63,966.67
24.302,-0.68,0.32,0.29,-2.56,-5.47,-5.41,2.12,0.79,1.63,966.67
24.351,-0.68,0.32,0.29,-2.56,-5.47,-5.41,2.12,0.79,1.63,966.65
24.365,-3.56,-0.98,0.22,-2.56,-5.47,-5.41,2.12,0.79,1.63,966.65
24.366,-3.56,-0.98,0.22,-2.56,-5.47,-5.41,2.74,0.85,1.33,966.65
24.366,-3.56,-0.98,0.22,25.68,7.47,-4.91,2.74,0.85,1.33,966.65
24.416,-3.56,-0.98,0.22,25.68,7.47,-4.91,2.74,0.85,1.33,966.65
24.427,-1.39,-1.17,-0.01,25.68,7.47,-4.91,2.74,0.85,1.33,966.65
24.428,-1.39,-1.17,-0.01,25.68,7.47,-4.91,2.96,0.55,2.96,966.65
24.428,-1.39,-1.17,-0.01,4.22,10.52,-2.64,2.96,0.55,2.96,966.65
24.483,-1.39,-1.17,-0.01,4.22,10.52,-2.64,2.96,0.55,2.96,966.65
24.492,0.09,-0.68,-0.26,4.22,10.52,-2.64,2.96,0.55,2.96,966.65
24.493,0.09,-0.68,-0.26,4.22,10.52,-2.64,2.67,1.89,1.25,966.65
24.493,0.09,-0.68,-0.26,-9.94,5.93,-1.16,2.67,1.89,1.25,966.65
24.55,0.09,-0.68,-0.26,-9.94,5.93,-1.16,2.67,1.89,1.25,966.61
24.553,0.52,-0.22,-0.35,-9.94,5.93,-1.16,2.67,1.89,1.25,966.61
24.554,0.52,-0.22,-0.35,-9.94,5.93,-1.16,1.24,-0.56,-0.98,966.61
24.555,0.52,-0.22,-0.35,-14.14,0.59,-0.08,1.24,-0.56,-0.98,966.61
24.617,0.52,-0.22,-0.35,-14.14,0.59,-0.08,1.24,-0.56,-0.98,966.61
24.618,0.44,-0.28,-0.24,-14.14,0.59,-0.08,1.24,-0.56,-0.98,966.61
24.619,0.44,-0.28,-0.24,-14.14,0.59,-0.08,-1.06,-1.14,-2.70,966.61
24.619,0.44,-0.28,-0.24,-13.27,-0.16,-0.59,-1.06,-1.14,-2.70,966.61
24.681,-0.99,-1.27,-0.07,-13.27,-0.16,-0.59,-1.06,-1.14,-2.70,966.61
24.682,-0.99,-1.27,-0.07,-13.27,-0.16,-0.59,-2.76,-0.51,-2.96,966.61
24.684,-0.99,-1.27,-0.07,1.27,8.47,-2.54,-2.76,-0.51,-2.96,966.61
24.685,-0.99,-1.27,-0.07,1.27,8.47,-2.54,-2.76,-0.51,-2.96,966.61
24.745,-3.05,-1.79,-0.04,1.27,8.47,-2.54,-2.76,-0.51,-2.96,966.61
24.745,-3.05,-1.79,-0.04,1.27,8.47,-2.54,-1.70,-2.40,-1.92,966.61
24.746,-3.05,-1.79,-0.04,21.62,12.75,-2.12,-1.70,-2.40,-1.92,966.61
24.749,-3.05,-1.79,-0.04,21.62,12.75,-2.12,-1.70,-2.40,-1.92,966.61
24.808,-1.09,-0.03,-0.15,21.62,12.75,-2.12,-1.70,-2.40,-1.92,966.61
24.81,-1.09,-0.03,-0.15,21.62,12.75,-2.12,-1.67,1.54,0.25,966.61
24.811,-1.09,-0.03,-0.15,2.61,-3.96,-2.18,-1.67,1.54,0.25,966.61
24.816,-1.09,-0.03,-0.15,2.61,-3.96,-2.18,-1.67,1.54,0.25,966.57
24.872,-0.94,0.42,-0.24,2.61,-3.96,-2.18,-1.67,1.54,0.25,966.57
24.873,-0.94,0.42,-0.24,2.61,-3.96,-2.18,-2.35,-1.52,-0.41,966.57
24.874,-0.94,0.42,-0.24,0.92,-7.99,-1.39,-2.35,-1.52,-0.41,966.57
24.883,-0.94,0.42,-0.24,0.92,-7.99,-1.39,-2.35,-1.52,-0.41,966.57
24.935,-0.42,0.33,0.23,0.92,-7.99,-1.39,-2.35,-1.52,-0.41,966.57
24.936,-0.42,0.33,0.23,0.92,-7.99,-1.39,-1.83,-2.26,-0.04,966.57
24.937,-0.42,0.33,0.23,-4.66,-6.77,-4.98,-1.83,-2.26,-0.04,966.57
24.949,-0.42,0.33,0.23,-4.66,-6.77,-4.98,-1.83,-2.26,-0.04,966.63
24.999,-0.55,0.30,0.33,-4.66,-6.77,-4.98,-1.83,-2.26,-0.04,966.63
25.0,-0.55,0.30,0.33,-4.66,-6.77,-4.98,0.40,-0.00,1.19,966.63
25.0,-0.55,0.30,0.33,-3.67,-5.77,-5.89,0.40,-0.00,1.19,966.63
25.018,-0.55,0.30,0.33,-3.67,-5.77,-5.89,0.40,-0.00,1.19,966.63
25.061,-0.66,0.36,0.29,-3.67,-5.77,-5.89,0.40,-0.00,1.19,966.63
25.063,-0.66,0.36,0.29,-3.67,-5.77,-5.89,2.46,0.61,1.38,966.63
25.064,-0.66,0.36,0.29,-2.71,-5.93,-5.36,2.46,0.61,1.38,966.63
25.083,-0.66,0.36,0.29,-2.71,-5.93,-5.36,2.46,0.61,1.38,966.63
25.128,-0.66,0.36,0.29,28.19,8.85,-4.44,2.46,0.61,1.38,966.63
25.13,-3.82,-1.14,0.19,28.19,8.85,-4.44,2.46,0.61,1.38,966.63
25.13,-3.82,-1.14,0.19,28.19,8.85,-4.44,2.91,0.67,1.18,966.63
25.15,-3.82,-1.14,0.19,28.19,8.85,-4.44,2.91,0.67,1.18,966.63
25.188,-3.82,-1.14,0.19,2.04,10.16,-2.43,2.91,0.67,1.18,966.63
25.19,-1.17,-1.13,-0.03,2.04,10.16,-2.43,2.91,0.67,1.18,966.63
25.191,-1.17,-1.13,-0.03,2.04,10.16,-2.43,3.14,0.90,3.27,966.63
25.216,-1.17,-1.13,-0.03,2.04,10.16,-2.43,3.14,0.90,3.27,966.63
25.251,0.16,-0.61,-0.30,2.04,10.16,-2.43,3.14,0.90,3.27,966.63
25.252,0.16,-0.61,-0.30,2.04,10.16,-2.43,2.52,1.91,1.52,966.63
25.253,0.16,-0.61,-0.30,-10.63,5.47,-0.86,2.52,1.91,1.52,966.63
25.287,0.16,-0.61,-0.30,-10.63,5.47,-0.86,2.52,1.91,1.52,966.60
25.314,0.55,-0.19,-0.39,-10.63,5.47,-0.86,2.52,1.91,1.52,966.60
25.316,0.55,-0.19,-0.39,-10.63,5.47,-0.86,0.97,-1.07,-1.00,966.60
25.317,0.55,-0.19,-0.39,-14.61,0.53,0.57,0.97,-1.07,-1.00,966.60
25.351,0.55,-0.19,-0.39,-14.61,0.53,0.57,0.97,-1.07,-1.00,966.60
25.378,0.48,-0.21,-0.19,-14.61,0.53,0.57,0.97,-1.07,-1.00,966.60
25.379,0.48,-0.21,-0.19,-14.61,0.53,0.57,-1.19,-1.12,-2.55,966.60
25.38,0.48,-0.21,-0.19,-13.80,-0.46,-0.86,-1.19,-1.12,-2.55,966.60
25.417,0.48,-0.21,-0.19,-13.80,-0.46,-0.86,-1.19,-1.12,-2.55,966.59
25.44,-1.44,-1.46,-0.02,-13.80,-0.46,-0.86,-1.19,-1.12,-2.55,966.59
25.441,-1.44,-1.46,-0.02,-13.80,-0.46,-0.86,-2.72,0.15,-2.79,966.59
25.442,-1.44,-1.46,-0.02,5.57,10.69,-3.15,-2.72,0.15,-2.79,966.59
25.483,-1.44,-1.46,-0.02,5.57,10.69,-3.15,-2.72,0.15,-2.79,966.59
25.504,-2.95,-1.66,-0.04,5.57,10.69,-3.15,-2.72,0.15,-2.79,966.59
25.505,-2.95,-1.66,-0.04,5.57,10.69,-3.15,-1.60,-2.25,-1.36,966.59
25.506,-2.95,-1.66,-0.04,20.38,12.09,-2.18,-1.60,-2.25,-1.36,966.59
25.55,-2.95,-1.66,-0.04,20.38,12.09,-2.18,-1.60,-2.25,-1.36,966.59
25.568,-0.92,0.17,-0.22,20.38,12.09,-2.18,-1.60,-2.25,-1.36,966.59
25.569,-0.92,0.17,-0.22,20.38,12.09,-2.18,-1.65,1.72,-0.04,966.59
25.57,-0.92,0.17,-0.22,0.75,-5.50,-1.65,-1.65,1.72,-0.04,966.59
25.617,-0.92,0.17,-0.22,0.75,-5.50,-1.65,-1.65,1.72,-0.04,966.52
25.64,-0.86,0.52,-0.34,0.75,-5.50,-1.65,-1.65,1.72,-0.04,966.52
25.641,-0.86,0.52,-0.34,0.75,-5.50,-1.65,-2.43,-1.79,-0.92,966.52
25.642,-0.86,0.52,-0.34,-0.01,-8.73,-0.29,-2.43,-1.79,-0.92,966.52
25.683,-0.86,0.52,-0.34,-0.01,-8.73,-0.29,-2.43,-1.79,-0.92,966.52
25.694,-0.55,0.29,0.28,-0.01,-8.73,-0.29,-2.43,-1.79,-0.92,966.52
25.694,-0.55,0.29,0.28,-0.01,-8.73,-0.29,-1.63,-1.89,-0.10,966.52
25.694,-0.55,0.29,0.28,-3.41,-6.15,-5.51,-1.63,-1.89,-0.10,966.52
25.75,-0.55,0.29,0.28,-3.41,-6.15,-5.51,-1.63,-1.89,-0.10,966.57
25.757,-0.65,0.31,0.29,-3.41,-6.15,-5.51,-1.63,-1.89,-0.10,966.57
25.758,-0.65,0.31,0.29,-3.41,-6.15,-5.51,0.71,0.13,1.46,966.57
25.759,-0.65,0.31,0.29,-2.74,-5.67,-5.64,0.71,0.13,1.46,966.57
25.817,-0.65,0.31,0.29,-2.74,-5.67,-5.64,0.71,0.13,1.46,966.57
25.82,-0.71,0.42,0.28,-2.74,-5.67,-5.64,0.71,0.13,1.46,966.57
25.821,-0.71,0.42,0.28,-2.74,-5.67,-5.64,2.36,0.73,1.84,966.57
25.822,-0.71,0.42,0.28,-2.27,-5.98,-5.51,2.36,0.73,1.84,966.57
25.884,-0.71,0.42,0.28,-2.27,-5.98,-5.51,2.36,0.73,1.84,966.60
25.885,-3.88,-0.86,0.28,-2.27,-5.98,-5.51,2.36,0.73,1.84,966.60
25.886,-3.88,-0.86,0.28,-2.27,-5.98,-5.51,2.69,0.04,1.83,966.60
25.887,-3.88,-0.86,0.28,28.62,7.03,-5.37,2.69,0.04,1.83,966.60
25.947,-1.21,-1.13,0.10,28.62,7.03,-5.37,2.69,0.04,1.83,966.60
25.949,-1.21,-1.13,0.10,28.62,7.03,-5.37,3.33,0.73,3.29,966.60
25.949,-1.21,-1.13,0.10,2.37,11.09,-3.77,3.33,0.73,3.29,966.60
25.95,-1.21,-1.13,0.10,2.37,11.09,-3.77,3.33,0.73,3.29,966.60
26.011,0.11,-0.69,-0.25,2.37,11.09,-3.77,3.33,0.73,3.29,966.60
26.012,0.11,-0.69,-0.25,2.37,11.09,-3.77,2.91,1.87,1.53,966.60
26.012,0.11,-0.69,-0.25,-10.09,7.01,-1.54,2.91,1.87,1.53,966.60
26.016,0.11,-0.69,-0.25,-10.09,7.01,-1.54,2.91,1.87,1.53,966.56
26.074,0.57,-0.22,-0.29,-10.09,7.01,-1.54,2.91,1.87,1.53,966.56
26.075,0.57,-0.22,-0.29,-10.09,7.01,-1.54,1.27,-0.83,-0.97,966.56
26.076,0.57,-0.22,-0.29,-14.71,1.63,-0.80,1.27,-0.83,-0.97,966.56
26.083,0.57,-0.22,-0.29,-14.71,1.63,-0.80,1.27,-0.83,-0.97,966.56
26.137,0.45,-0.24,-0.21,-14.71,1.63,-0.80,1.27,-0.83,-0.97,966.56
26.138,0.45,-0.24,-0.21,-14.71,1.63,-0.80,-0.79,-0.94,-2.95,966.56
26.139,0.45,-0.24,-0.21,-13.50,0.27,-1.14,-0.79,-0.94,-2.95,966.56
26.17,0.45,-0.24,-0.21,-13.50,0.27,-1.14,-0.79,-0.94,-2.95,966.56
26.201,-1.03,-1.20,-0.23,-13.50,0.27,-1.14,-0.79,-0.94,-2.95,966.56
26.203,-1.03,-1.20,-0.23,-13.50,0.27,-1.14,-2.46,-0.15,-3.39,966.56
26.203,-1.03,-1.20,-0.23,1.62,8.29,-1.26,-2.46,-0.15,-3.39,966.56
26.216,-1.03,-1.20,-0.23,1.62,8.29,-1.26,-2.46,-0.15,-3.39,966.56
26.274,-3.31,-1.85,-0.17,1.62,8.29,-1.26,-2.46,-0.15,-3.39,966.56
26.28,-3.31,-1.85,-0.17,1.62,8.29,-1.26,-2.09,-2.53,-2.04,966.56
26.281,-3.31,-1.85,-0.17,24.01,13.89,-1.09,-2.09,-2.53,-2.04,966.56
26.307,-3.31,-1.85,-0.17,24.01,13.89,-1.09,-2.09,-2.53,-2.04,966.56
26.327,-0.98,0.05,-0.23,24.01,13.89,-1.09,-2.09,-2.53,-2.04,966.56
26.328,-0.98,0.05,-0.23,24.01,13.89,-1.09,-1.72,1.48,-0.09,966.56
26.329,-0.98,0.05,-0.23,1.42,-4.38,-1.50,-1.72,1.48,-0.09,966.56
26.35,-0.98,0.05,-0.23,1.42,-4.38,-1.50,-1.72,1.48,-0.09,966.52
26.391,-0.85,0.52,-0.41,1.42,-4.38,-1.50,-1.72,1.48,-0.09,966.52
26.393,-0.85,0.52,-0.41,1.42,-4.38,-1.50,-2.59,-0.79,-0.99,966.52
26.393,-0.85,0.52,-0.41,0.24,-8.70,-0.25,-2.59,-0.79,-0.99,966.52
26.427,-0.85,0.52,-0.41,0.24,-8.70,-0.25,-2.59,-0.79,-0.99,966.52
26.454,-0.52,0.28,0.25,0.24,-8.70,-0.25,-2.59,-0.79,-0.99,966.52
26.456,-0.52,0.28,0.25,0.24,-8.70,-0.25,-2.08,-3.00,-0.36,966.52
26.457,-0.52,0.28,0.25,-3.67,-6.07,-5.41,-2.08,-3.00,-0.36,966.52
26.484,-0.52,0.28,0.25,-3.67,-6.07,-5.41,-2.08,-3.00,-0.36,966.60
26.524,-0.68,0.44,0.57,-3.67,-6.07,-5.41,-2.08,-3.00,-0.36,966.60
26.526,-0.68,0.44,0.57,-3.67,-6.07,-5.41,0.39,0.13,1.21,966.60
26.526,-0.68,0.44,0.57,-2.36,-7.02,-8.53,0.39,0.13,1.21,966.60
26.555,-0.68,0.44,0.57,-2.36,-7.02,-8.53,0.39,0.13,1.21,966.60
26.581,-0.75,0.36,0.36,-2.36,-7.02,-8.53,0.39,0.13,1.21,966.60
26.582,-0.75,0.36,0.36,-2.36,-7.02,-8.53,2.72,0.53,1.73,966.60
26.582,-0.75,0.36,0.36,-1.80,-5.76,-6.26,2.72,0.53,1.73,966.60
26.624,-0.75,0.36,0.36,-1.80,-5.76,-6.26,2.72,0.53,1.73,966.60
26.655,-3.83,-0.92,0.21,-1.80,-5.76,-6.26,2.72,0.53,1.73,966.60
26.656,-3.83,-0.92,0.21,-1.80,-5.76,-6.26,3.09,0.74,2.05,966.60
26.657,-3.83,-0.92,0.21,28.32,7.27,-4.94,3.09,0.74,2.05,966.60
26.684,-3.83,-0.92,0.21,28.32,7.27,-4.94,3.09,0.74,2.05,966.62
26.708,-1.38,-1.19,-0.05,28.32,7.27,-4.94,3.09,0.74,2.05,966.62
26.709,-1.38,-1.19,-0.05,28.32,7.27,-4.94,3.07,0.92,3.73,966.62
26.71,-1.38,-1.19,-0.05,4.19,11.57,-2.70,3.07,0.92,3.73,966.62
26.75,-1.38,-1.19,-0.05,4.19,11.57,-2.70,3.07,0.92,3.73,966.62
26.771,0.22,-0.75,-0.26,4.19,11.57,-2.70,3.07,0.92,3.73,966.62
26.771,0.22,-0.75,-0.26,4.19,11.57,-2.70,2.52,1.65,1.83,966.62
26.771,0.22,-0.75,-0.26,-11.04,7.78,-1.73,2.52,1.65,1.83,966.62
26.816,0.22,-0.75,-0.26,-11.04,7.78,-1.73,2.52,1.65,1.83,966.60
26.834,0.66,-0.22,-0.30,-11.04,7.78,-1.73,2.52,1.65,1.83,966.60
26.835,0.66,-0.22,-0.30,-11.04,7.78,-1.73,1.09,-0.72,-0.91,966.60
26.836,0.66,-0.22,-0.30,-15.42,1.86,-1.06,1.09,-0.72,-0.91,966.60
26.884,0.66,-0.22,-0.30,-15.42,1.86,-1.06,1.09,-0.72,-0.91,966.60
26.905,0.48,-0.27,-0.22,-15.42,1.86,-1.06,1.09,-0.72,-0.91,966.60
26.906,0.48,-0.27,-0.22,-15.42,1.86,-1.06,-1.01,-0.90,-3.08,966.60
26.906,0.48,-0.27,-0.22,-13.72,0.78,-1.38,-1.01,-0.90,-3.08,966.60
26.95,0.48,-0.27,-0.22,-13.72,0.78,-1.38,-1.01,-0.90,-3.08,966.57
26.96,-1.39,-1.34,-0.24,-13.72,0.78,-1.38,-1.01,-0.90,-3.08,966.57
26.962,-1.39,-1.34,-0.24,-13.72,0.78,-1.38,-2.64,-0.60,-3.43,966.57
26.963,-1.39,-1.34,-0.24,5.02,9.93,-1.31,-2.64,-0.60,-3.43,966.57
27.017,-1.39,-1.34,-0.24,5.02,9.93,-1.31,-2.64,-0.60,-3.43,966.57
27.024,-3.03,-1.54,-0.08,5.02,9.93,-1.31,-2.64,-0.60,-3.43,966.57
27.024,-3.03,-1.54,-0.08,5.02,9.93,-1.31,-2.16,-2.96,-1.88,966.57
27.025,-3.03,-1.54,-0.08,21.01,11.21,-1.71,-2.16,-2.96,-1.88,966.57
27.084,-3.03,-1.54,-0.08,21.01,11.21,-1.71,-2.16,-2.96,-1.88,966.57
27.087,-1.04,0.18,-0.23,21.01,11.21,-1.71,-2.16,-2.96,-1.88,966.57
27.088,-1.04,0.18,-0.23,21.01,11.21,-1.71,-2.21,2.33,-0.26,966.57
27.089,-1.04,0.18,-0.23,1.99,-5.33,-1.88,-2.21,2.33,-0.26,966.57
27.151,-1.04,0.18,-0.23,1.99,-5.33,-1.88,-2.21,2.33,-0.26,966.51
27.152,-0.93,0.49,-0.37,1.99,-5.33,-1.88,-2.21,2.33,-0.26,966.51
27.152,-0.93,0.49,-0.37,1.99,-5.33,-1.88,-2.80,-1.21,-0.86,966.51
27.153,-0.93,0.49,-0.37,0.91,-7.97,-0.72,-2.80,-1.21,-0.86,966.51
27.214,-0.35,0.31,0.36,0.91,-7.97,-0.72,-2.80,-1.21,-0.86,966.51
27.216,-0.35,0.31,0.36,0.91,-7.97,-0.72,-2.17,-2.54,-0.05,966.51
27.217,-0.35,0.31,0.36,-5.51,-5.65,-6.73,-2.17,-2.54,-0.05,966.51
27.218,-0.35,0.31,0.36,-5.51,-5.65,-6.73,-2.17,-2.54,-0.05,966.51
27.278,-0.64,0.39,0.55,-5.51,-5.65,-6.73,-2.17,-2.54,-0.05,966.51
27.281,-0.64,0.39,0.55,-5.51,-5.65,-6.73,0.49,-0.22,1.05,966.51
27.282,-0.64,0.39,0.55,-2.86,-5.97,-8.43,0.49,-0.22,1.05,966.51
27.283,-0.64,0.39,0.55,-2.86,-5.97,-8.43,0.49,-0.22,1.05,966.58
27.341,-1.04,0.28,0.39,-2.86,-5.97,-8.43,0.49,-0.22,1.05,966.58
27.342,-1.04,0.28,0.39,-2.86,-5.97,-8.43,2.91,0.56,1.35,966.58
27.343,-1.04,0.28,0.39,0.91,-4.51,-6.67,2.91,0.56,1.35,966.58
27.35,-1.04,0.28,0.39,0.91,-4.51,-6.67,2.91,0.56,1.35,966.58
27.411,-3.71,-1.10,0.24,0.91,-4.51,-6.67,2.91,0.56,1.35,966.58
27.413,-3.71,-1.10,0.24,0.91,-4.51,-6.67,3.52,-0.07,1.91,966.58
27.414,-3.71,-1.10,0.24,27.00,9.33,-4.96,3.52,-0.07,1.91,966.58
27.448,-3.71,-1.10,0.24,27.00,9.33,-4.96,3.52,-0.07,1.91,966.63
27.467,-1.04,-1.02,-0.06,27.00,9.33,-4.96,3.52,-0.07,1.91,966.63
27.468,-1.04,-1.02,-0.06,27.00,9.33,-4.96,3.71,1.03,2.95,966.63
27.469,-1.04,-1.02,-0.06,0.81,9.68,-2.27,3.71,1.03,2.95,966.63
27.484,-1.04,-1.02,-0.06,0.81,9.68,-2.27,3.71,1.03,2.95,966.63
27.531,0.18,-0.58,-0.33,0.81,9.68,-2.27,3.71,1.03,2.95,966.63
27.532,0.18,-0.58,-0.33,0.81,9.68,-2.27,2.77,1.34,1.17,966.63
27.532,0.18,-0.58,-0.33,-10.80,5.52,-0.53,2.77,1.34,1.17,966.63
27.551,0.18,-0.58,-0.33,-10.80,5.52,-0.53,2.77,1.34,1.17,966.60
27.595,0.54,-0.19,-0.31,-10.80,5.52,-0.53,2.77,1.34,1.17,966.60
27.597,0.54,-0.19,-0.31,-10.80,5.52,-0.53,1.04,-0.91,-1.16,966.60
27.597,0.54,-0.19,-0.31,-14.55,0.86,-0.22,1.04,-0.91,-1.16,966.60
27.617,0.54,-0.19,-0.31,-14.55,0.86,-0.22,1.04,-0.91,-1.16,966.60
27.66,0.40,-0.35,-0.24,-14.55,0.86,-0.22,1.04,-0.91,-1.16,966.60
27.661,0.40,-0.35,-0.24,-14.55,0.86,-0.22,-1.19,-0.66,-2.77,966.60
27.662,0.40,-0.35,-0.24,-12.93,0.95,-0.67,-1.19,-0.66,-2.77,966.60
27.696,0.40,-0.35,-0.24,-12.93,0.95,-0.67,-1.19,-0.66,-2.77,966.60
27.722,-1.68,-1.62,-0.18,-12.93,0.95,-0.67,-1.19,-0.66,-2.77,966.60
27.724,-1.68,-1.62,-0.18,-12.93,0.95,-0.67,-3.12,0.05,-3.15,966.60
27.725,-1.68,-1.62,-0.18,8.00,12.38,-1.91,-3.12,0.05,-3.15,966.60
27.751,-1.68,-1.62,-0.18,8.00,12.38,-1.91,-3.12,0.05,-3.15,966.54
27.784,-2.81,-1.50,-0.14,8.00,12.38,-1.91,-3.12,0.05,-3.15,966.54
27.785,-2.81,-1.50,-0.14,8.00,12.38,-1.91,-1.78,-2.39,-1.50,966.54
27.785,-2.81,-1.50,-0.14,19.01,10.60,-1.43,-1.78,-2.39,-1.50,966.54
27.819,-2.81,-1.50,-0.14,19.01,10.60,-1.43,-1.78,-2.39,-1.50,966.54
27.848,-0.91,0.24,-0.18,19.01,10.60,-1.43,-1.78,-2.39,-1.50,966.54
27.849,-0.91,0.24,-0.18,19.01,10.60,-1.43,-1.83,1.99,-0.42,966.54
27.849,-0.91,0.24,-0.18,0.93,-6.22,-2.41,-1.83,1.99,-0.42,966.54
27.884,-0.91,0.24,-0.18,0.93,-6.22,-2.41,-1.83,1.99,-0.42,966.47
27.91,-0.93,0.50,-0.20,0.93,-6.22,-2.41,-1.83,1.99,-0.42,966.47
27.911,-0.93,0.50,-0.20,0.93,-6.22,-2.41,-2.51,-2.00,-1.00,966.47
27.912,-0.93,0.50,-0.20,0.81,-8.47,-1.99,-2.51,-2.00,-1.00,966.47
27.951,-0.93,0.50,-0.20,0.81,-8.47,-1.99,-2.51,-2.00,-1.00,966.47
27.974,-0.51,0.29,0.34,0.81,-8.47,-1.99,-2.51,-2.00,-1.00,966.47
27.975,-0.51,0.29,0.34,0.81,-8.47,-1.99,-1.64,-1.96,0.02,966.47
27.976,-0.51,0.29,0.34,-3.75,-6.10,-6.47,-1.64,-1.96,0.02,966.47
28.017,-0.51,0.29,0.34,-3.75,-6.10,-6.47,-1.64,-1.96,0.02,966.53
28.037,-0.52,0.42,0.41,-3.75,-6.10,-6.47,-1.64,-1.96,0.02,966.53
28.039,-0.52,0.42,0.41,-3.75,-6.10,-6.47,0.84,0.12,1.74,966.53
28.04,-0.52,0.42,0.41,-3.91,-6.49,-7.03,0.84,0.12,1.74,966.53
28.084,-0.52,0.42,0.41,-3.91,-6.49,-7.03,0.84,0.12,1.74,966.53
28.101,-1.09,0.43,0.27,-3.91,-6.49,-7.03,0.84,0.12,1.74,966.53
28.101,-1.09,0.43,0.27,-3.91,-6.49,-7.03,2.57,0.61,1.72,966.53
28.102,-1.09,0.43,0.27,1.44,-6.01,-5.60,2.57,0.61,1.72,966.53
28.15,-1.09,0.43,0.27,1.44,-6.01,-5.60,2.57,0.61,1.72,966.53
28.164,-3.84,-1.16,0.06,1.44,-6.01,-5.60,2.57,0.61,1.72,966.53
28.165,-3.84,-1.16,0.06,1.44,-6.01,-5.60,2.99,0.29,2.04,966.53
28.166,-3.84,-1.16,0.06,28.33,10.04,-3.52,2.99,0.29,2.04,966.53
28.217,-3.84,-1.16,0.06,28.33,10.04,-3.52,2.99,0.29,2.04,966.53
28.227,-0.85,-1.07,-0.14,28.33,10.04,-3.52,2.99,0.29,2.04,966.53
28.228,-0.85,-1.07,-0.14,28.33,10.04,-3.52,3.07,1.12,3.14,966.53
28.228,-0.85,-1.07,-0.14,-0.87,10.40,-1.99,3.07,1.12,3.14,966.53
28.284,-0.85,-1.07,-0.14,-0.87,10.40,-1.99,3.07,1.12,3.14,966.53
28.29,0.31,-0.57,-0.28,-0.87,10.40,-1.99,3.07,1.12,3.14,966.53
28.291,0.31,-0.57,-0.28,-0.87,10.40,-1.99,2.26,1.07,0.88,966.53
28.293,0.31,-0.57,-0.28,-11.93,5.51,-1.33,2.26,1.07,0.88,966.53
28.35,0.31,-0.57,-0.28,-11.93,5.51,-1.33,2.26,1.07,0.88,966.58
28.353,0.50,-0.21,-0.27,-11.93,5.51,-1.33,2.26,1.07,0.88,966.58
28.354,0.50,-0.21,-0.27,-11.93,5.51,-1.33,0.56,-0.96,-1.57,966.58
28.354,0.50,-0.21,-0.27,-13.97,0.98,-1.00,0.56,-0.96,-1.57,966.58
28.418,0.50,-0.21,-0.27,-13.97,0.98,-1.00,0.56,-0.96,-1.57,966.58
28.42,0.39,-0.29,-0.20,-13.97,0.98,-1.00,0.56,-0.96,-1.57,966.58
28.42,0.39,-0.29,-0.20,-13.97,0.98,-1.00,-1.30,-1.11,-3.02,966.58
28.421,0.39,-0.29,-0.20,-12.83,0.28,-1.20,-1.30,-1.11,-3.02,966.58
28.481,-1.72,-1.64,-0.28,-12.83,0.28,-1.20,-1.30,-1.11,-3.02,966.58
28.482,-1.72,-1.64,-0.28,-12.83,0.28,-1.20,-2.77,0.19,-3.31,966.58
28.482,-1.72,-1.64,-0.28,8.54,12.31,-1.04,-2.77,0.19,-3.31,966.58
28.483,-1.72,-1.64,-0.28,8.54,12.31,-1.04,-2.77,0.19,-3.31,966.53
28.544,-2.73,-1.54,-0.05,8.54,12.31,-1.04,-2.77,0.19,-3.31,966.53
28.544,-2.73,-1.54,-0.05,8.54,12.31,-1.04,-1.89,-3.02,-1.84,966.53
28.545,-2.73,-1.54,-0.05,18.38,10.64,-2.18,-1.89,-3.02,-1.84,966.53
28.55,-2.73,-1.54,-0.05,18.38,10.64,-2.18,-1.89,-3.02,-1.84,966.53
28.616,-0.99,0.10,-0.11,18.38,10.64,-2.18,-1.89,-3.02,-1.84,966.53
28.618,-0.99,0.10,-0.11,18.38,10.64,-2.18,-1.74,1.82,-0.41,966.53
28.619,-0.99,0.10,-0.11,1.72,-5.17,-2.94,-1.74,1.82,-0.41,966.53
28.62,-0.99,0.10,-0.11,1.72,-5.17,-2.94,-1.74,1.82,-0.41,966.53
28.671,-0.93,0.47,-0.18,1.72,-5.17,-2.94,-1.74,1.82,-0.41,966.53
28.671,-0.93,0.47,-0.18,1.72,-5.17,-2.94,-1.97,-1.42,-0.87,966.53
28.672,-0.93,0.47,-0.18,1.10,-8.70,-2.21,-1.97,-1.42,-0.87,966.53
28.683,-0.93,0.47,-0.18,1.10,-8.70,-2.21,-1.97,-1.42,-0.87,966.50
28.734,-0.54,0.30,0.25,1.10,-8.70,-2.21,-1.97,-1.42,-0.87,966.50
28.735,-0.54,0.30,0.25,1.10,-8.70,-2.21,-1.26,-1.74,-0.03,966.50
28.736,-0.54,0.30,0.25,-3.14,-6.76,-5.80,-1.26,-1.74,-0.03,966.50
28.75,-0.54,0.30,0.25,-3.14,-6.76,-5.80,-1.26,-1.74,-0.03,966.50
28.798,-0.54,0.45,0.41,-3.14,-6.76,-5.80,-1.26,-1.74,-0.03,966.50
28.8,-0.54,0.45,0.41,-3.14,-6.76,-5.80,0.87,-0.22,1.41,966.50
28.801,-0.54,0.45,0.41,-3.49,-7.64,-7.00,0.87,-0.22,1.41,966.50
28.817,-0.54,0.45,0.41,-3.49,-7.64,-7.00,0.87,-0.22,1.41,966.56
28.864,-0.91,0.35,0.34,-3.49,-7.64,-7.00,0.87,-0.22,1.41,966.56
28.865,-0.91,0.35,0.34,-3.49,-7.64,-7.00,2.84,0.81,1.57,966.56
28.867,-0.91,0.35,0.34,-0.11,-6.18,-6.19,2.84,0.81,1.57,966.56
28.897,-0.91,0.35,0.34,-0.11,-6.18,-6.19,2.84,0.81,1.57,966.56
28.924,-4.16,-1.47,0.17,-0.11,-6.18,-6.19,2.84,0.81,1.57,966.56
28.925,-4.16,-1.47,0.17,-0.11,-6.18,-6.19,3.24,0.55,1.89,966.56
28.925,-4.16,-1.47,0.17,31.65,12.03,-4.32,3.24,0.55,1.89,966.56
28.95,-4.16,-1.47,0.17,31.65,12.03,-4.32,3.24,0.55,1.89,966.60
28.987,-0.94,-1.25,-0.07,31.65,12.03,-4.32,3.24,0.55,1.89,966.60
28.988,-0.94,-1.25,-0.07,31.65,12.03,-4.32,3.18,1.33,3.57,966.60
28.988,-0.94,-1.25,-0.07,-0.14,11.39,-2.36,3.18,1.33,3.57,966.60
29.018,-0.94,-1.25,-0.07,-0.14,11.39,-2.36,3.18,1.33,3.57,966.60
29.051,0.32,-0.65,-0.28,-0.14,11.39,-2.36,3.18,1.33,3.57,966.60
29.053,0.32,-0.65,-0.28,-0.14,11.39,-2.36,2.43,1.53,1.43,966.60
29.054,0.32,-0.65,-0.28,-12.15,5.78,-1.21,2.43,1.53,1.43,966.60
29.084,0.32,-0.65,-0.28,-12.15,5.78,-1.21,2.43,1.53,1.43,966.63
29.115,0.56,-0.19,-0.22,-12.15,5.78,-1.21,2.43,1.53,1.43,966.63
29.116,0.56,-0.19,-0.22,-12.15,5.78,-1.21,0.91,-1.18,-1.01,966.63
29.116,0.56,-0.19,-0.22,-14.61,0.52,-1.17,0.91,-1.18,-1.01,966.63
29.151,0.56,-0.19,-0.22,-14.61,0.52,-1.17,0.91,-1.18,-1.01,966.63
29.177,0.53,-0.23,-0.05,-14.61,0.52,-1.17,0.91,-1.18,-1.01,966.63
29.179,0.53,-0.23,-0.05,-14.61,0.52,-1.17,-1.10,-1.69,-2.49,966.63
29.18,0.53,-0.23,-0.05,-14.34,-0.35,-2.02,-1.10,-1.69,-2.49,966.63
29.217,0.53,-0.23,-0.05,-14.34,-0.35,-2.02,-1.10,-1.69,-2.49,966.63
29.24,-1.00,-1.38,-0.19,-14.34,-0.35,-2.02,-1.10,-1.69,-2.49,966.63
29.242,-1.00,-1.38,-0.19,-14.34,-0.35,-2.02,-2.71,1.36,-3.16,966.63
29.243,-1.00,-1.38,-0.19,1.49,9.68,-1.76,-2.71,1.36,-3.16,966.63
29.284,-1.00,-1.38,-0.19,1.49,9.68,-1.76,-2.71,1.36,-3.16,966.58
29.304,-3.60,-2.03,-0.46,1.49,9.68,-1.76,-2.71,1.36,-3.16,966.58
29.306,-3.60,-2.03,-0.46,1.49,9.68,-1.76,-1.64,-2.97,-2.06,966.58
29.307,-3.60,-2.03,-0.46,27.01,15.26,1.69,-1.64,-2.97,-2.06,966.58
29.351,-3.60,-2.03,-0.46,27.01,15.26,1.69,-1.64,-2.97,-2.06,966.58
29.384,-0.79,0.07,-0.17,27.01,15.26,1.69,-1.64,-2.97,-2.06,966.58
29.385,-0.79,0.07,-0.17,27.01,15.26,1.69,-1.75,1.74,0.08,966.58
29.385,-0.79,0.07,-0.17,-0.21,-4.83,-2.25,-1.75,1.74,0.08,966.58
29.418,-0.79,0.07,-0.17,-0.21,-4.83,-2.25,-1.75,1.74,0.08,966.51
29.43,-0.75,0.44,-0.31,-0.21,-4.83,-2.25,-1.75,1.74,0.08,966.51
29.431,-0.75,0.44,-0.31,-0.21,-4.83,-2.25,-2.33,-0.32,-0.99,966.51
29.432,-0.75,0.44,-0.31,-0.41,-8.25,-1.50,-2.33,-0.32,-0.99,966.51
29.484,-0.75,0.44,-0.31,-0.41,-8.25,-1.50,-2.33,-0.32,-0.99,966.51
29.522,-0.60,0.34,0.15,-0.41,-8.25,-1.50,-2.33,-0.32,-0.99,966.51
29.523,-0.60,0.34,0.15,-0.41,-8.25,-1.50,-1.83,-2.72,-0.49,966.51
29.523,-0.60,0.34,0.15,-2.50,-7.01,-5.06,-1.83,-2.72,-0.49,966.51
29.551,-0.60,0.34,0.15,-2.50,-7.01,-5.06,-1.83,-2.72,-0.49,966.62
29.557,-0.65,0.49,0.55,-2.50,-7.01,-5.06,-1.83,-2.72,-0.49,966.62
29.558,-0.65,0.49,0.55,-2.50,-7.01,-5.06,0.26,-0.79,1.49,966.62
29.559,-0.65,0.49,0.55,-2.52,-7.74,-8.51,0.26,-0.79,1.49,966.62
29.617,-0.65,0.49,0.55,-2.52,-7.74,-8.51,0.26,-0.79,1.49,966.62
29.62,-0.78,0.38,0.47,-2.52,-7.74,-8.51,0.26,-0.79,1.49,966.62
29.62,-0.78,0.38,0.47,-2.52,-7.74,-8.51,2.35,0.95,2.04,966.62
29.622,-0.78,0.38,0.47,-1.44,-5.92,-7.72,2.35,0.95,2.04,966.62
29.685,-3.91,-1.11,0.10,-1.44,-5.92,-7.72,2.35,0.95,2.04,966.62
29.687,-3.91,-1.11,0.10,-1.44,-5.92,-7.72,2.74,0.54,2.10,966.62
29.687,-3.91,-1.11,0.10,29.23,9.18,-4.19,2.74,0.54,2.10,966.62
29.689,-3.91,-1.11,0.10,29.23,9.18,-4.19,2.74,0.54,2.10,966.62
29.748,-0.90,-1.27,-0.12,29.23,9.18,-4.19,2.74,0.54,2.10,966.62
29.749,-0.90,-1.27,-0.12,29.23,9.18,-4.19,3.50,0.42,3.15,966.62
29.749,-0.90,-1.27,-0.12,-0.50,11.95,-1.98,3.50,0.42,3.15,966.62
29.75,-0.90,-1.27,-0.12,-0.50,11.95,-1.98,3.50,0.42,3.15,966.64
29.82,0.27,-0.58,-0.51,-0.50,11.95,-1.98,3.50,0.42,3.15,966.64
29.821,0.27,-0.58,-0.51,-0.50,11.95,-1.98,2.75,2.14,1.02,966.64
29.822,0.27,-0.58,-0.51,-11.43,5.20,0.59,2.75,2.14,1.02,966.64
29.824,0.27,-0.58,-0.51,-11.43,5.20,0.59,2.75,2.14,1.02,966.64
29.88,0.53,-0.14,-0.38,-11.43,5.20,0.59,2.75,2.14,1.02,966.64
29.881,0.53,-0.14,-0.38,-11.43,5.20,0.59,0.73,-1.24,-1.35,966.64
29.881,0.53,-0.14,-0.38,-14.14,-0.08,-0.08,0.73,-1.24,-1.35,966.64
29.884,0.53,-0.14,-0.38,-14.14,-0.08,-0.08,0.73,-1.24,-1.35,966.64
