time,gFx,gFy,gFz,ax,ay,az,wx,wy,wz,P
0.035,-0.55,0.27,0.80,0.24,-0.11,0.16,-0.01,-0.15,0.06,933.55
0.044,-0.55,0.27,0.80,0.24,-0.11,0.16,-0.06,-0.14,0.13,933.55
0.049,-0.48,0.31,0.79,0.24,-0.11,0.16,-0.06,-0.14,0.13,933.55
0.049,-0.48,0.31,0.79,-0.33,-0.40,0.33,-0.06,-0.14,0.13,933.55
0.101,-0.48,0.31,0.79,-0.33,-0.40,0.33,-0.06,-0.14,0.13,933.55
0.107,-0.48,0.31,0.79,-0.33,-0.40,0.33,-0.16,0.19,-0.01,933.55
0.112,-0.47,0.25,0.79,-0.33,-0.40,0.33,-0.16,0.19,-0.01,933.55
0.113,-0.47,0.25,0.79,-0.52,0.07,0.28,-0.16,0.19,-0.01,933.55
0.168,-0.47,0.25,0.79,-0.52,0.07,0.28,-0.16,0.19,-0.01,933.52
0.17,-0.47,0.25,0.79,-0.52,0.07,0.28,-0.26,0.37,-0.12,933.52
0.175,-0.47,0.23,0.82,-0.52,0.07,0.28,-0.26,0.37,-0.12,933.52
0.175,-0.47,0.23,0.82,-0.79,0.11,-0.05,-0.26,0.37,-0.12,933.52
0.234,-0.47,0.23,0.82,-0.79,0.11,-0.05,-0.33,0.59,-0.20,933.52
0.235,-0.47,0.23,0.82,-0.79,0.11,-0.05,-0.33,0.59,-0.20,933.52
0.238,-0.53,0.19,0.79,-0.79,0.11,-0.05,-0.33,0.59,-0.20,933.52
0.239,-0.53,0.19,0.79,-0.49,0.29,0.03,-0.33,0.59,-0.20,933.52
0.297,-0.53,0.19,0.79,-0.49,0.29,0.03,-0.30,0.72,-0.44,933.52
0.301,-0.53,0.19,0.79,-0.49,0.29,0.03,-0.30,0.72,-0.44,933.52
0.302,-0.57,0.06,0.71,-0.49,0.29,0.03,-0.30,0.72,-0.44,933.52
0.302,-0.57,0.06,0.71,-0.52,1.17,0.58,-0.30,0.72,-0.44,933.52
0.361,-0.57,0.06,0.71,-0.52,1.17,0.58,-0.24,0.77,-0.90,933.52
0.366,-0.57,-0.01,0.59,-0.52,1.17,0.58,-0.24,0.77,-0.90,933.52
0.366,-0.57,-0.01,0.59,-0.91,1.38,1.45,-0.24,0.77,-0.90,933.52
0.368,-0.57,-0.01,0.59,-0.91,1.38,1.45,-0.24,0.77,-0.90,933.50
0.424,-0.57,-0.01,0.59,-0.91,1.38,1.45,-0.26,0.95,-1.57,933.50
0.428,-0.46,-0.08,0.56,-0.91,1.38,1.45,-0.26,0.95,-1.57,933.50
0.429,-0.46,-0.08,0.56,-2.54,1.27,1.37,-0.26,0.95,-1.57,933.50
0.434,-0.46,-0.08,0.56,-2.54,1.27,1.37,-0.26,0.95,-1.57,933.50
0.487,-0.46,-0.08,0.56,-2.54,1.27,1.37,-0.18,1.16,-2.52,933.50
0.492,-0.49,-0.20,0.54,-2.54,1.27,1.37,-0.18,1.16,-2.52,933.50
0.493,-0.49,-0.20,0.54,-2.71,1.26,1.04,-0.18,1.16,-2.52,933.50
0.501,-0.49,-0.20,0.54,-2.71,1.26,1.04,-0.18,1.16,-2.52,933.48
0.55,-0.49,-0.20,0.54,-2.71,1.26,1.04,-0.13,0.62,-2.90,933.48
0.555,-0.74,-0.24,0.66,-2.71,1.26,1.04,-0.13,0.62,-2.90,933.48
0.556,-0.74,-0.24,0.66,-0.30,0.21,-0.37,-0.13,0.62,-2.90,933.48
0.568,-0.74,-0.24,0.66,-0.30,0.21,-0.37,-0.13,0.62,-2.90,933.48
0.614,-0.74,-0.24,0.66,-0.30,0.21,-0.37,0.04,-0.64,-2.50,933.48
0.619,-0.90,-0.28,0.74,-0.30,0.21,-0.37,0.04,-0.64,-2.50,933.48
0.619,-0.90,-0.28,0.74,2.03,-0.58,-0.87,0.04,-0.64,-2.50,933.48
0.635,-0.90,-0.28,0.74,2.03,-0.58,-0.87,0.04,-0.64,-2.50,933.48
0.677,-0.90,-0.28,0.74,2.03,-0.58,-0.87,-0.03,-1.54,-1.73,933.48
0.682,-0.90,-0.28,0.74,2.01,-1.71,-0.83,-0.03,-1.54,-1.73,933.48
0.683,-0.80,-0.23,0.79,2.01,-1.71,-0.83,-0.03,-1.54,-1.73,933.48
0.701,-0.80,-0.23,0.79,2.01,-1.71,-0.83,-0.03,-1.54,-1.73,933.48
0.74,-0.80,-0.23,0.79,2.01,-1.71,-0.83,-0.20,-1.11,-0.97,933.48
0.745,-0.81,-0.32,0.91,2.01,-1.71,-0.83,-0.20,-1.11,-0.97,933.48
0.746,-0.81,-0.32,0.91,2.84,-1.29,-1.65,-0.20,-1.11,-0.97,933.48
0.768,-0.81,-0.32,0.91,2.84,-1.29,-1.65,-0.20,-1.11,-0.97,933.50
0.804,-0.81,-0.32,0.91,2.84,-1.29,-1.65,-0.21,-0.97,-0.35,933.50
0.808,-0.86,-0.42,0.95,2.84,-1.29,-1.65,-0.21,-0.97,-0.35,933.50
0.81,-0.86,-0.42,0.95,3.88,-0.49,-1.75,-0.21,-0.97,-0.35,933.50
0.835,-0.86,-0.42,0.95,3.88,-0.49,-1.75,-0.21,-0.97,-0.35,933.50
0.867,-0.86,-0.42,0.95,3.88,-0.49,-1.75,-0.04,-0.81,0.39,933.50
0.873,-0.70,-0.49,0.85,3.88,-0.49,-1.75,-0.04,-0.81,0.39,933.50
0.874,-0.70,-0.49,0.85,2.62,0.28,-0.65,-0.04,-0.81,0.39,933.50
0.902,-0.70,-0.49,0.85,2.62,0.28,-0.65,-0.04,-0.81,0.39,933.50
0.93,-0.70,-0.49,0.85,2.62,0.28,-0.65,0.01,-0.13,0.73,933.50
0.935,-0.58,-0.50,0.85,2.62,0.28,-0.65,0.01,-0.13,0.73,933.50
0.935,-0.58,-0.50,0.85,1.29,0.60,-0.62,0.01,-0.13,0.73,933.50
0.969,-0.58,-0.50,0.85,1.29,0.60,-0.62,0.01,-0.13,0.73,933.52
0.994,-0.58,-0.50,0.85,1.29,0.60,-0.62,0.18,-0.28,0.80,933.52
0.999,-0.44,-0.45,0.79,1.29,0.60,-0.62,0.18,-0.28,0.80,933.52
1.0,-0.44,-0.45,0.79,-0.19,0.46,0.15,0.18,-0.28,0.80,933.52
1.034,-0.44,-0.45,0.79,-0.19,0.46,0.15,0.18,-0.28,0.80,933.52
1.057,-0.44,-0.45,0.79,-0.19,0.46,0.15,0.32,-0.17,0.54,933.52
1.063,-0.44,-0.45,0.79,-0.50,0.06,-0.20,0.32,-0.17,0.54,933.52
1.063,-0.41,-0.38,0.84,-0.50,0.06,-0.20,0.32,-0.17,0.54,933.52
1.102,-0.41,-0.38,0.84,-0.50,0.06,-0.20,0.32,-0.17,0.54,933.55
1.12,-0.41,-0.38,0.84,-0.50,0.06,-0.20,0.38,-0.24,0.25,933.55
1.125,-0.48,-0.42,0.89,-0.50,0.06,-0.20,0.38,-0.24,0.25,933.55
1.125,-0.48,-0.42,0.89,0.23,0.65,-0.58,0.38,-0.24,0.25,933.55
1.168,-0.48,-0.42,0.89,0.23,0.65,-0.58,0.38,-0.24,0.25,933.55
1.184,-0.48,-0.42,0.89,0.23,0.65,-0.58,0.48,-0.07,0.19,933.55
1.188,-0.51,-0.46,0.90,0.23,0.65,-0.58,0.48,-0.07,0.19,933.55
1.189,-0.51,-0.46,0.90,0.56,1.39,-0.54,0.48,-0.07,0.19,933.55
1.234,-0.51,-0.46,0.90,0.56,1.39,-0.54,0.48,-0.07,0.19,933.56
1.247,-0.51,-0.46,0.90,0.56,1.39,-0.54,0.56,-0.06,0.22,933.56
1.252,-0.45,-0.37,0.91,0.56,1.39,-0.54,0.56,-0.06,0.22,933.56
1.252,-0.45,-0.37,0.91,-0.07,0.86,-0.53,0.56,-0.06,0.22,933.56
1.302,-0.45,-0.37,0.91,-0.07,0.86,-0.53,0.56,-0.06,0.22,933.56
1.311,-0.45,-0.37,0.91,-0.07,0.86,-0.53,0.59,0.10,0.03,933.56
1.315,-0.42,-0.31,0.87,-0.07,0.86,-0.53,0.59,0.10,0.03,933.56
1.316,-0.42,-0.31,0.87,-0.42,0.58,-0.11,0.59,0.10,0.03,933.56
1.368,-0.42,-0.31,0.87,-0.42,0.58,-0.11,0.59,0.10,0.03,933.56
1.373,-0.42,-0.31,0.87,-0.42,0.58,-0.11,0.62,0.19,-0.20,933.56
1.378,-0.38,-0.24,0.93,-0.42,0.58,-0.11,0.62,0.19,-0.20,933.56
1.379,-0.38,-0.24,0.93,-0.83,0.18,-0.62,0.62,0.19,-0.20,933.56
1.435,-0.38,-0.24,0.93,-0.83,0.18,-0.62,0.62,0.19,-0.20,933.57
1.437,-0.38,-0.24,0.93,-0.83,0.18,-0.62,0.68,0.44,-0.39,933.57
1.443,-0.46,-0.22,0.96,-0.83,0.18,-0.62,0.68,0.44,-0.39,933.57
1.443,-0.46,-0.22,0.96,-0.21,0.22,-0.96,0.68,0.44,-0.39,933.57
1.5,-0.46,-0.22,0.96,-0.21,0.22,-0.96,0.90,0.50,-0.42,933.57
1.501,-0.46,-0.22,0.96,-0.21,0.22,-0.96,0.90,0.50,-0.42,933.57
1.505,-0.51,-0.10,0.95,-0.21,0.22,-0.96,0.90,0.50,-0.42,933.57
1.505,-0.51,-0.10,0.95,0.06,-0.63,-0.95,0.90,0.50,-0.42,933.57
1.564,-0.51,-0.10,0.95,0.06,-0.63,-0.95,1.11,0.53,-0.32,933.57
1.568,-0.51,-0.10,0.95,0.06,-0.63,-0.95,1.11,0.53,-0.32,933.55
1.568,-0.60,0.01,0.92,0.06,-0.63,-0.95,1.11,0.53,-0.32,933.55
1.569,-0.60,0.01,0.92,0.65,-1.18,-0.72,1.11,0.53,-0.32,933.55
1.627,-0.60,0.01,0.92,0.65,-1.18,-0.72,1.31,0.15,0.18,933.55
1.632,-0.67,-0.07,0.81,0.65,-1.18,-0.72,1.31,0.15,0.18,933.55
1.632,-0.67,-0.07,0.81,1.27,0.31,0.38,1.31,0.15,0.18,933.55
1.635,-0.67,-0.07,0.81,1.27,0.31,0.38,1.31,0.15,0.18,933.55
1.69,-0.67,-0.07,0.81,1.27,0.31,0.38,1.46,0.02,0.55,933.55
1.695,-0.53,0.03,0.87,1.27,0.31,0.38,1.46,0.02,0.55,933.55
1.696,-0.53,0.03,0.87,-0.15,0.34,-0.24,1.46,0.02,0.55,933.55
1.701,-0.53,0.03,0.87,-0.15,0.34,-0.24,1.46,0.02,0.55,933.52
1.755,-0.53,0.03,0.87,-0.15,0.34,-0.24,1.40,-0.02,0.17,933.52
1.758,-0.32,0.08,0.73,-0.15,0.34,-0.24,1.40,-0.02,0.17,933.52
1.759,-0.32,0.08,0.73,-2.17,0.63,1.07,1.40,-0.02,0.17,933.52
1.768,-0.32,0.08,0.73,-2.17,0.63,1.07,1.40,-0.02,0.17,933.52
1.818,-0.32,0.08,0.73,-2.17,0.63,1.07,1.21,0.58,-0.19,933.52
1.822,-0.40,0.10,0.66,-2.17,0.63,1.07,1.21,0.58,-0.19,933.52
1.822,-0.40,0.10,0.66,-1.67,0.90,1.38,1.21,0.58,-0.19,933.52
1.836,-0.40,0.10,0.66,-1.67,0.90,1.38,1.21,0.58,-0.19,933.52
1.88,-0.40,0.10,0.66,-1.67,0.90,1.38,0.65,0.07,-0.29,933.52
1.885,-0.48,0.15,0.69,-1.67,0.90,1.38,0.65,0.07,-0.29,933.52
1.885,-0.48,0.15,0.69,-0.99,0.70,1.06,0.65,0.07,-0.29,933.52
1.902,-0.48,0.15,0.69,-0.99,0.70,1.06,0.65,0.07,-0.29,933.46
1.944,-0.48,0.15,0.69,-0.99,0.70,1.06,0.48,0.21,-0.57,933.46
1.948,-0.44,0.22,0.86,-0.99,0.70,1.06,0.48,0.21,-0.57,933.46
1.949,-0.44,0.22,0.86,-1.52,0.02,-0.77,0.48,0.21,-0.57,933.46
1.969,-0.44,0.22,0.86,-1.52,0.02,-0.77,0.48,0.21,-0.57,933.46
2.007,-0.44,0.22,0.86,-1.52,0.02,-0.77,0.40,0.62,-1.04,933.46
2.011,-0.57,0.19,0.72,-1.52,0.02,-0.77,0.40,0.62,-1.04,933.46
2.012,-0.57,0.19,0.72,-0.75,0.08,0.34,0.40,0.62,-1.04,933.46
2.035,-0.57,0.19,0.72,-0.75,0.08,0.34,0.40,0.62,-1.04,933.41
2.07,-0.57,0.19,0.72,-0.75,0.08,0.34,0.01,0.46,-0.66,933.41
2.075,-0.77,0.11,0.63,-0.75,0.08,0.34,0.01,0.46,-0.66,933.41
2.075,-0.77,0.11,0.63,1.00,0.62,1.01,0.01,0.46,-0.66,933.41
2.102,-0.77,0.11,0.63,1.00,0.62,1.01,0.01,0.46,-0.66,933.41
2.133,-0.77,0.11,0.63,1.00,0.62,1.01,-0.08,0.29,-0.49,933.41
2.138,-0.56,0.24,0.76,1.00,0.62,1.01,-0.08,0.29,-0.49,933.41
2.139,-0.56,0.24,0.76,-1.25,-0.93,-0.44,-0.08,0.29,-0.49,933.41
2.168,-0.56,0.24,0.76,-1.25,-0.93,-0.44,-0.08,0.29,-0.49,933.42
2.198,-0.56,0.24,0.76,-1.25,-0.93,-0.44,-0.13,-0.01,-0.57,933.42
2.203,-0.56,0.24,0.76,-0.54,-0.42,0.25,-0.13,-0.01,-0.57,933.42
2.204,-0.64,0.16,0.69,-0.54,-0.42,0.25,-0.13,-0.01,-0.57,933.42
2.236,-0.64,0.16,0.69,-0.54,-0.42,0.25,-0.13,-0.01,-0.57,933.42
2.262,-0.64,0.16,0.69,-0.54,-0.42,0.25,-0.04,0.27,-0.65,933.42
2.273,-0.64,0.16,0.69,-0.01,0.47,0.13,-0.04,0.27,-0.65,933.42
2.274,-0.71,0.04,0.70,-0.01,0.47,0.13,-0.04,0.27,-0.65,933.42
2.304,-0.71,0.04,0.70,-0.01,0.47,0.13,-0.04,0.27,-0.65,933.49
2.324,-0.71,0.04,0.70,-0.01,0.47,0.13,-0.23,-0.55,-0.58,933.49
2.329,-0.71,0.04,0.70,-0.17,1.50,1.59,-0.23,-0.55,-0.58,933.49
2.33,-0.67,-0.10,0.57,-0.17,1.50,1.59,-0.23,-0.55,-0.58,933.49
2.372,-0.67,-0.10,0.57,-0.17,1.50,1.59,-0.23,-0.55,-0.58,933.49
2.393,-0.67,-0.10,0.57,-0.17,1.50,1.59,-0.13,-0.07,-0.31,933.49
2.394,-0.67,-0.10,0.57,1.82,0.94,-0.09,-0.13,-0.07,-0.31,933.49
2.394,-0.87,-0.07,0.75,1.82,0.94,-0.09,-0.13,-0.07,-0.31,933.49
2.435,-0.87,-0.07,0.75,1.82,0.94,-0.09,-0.13,-0.07,-0.31,933.49
2.45,-0.87,-0.07,0.75,1.82,0.94,-0.09,-0.11,-0.67,0.17,933.49
2.455,-0.81,-0.02,0.70,1.82,0.94,-0.09,-0.11,-0.67,0.17,933.49
2.456,-0.81,-0.02,0.70,1.54,0.47,0.64,-0.11,-0.67,0.17,933.49
2.503,-0.81,-0.02,0.70,1.54,0.47,0.64,-0.11,-0.67,0.17,933.54
2.515,-0.81,-0.02,0.70,1.54,0.47,0.64,0.07,-0.44,0.12,933.54
2.519,-0.72,0.06,0.79,1.54,0.47,0.64,0.07,-0.44,0.12,933.54
2.523,-0.72,0.06,0.79,0.90,-0.17,-0.09,0.07,-0.44,0.12,933.54
2.573,-0.72,0.06,0.79,0.90,-0.17,-0.09,0.07,-0.44,0.12,933.54
2.578,-0.72,0.06,0.79,0.90,-0.17,-0.09,0.26,-0.20,-0.04,933.54
2.592,-0.69,0.11,0.80,0.90,-0.17,-0.09,0.26,-0.20,-0.04,933.54
2.593,-0.69,0.11,0.80,0.68,-0.54,-0.10,0.26,-0.20,-0.04,933.54
2.637,-0.69,0.11,0.80,0.68,-0.54,-0.10,0.26,-0.20,-0.04,933.56
2.641,-0.69,0.11,0.80,0.68,-0.54,-0.10,0.40,0.01,-0.25,933.56
2.645,-0.66,0.11,0.69,0.68,-0.54,-0.10,0.40,0.01,-0.25,933.56
2.646,-0.66,0.11,0.69,0.32,-0.43,0.94,0.40,0.01,-0.25,933.56
2.703,-0.66,0.11,0.69,0.32,-0.43,0.94,0.40,0.01,-0.25,933.56
2.705,-0.66,0.11,0.69,0.32,-0.43,0.94,0.27,0.22,-0.20,933.56
2.709,-0.82,-0.00,0.70,0.32,-0.43,0.94,0.27,0.22,-0.20,933.56
2.709,-0.82,-0.00,0.70,1.76,0.70,0.75,0.27,0.22,-0.20,933.56
2.776,-0.82,-0.00,0.70,1.76,0.70,0.75,0.22,0.12,0.22,933.56
2.777,-0.82,-0.00,0.70,1.76,0.70,0.75,0.22,0.12,0.22,933.57
2.777,-0.77,-0.03,0.81,1.76,0.70,0.75,0.22,0.12,0.22,933.57
2.778,-0.77,-0.03,0.81,1.28,1.14,-0.41,0.22,0.12,0.22,933.57
2.832,-0.77,-0.03,0.81,1.28,1.14,-0.41,0.05,-0.29,0.18,933.57
2.836,-0.51,0.06,0.59,1.28,1.14,-0.41,0.05,-0.29,0.18,933.57
2.837,-0.51,0.06,0.59,-1.10,0.38,1.93,0.05,-0.29,0.18,933.57
2.838,-0.51,0.06,0.59,-1.10,0.38,1.93,0.05,-0.29,0.18,933.57
2.895,-0.51,0.06,0.59,-1.10,0.38,1.93,-0.07,0.20,-0.18,933.57
2.9,-0.59,0.14,0.84,-1.10,0.38,1.93,-0.07,0.20,-0.18,933.57
2.901,-0.59,0.14,0.84,-0.42,-0.54,-0.68,-0.07,0.20,-0.18,933.57
2.902,-0.59,0.14,0.84,-0.42,-0.54,-0.68,-0.07,0.20,-0.18,933.57
2.958,-0.59,0.14,0.84,-0.42,-0.54,-0.68,-0.11,-0.04,-0.22,933.57
2.963,-0.53,0.13,0.65,-0.42,-0.54,-0.68,-0.11,-0.04,-0.22,933.57
2.964,-0.53,0.13,0.65,-1.08,-0.54,1.26,-0.11,-0.04,-0.22,933.57
2.975,-0.53,0.13,0.65,-1.08,-0.54,1.26,-0.11,-0.04,-0.22,933.57
3.021,-0.53,0.13,0.65,-1.08,-0.54,1.26,-0.12,0.54,-0.70,933.57
3.026,-0.63,-0.12,0.82,-1.08,-0.54,1.26,-0.12,0.54,-0.70,933.57
3.027,-0.63,-0.12,0.82,-0.35,1.52,-0.60,-0.12,0.54,-0.70,933.57
3.036,-0.63,-0.12,0.82,-0.35,1.52,-0.60,-0.12,0.54,-0.70,933.57
3.085,-0.63,-0.12,0.82,-0.35,1.52,-0.60,0.14,0.21,-0.52,933.57
3.09,-0.57,0.03,0.93,-0.35,1.52,-0.60,0.14,0.21,-0.52,933.57
3.091,-0.57,0.03,0.93,-1.08,-0.06,-1.82,0.14,0.21,-0.52,933.57
3.103,-0.57,0.03,0.93,-1.08,-0.06,-1.82,0.14,0.21,-0.52,933.58
3.148,-0.57,0.03,0.93,-1.08,-0.06,-1.82,0.06,1.64,-0.50,933.58
3.154,-0.83,0.04,0.64,-1.08,-0.06,-1.82,0.06,1.64,-0.50,933.58
3.155,-0.83,0.04,0.64,0.74,-0.38,0.37,0.06,1.64,-0.50,933.58
3.17,-0.83,0.04,0.64,0.74,-0.38,0.37,0.06,1.64,-0.50,933.58
3.212,-0.83,0.04,0.64,0.74,-0.38,0.37,-0.09,1.46,-0.30,933.58
3.217,-0.83,0.04,0.64,0.11,-0.18,-0.63,-0.09,1.46,-0.30,933.58
3.218,-0.82,0.00,0.67,0.11,-0.18,-0.63,-0.09,1.46,-0.30,933.58
3.236,-0.82,0.00,0.67,0.11,-0.18,-0.63,-0.09,1.46,-0.30,933.54
3.274,-0.82,0.00,0.67,0.11,-0.18,-0.63,0.11,0.37,0.04,933.54
3.279,-0.82,0.00,0.67,-0.06,-0.06,-0.68,0.11,0.37,0.04,933.54
3.28,-0.82,-0.00,0.65,-0.06,-0.06,-0.68,0.11,0.37,0.04,933.54
3.303,-0.82,-0.00,0.65,-0.06,-0.06,-0.68,0.11,0.37,0.04,933.54
3.339,-0.82,-0.00,0.65,-0.06,-0.06,-0.68,-0.12,1.97,-0.13,933.54
3.343,-0.82,-0.00,0.65,-1.47,0.22,-0.84,-0.12,1.97,-0.13,933.54
3.344,-0.74,-0.04,0.56,-1.47,0.22,-0.84,-0.12,1.97,-0.13,933.54
3.375,-0.74,-0.04,0.56,-1.47,0.22,-0.84,-0.12,1.97,-0.13,933.54
3.402,-0.74,-0.04,0.56,-1.47,0.22,-0.84,-0.01,2.32,-0.44,933.54
3.407,-0.74,-0.04,0.56,-2.04,0.76,-1.03,-0.01,2.32,-0.44,933.54
3.411,-0.74,-0.13,0.45,-2.04,0.76,-1.03,-0.01,2.32,-0.44,933.54
3.436,-0.74,-0.13,0.45,-2.04,0.76,-1.03,-0.01,2.32,-0.44,933.51
3.465,-0.74,-0.13,0.45,-2.04,0.76,-1.03,0.06,1.37,-0.55,933.51
3.475,-0.74,-0.13,0.45,0.69,1.14,2.69,0.06,1.37,-0.55,933.51
3.476,-1.04,-0.20,-0.01,0.69,1.14,2.69,0.06,1.37,-0.55,933.51
3.503,-1.04,-0.20,-0.01,0.69,1.14,2.69,0.06,1.37,-0.55,933.51
3.527,-1.04,-0.20,-0.01,0.69,1.14,2.69,-0.41,-0.39,0.23,933.51
3.532,-1.12,-0.22,0.15,0.69,1.14,2.69,-0.41,-0.39,0.23,933.51
3.533,-1.12,-0.22,0.15,1.53,1.45,1.27,-0.41,-0.39,0.23,933.51
3.575,-1.12,-0.22,0.15,1.53,1.45,1.27,-0.41,-0.39,0.23,933.49
3.597,-1.12,-0.22,0.15,1.53,1.45,1.27,0.20,-0.26,-0.11,933.49
3.598,-1.12,-0.22,0.15,-1.48,-0.09,-2.88,0.20,-0.26,-0.11,933.49
3.599,-0.81,-0.07,0.59,-1.48,-0.09,-2.88,0.20,-0.26,-0.11,933.49
3.636,-0.81,-0.07,0.59,-1.48,-0.09,-2.88,0.20,-0.26,-0.11,933.49
3.654,-0.81,-0.07,0.59,-1.48,-0.09,-2.88,0.49,0.10,-0.52,933.49
3.659,-0.91,-0.02,0.24,-1.48,-0.09,-2.88,0.49,0.10,-0.52,933.49
3.66,-0.91,-0.02,0.24,-0.47,-0.78,0.53,0.49,0.10,-0.52,933.49
3.705,-0.91,-0.02,0.24,-0.47,-0.78,0.53,0.49,0.10,-0.52,933.48
3.719,-0.91,-0.02,0.24,-0.47,-0.78,0.53,-0.07,-0.24,-0.19,933.48
3.727,-1.20,-0.16,0.22,-0.47,-0.78,0.53,-0.07,-0.24,-0.19,933.48
3.728,-1.20,-0.16,0.22,2.46,0.45,0.92,-0.07,-0.24,-0.19,933.48
3.777,-1.20,-0.16,0.22,2.46,0.45,0.92,-0.07,-0.24,-0.19,933.48
3.783,-1.20,-0.16,0.22,2.46,0.45,0.92,0.09,-0.49,0.19,933.48
3.796,-1.20,-0.16,0.22,0.07,-0.50,-1.11,0.09,-0.49,0.19,933.48
3.797,-0.95,-0.05,0.45,0.07,-0.50,-1.11,0.09,-0.49,0.19,933.48
3.836,-0.95,-0.05,0.45,0.07,-0.50,-1.11,0.09,-0.49,0.19,933.47
3.844,-0.95,-0.05,0.45,0.07,-0.50,-1.11,0.24,0.31,0.07,933.47
3.848,-0.88,-0.08,0.47,0.07,-0.50,-1.11,0.24,0.31,0.07,933.47
3.849,-0.88,-0.08,0.47,-0.73,-0.10,-1.48,0.24,0.31,0.07,933.47
3.905,-0.88,-0.08,0.47,-0.73,-0.10,-1.48,0.24,0.31,0.07,933.47
3.911,-0.88,-0.08,0.47,-0.73,-0.10,-1.48,0.16,-0.10,-0.07,933.47
3.912,-0.94,-0.11,0.08,-0.73,-0.10,-1.48,0.16,-0.10,-0.07,933.47
3.913,-0.94,-0.11,0.08,-0.12,0.18,2.48,0.16,-0.10,-0.07,933.47
3.979,-0.94,-0.11,0.08,-0.12,0.18,2.48,0.16,-0.10,-0.07,933.47
3.98,-0.94,-0.11,0.08,-0.12,0.18,2.48,-0.05,0.03,0.16,933.47
3.981,-0.88,-0.14,0.61,-0.12,0.18,2.48,-0.05,0.03,0.16,933.47
3.981,-0.88,-0.14,0.61,-0.64,0.62,-2.81,-0.05,0.03,0.16,933.47
4.035,-0.88,-0.14,0.61,-0.64,0.62,-2.81,0.56,-0.22,-0.20,933.47
4.036,-0.88,-0.14,0.61,-0.64,0.62,-2.81,0.56,-0.22,-0.20,933.46
4.039,-0.89,0.01,0.38,-0.64,0.62,-2.81,0.56,-0.22,-0.20,933.46
4.04,-0.89,0.01,0.38,-0.55,-0.90,-0.37,0.56,-0.22,-0.20,933.46
4.099,-0.89,0.01,0.38,-0.55,-0.90,-0.37,-0.23,-0.61,0.16,933.46
4.102,-1.03,-0.12,0.04,-0.55,-0.90,-0.37,-0.23,-0.61,0.16,933.46
4.104,-1.03,-0.12,0.04,0.93,0.41,3.32,-0.23,-0.61,0.16,933.46
4.105,-1.03,-0.12,0.04,0.93,0.41,3.32,-0.23,-0.61,0.16,933.46
4.161,-1.03,-0.12,0.04,0.93,0.41,3.32,-0.14,0.40,-0.00,933.46
4.167,-1.07,-0.12,0.43,0.93,0.41,3.32,-0.14,0.40,-0.00,933.46
4.168,-1.07,-0.12,0.43,1.24,0.36,-0.75,-0.14,0.40,-0.00,933.46
4.181,-1.07,-0.12,0.43,1.24,0.36,-0.75,-0.14,0.40,-0.00,933.44
4.228,-1.07,-0.12,0.43,1.24,0.36,-0.75,-0.02,0.30,0.07,933.44
4.229,-0.95,-0.07,0.23,1.24,0.36,-0.75,-0.02,0.30,0.07,933.44
4.23,-0.95,-0.07,0.23,0.05,-0.03,1.06,-0.02,0.30,0.07,933.44
4.237,-0.95,-0.07,0.23,0.05,-0.03,1.06,-0.02,0.30,0.07,933.44
4.288,-0.95,-0.07,0.23,0.05,-0.03,1.06,-0.37,0.38,0.10,933.44
4.292,-0.75,-0.14,0.36,0.05,-0.03,1.06,-0.37,0.38,0.10,933.44
4.293,-0.75,-0.14,0.36,-2.05,0.65,-0.44,-0.37,0.38,0.10,933.44
4.303,-0.75,-0.14,0.36,-2.05,0.65,-0.44,-0.37,0.38,0.10,933.44
4.351,-0.75,-0.14,0.36,-2.05,0.65,-0.44,0.46,1.09,-0.87,933.44
4.355,-0.75,-0.11,0.58,-2.05,0.65,-0.44,0.46,1.09,-0.87,933.44
4.356,-0.75,-0.11,0.58,-2.17,-0.13,-3.24,0.46,1.09,-0.87,933.44
4.371,-0.75,-0.11,0.58,-2.17,-0.13,-3.24,0.46,1.09,-0.87,933.44
4.414,-0.75,-0.11,0.58,-2.17,-0.13,-3.24,0.11,-0.31,-0.00,933.44
4.435,-1.42,-0.15,0.07,-2.17,-0.13,-3.24,0.11,-0.31,-0.00,933.44
4.437,-1.42,-0.15,0.07,4.44,0.26,1.94,0.11,-0.31,-0.00,933.44
4.438,-1.42,-0.15,0.07,4.44,0.26,1.94,0.11,-0.31,-0.00,933.44
4.477,-1.42,-0.15,0.07,4.44,0.26,1.94,-0.10,-0.73,0.85,933.44
4.482,-1.07,-0.06,0.23,4.44,0.26,1.94,-0.10,-0.73,0.85,933.44
4.483,-1.07,-0.06,0.23,1.17,-0.08,0.82,-0.10,-0.73,0.85,933.44
4.503,-1.07,-0.06,0.23,1.17,-0.08,0.82,-0.10,-0.73,0.85,933.40
4.541,-1.07,-0.06,0.23,1.17,-0.08,0.82,-0.13,-0.06,0.51,933.40
4.546,-0.78,-0.14,-0.01,1.17,-0.08,0.82,-0.13,-0.06,0.51,933.40
4.547,-0.78,-0.14,-0.01,-1.74,0.94,3.18,-0.13,-0.06,0.51,933.40
4.579,-0.78,-0.14,-0.01,-1.74,0.94,3.18,-0.13,-0.06,0.51,933.40
4.604,-0.78,-0.14,-0.01,-1.74,0.94,3.18,-0.20,-0.00,0.09,933.40
4.609,-0.93,-0.19,0.38,-1.74,0.94,3.18,-0.20,-0.00,0.09,933.40
4.613,-0.93,-0.19,0.38,-0.24,1.43,-0.63,-0.20,-0.00,0.09,933.40
4.636,-0.93,-0.19,0.38,-0.24,1.43,-0.63,-0.20,-0.00,0.09,933.39
4.668,-0.93,-0.19,0.38,-0.24,1.43,-0.63,0.17,0.05,0.28,933.39
4.68,-0.88,-0.09,0.55,-0.24,1.43,-0.63,0.17,0.05,0.28,933.39
4.681,-0.88,-0.09,0.55,-0.74,0.62,-2.37,0.17,0.05,0.28,933.39
4.702,-0.88,-0.09,0.55,-0.74,0.62,-2.37,0.17,0.05,0.28,933.39
4.731,-0.88,-0.09,0.55,-0.74,0.62,-2.37,0.26,-0.57,0.21,933.39
4.735,-1.02,0.25,0.12,-0.74,0.62,-2.37,0.26,-0.57,0.21,933.39
4.736,-1.02,0.25,0.12,0.74,-2.44,2.19,0.26,-0.57,0.21,933.39
4.782,-1.02,0.25,0.12,0.74,-2.44,2.19,0.26,-0.57,0.21,933.40
4.805,-1.02,0.25,0.12,0.74,-2.44,2.19,-0.13,-0.13,0.53,933.40
4.807,-0.99,-0.02,0.29,0.74,-2.44,2.19,-0.13,-0.13,0.53,933.40
4.807,-0.99,-0.02,0.29,0.48,0.43,0.57,-0.13,-0.13,0.53,933.40
4.836,-0.99,-0.02,0.29,0.48,0.43,0.57,-0.13,-0.13,0.53,933.40
4.857,-0.99,-0.02,0.29,0.48,0.43,0.57,-0.45,0.56,0.12,933.40
4.862,-0.92,-0.02,0.23,0.48,0.43,0.57,-0.45,0.56,0.12,933.40
4.862,-0.92,-0.02,0.23,-0.36,0.43,0.88,-0.45,0.56,0.12,933.40
4.904,-0.92,-0.02,0.23,-0.36,0.43,0.88,-0.45,0.56,0.12,933.45
4.922,-0.92,-0.02,0.23,-0.36,0.43,0.88,-0.77,-0.35,0.35,933.45
4.93,-1.12,0.05,0.21,-0.36,0.43,0.88,-0.77,-0.35,0.35,933.45
4.931,-1.12,0.05,0.21,1.66,-0.20,1.23,-0.77,-0.35,0.35,933.45
4.983,-1.12,0.05,0.21,1.66,-0.20,1.23,-0.77,-0.35,0.35,933.44
4.986,-1.12,0.05,0.21,1.66,-0.20,1.23,-1.06,-2.54,0.97,933.44
5.008,-1.12,0.05,0.21,1.96,-0.02,2.90,-1.06,-2.54,0.97,933.44
5.009,-1.08,0.06,0.19,1.96,-0.02,2.90,-1.06,-2.54,0.97,933.44
5.037,-1.08,0.06,0.19,1.96,-0.02,2.90,-1.06,-2.54,0.97,933.44
5.047,-1.08,0.06,0.19,1.96,-0.02,2.90,-1.00,-1.60,1.11,933.44
5.052,-0.72,0.18,0.60,1.96,-0.02,2.90,-1.00,-1.60,1.11,933.44
5.053,-0.72,0.18,0.60,-1.01,-0.94,-0.18,-1.00,-1.60,1.11,933.44
5.103,-0.72,0.18,0.60,-1.01,-0.94,-0.18,-1.00,-1.60,1.11,933.54
5.114,-0.72,0.18,0.60,-1.01,-0.94,-0.18,-0.99,-0.43,0.50,933.54
5.116,-0.65,-0.05,0.68,-1.01,-0.94,-0.18,-0.99,-0.43,0.50,933.54
5.117,-0.65,-0.05,0.68,-1.47,1.15,-0.68,-0.99,-0.43,0.50,933.54
5.17,-0.65,-0.05,0.68,-1.47,1.15,-0.68,-0.99,-0.43,0.50,933.54
5.183,-0.65,-0.05,0.68,-1.47,1.15,-0.68,-0.59,0.36,-0.09,933.54
5.185,-0.61,-0.28,0.80,-1.47,1.15,-0.68,-0.59,0.36,-0.09,933.54
5.186,-0.61,-0.28,0.80,-1.99,3.15,-2.05,-0.59,0.36,-0.09,933.54
5.237,-0.61,-0.28,0.80,-1.99,3.15,-2.05,-0.59,0.36,-0.09,933.62
5.24,-0.61,-0.28,0.80,-1.99,3.15,-2.05,-0.48,-0.20,0.25,933.62
5.244,-0.61,-0.28,0.80,0.70,1.60,1.80,-0.48,-0.20,0.25,933.62
5.245,-0.88,-0.13,0.42,0.70,1.60,1.80,-0.48,-0.20,0.25,933.62
5.301,-0.88,-0.13,0.42,0.70,1.60,1.80,-0.35,-0.30,-0.13,933.62
5.303,-0.88,-0.13,0.42,0.70,1.60,1.80,-0.35,-0.30,-0.13,933.62
5.305,-0.78,-0.13,0.60,0.70,1.60,1.80,-0.35,-0.30,-0.13,933.62
5.306,-0.78,-0.13,0.60,-0.11,1.47,0.16,-0.35,-0.30,-0.13,933.62
5.365,-0.78,-0.13,0.60,-0.11,1.47,0.16,-0.30,-0.46,0.09,933.62
5.37,-0.83,-0.05,0.61,-0.11,1.47,0.16,-0.30,-0.46,0.09,933.62
5.371,-0.83,-0.05,0.61,0.52,0.60,0.32,-0.30,-0.46,0.09,933.62
5.372,-0.83,-0.05,0.61,0.52,0.60,0.32,-0.30,-0.46,0.09,933.66
5.428,-0.83,-0.05,0.61,0.52,0.60,0.32,-0.28,-0.62,-0.14,933.66
5.432,-0.83,-0.05,0.61,0.94,-0.31,1.06,-0.28,-0.62,-0.14,933.66
5.433,-0.85,0.02,0.56,0.94,-0.31,1.06,-0.28,-0.62,-0.14,933.66
5.436,-0.85,0.02,0.56,0.94,-0.31,1.06,-0.28,-0.62,-0.14,933.66
5.491,-0.85,0.02,0.56,0.94,-0.31,1.06,-0.29,-0.49,-0.16,933.66
5.495,-0.75,-0.02,0.54,0.94,-0.31,1.06,-0.29,-0.49,-0.16,933.66
5.496,-0.75,-0.02,0.54,0.22,-0.11,1.47,-0.29,-0.49,-0.16,933.66
5.503,-0.75,-0.02,0.54,0.22,-0.11,1.47,-0.29,-0.49,-0.16,933.66
5.554,-0.75,-0.02,0.54,0.22,-0.11,1.47,-0.37,-0.40,-0.13,933.66
5.559,-0.70,-0.11,0.75,0.22,-0.11,1.47,-0.37,-0.40,-0.13,933.66
5.56,-0.70,-0.11,0.75,-0.15,0.53,-0.34,-0.37,-0.40,-0.13,933.66
5.569,-0.70,-0.11,0.75,-0.15,0.53,-0.34,-0.37,-0.40,-0.13,933.65
5.618,-0.70,-0.11,0.75,-0.15,0.53,-0.34,-0.38,0.08,-0.10,933.65
5.624,-0.77,-0.03,0.65,-0.15,0.53,-0.34,-0.38,0.08,-0.10,933.65
5.625,-0.77,-0.03,0.65,0.49,-0.41,0.52,-0.38,0.08,-0.10,933.65
5.637,-0.77,-0.03,0.65,0.49,-0.41,0.52,-0.38,0.08,-0.10,933.65
5.688,-0.77,-0.03,0.65,0.49,-0.41,0.52,-0.44,0.04,0.04,933.65
5.69,-0.83,-0.01,0.65,0.49,-0.41,0.52,-0.44,0.04,0.04,933.65
5.691,-0.83,-0.01,0.65,1.13,-0.78,0.49,-0.44,0.04,0.04,933.65
5.703,-0.83,-0.01,0.65,1.13,-0.78,0.49,-0.44,0.04,0.04,933.62
5.745,-0.83,-0.01,0.65,1.13,-0.78,0.49,-0.02,0.25,0.36,933.62
5.749,-0.83,-0.01,0.65,3.07,-1.15,0.28,-0.02,0.25,0.36,933.62
5.75,-1.04,0.04,0.66,3.07,-1.15,0.28,-0.02,0.25,0.36,933.62
5.77,-1.04,0.04,0.66,3.07,-1.15,0.28,-0.02,0.25,0.36,933.62
5.808,-1.04,0.04,0.66,3.07,-1.15,0.28,0.39,-0.08,0.72,933.62
5.815,-1.04,0.04,0.66,-1.96,7.43,1.00,0.39,-0.08,0.72,933.62
5.817,-0.53,-0.78,0.59,-1.96,7.43,1.00,0.39,-0.08,0.72,933.62
5.839,-0.53,-0.78,0.59,-1.96,7.43,1.00,0.39,-0.08,0.72,933.60
5.871,-0.53,-0.78,0.59,-1.96,7.43,1.00,0.25,0.88,-0.49,933.60
5.883,-0.53,-0.78,0.59,-2.31,1.48,2.78,0.25,0.88,-0.49,933.60
5.886,-0.53,-0.19,0.37,-2.31,1.48,2.78,0.25,0.88,-0.49,933.60
5.905,-0.53,-0.19,0.37,-2.31,1.48,2.78,0.25,0.88,-0.49,933.60
5.934,-0.53,-0.19,0.37,-2.31,1.48,2.78,-0.33,1.96,-1.30,933.60
5.938,-0.53,-0.17,0.40,-2.31,1.48,2.78,-0.33,1.96,-1.30,933.60
5.938,-0.53,-0.17,0.40,-2.99,0.51,1.51,-0.33,1.96,-1.30,933.60
5.97,-0.53,-0.17,0.40,-2.99,0.51,1.51,-0.33,1.96,-1.30,933.60
5.998,-0.53,-0.17,0.40,-2.99,0.51,1.51,-0.67,1.33,-2.14,933.60
6.002,-0.53,-0.17,0.40,-1.11,0.26,0.16,-0.67,1.33,-2.14,933.60
6.003,-0.74,-0.28,0.46,-1.11,0.26,0.16,-0.67,1.33,-2.14,933.60
6.037,-0.74,-0.28,0.46,-1.11,0.26,0.16,-0.67,1.33,-2.14,933.55
6.061,-0.74,-0.28,0.46,-1.11,0.26,0.16,-1.03,-0.44,-1.85,933.55
6.065,-0.74,-0.28,0.46,2.04,0.75,-0.62,-1.03,-0.44,-1.85,933.55
6.066,-1.01,-0.46,0.54,2.04,0.75,-0.62,-1.03,-0.44,-1.85,933.55
6.104,-1.01,-0.46,0.54,2.04,0.75,-0.62,-1.03,-0.44,-1.85,933.55
6.124,-1.01,-0.46,0.54,2.04,0.75,-0.62,-1.05,-1.38,-1.07,933.55
6.128,-0.89,-0.46,0.55,2.04,0.75,-0.62,-1.05,-1.38,-1.07,933.55
6.129,-0.89,-0.46,0.55,1.51,-0.09,-0.39,-1.05,-1.38,-1.07,933.55
6.171,-0.89,-0.46,0.55,1.51,-0.09,-0.39,-1.05,-1.38,-1.07,933.55
6.187,-0.89,-0.46,0.55,1.51,-0.09,-0.39,-0.90,-1.23,-0.51,933.55
6.207,-0.88,-0.41,0.56,1.51,-0.09,-0.39,-0.90,-1.23,-0.51,933.55
6.208,-0.88,-0.41,0.56,2.00,-1.03,-0.18,-0.90,-1.23,-0.51,933.55
6.237,-0.88,-0.41,0.56,2.00,-1.03,-0.18,-0.90,-1.23,-0.51,933.55
6.251,-0.88,-0.41,0.56,2.00,-1.03,-0.18,-0.70,-1.32,0.04,933.55
6.255,-0.87,-0.43,0.50,2.00,-1.03,-0.18,-0.70,-1.32,0.04,933.55
6.256,-0.87,-0.43,0.50,2.29,-1.08,0.73,-0.70,-1.32,0.04,933.55
6.304,-0.87,-0.43,0.50,2.29,-1.08,0.73,-0.70,-1.32,0.04,933.55
6.315,-0.87,-0.43,0.50,2.29,-1.08,0.73,-0.58,-1.60,0.51,933.55
6.318,-0.69,-0.42,0.47,2.29,-1.08,0.73,-0.58,-1.60,0.51,933.55
6.318,-0.69,-0.42,0.47,0.94,-1.23,1.40,-0.58,-1.60,0.51,933.55
6.371,-0.69,-0.42,0.47,0.94,-1.23,1.40,-0.58,-1.60,0.51,933.55
6.388,-0.69,-0.42,0.47,0.94,-1.23,1.40,-0.58,-1.47,0.57,933.55
6.389,-0.54,-0.33,0.53,0.94,-1.23,1.40,-0.58,-1.47,0.57,933.55
6.39,-0.54,-0.33,0.53,-0.08,-2.14,1.11,-0.58,-1.47,0.57,933.55
6.437,-0.54,-0.33,0.53,-0.08,-2.14,1.11,-0.58,-1.47,0.57,933.58
6.44,-0.54,-0.33,0.53,-0.08,-2.14,1.11,-0.50,-1.12,0.12,933.58
6.446,-0.63,-0.34,0.69,-0.08,-2.14,1.11,-0.50,-1.12,0.12,933.58
6.446,-0.63,-0.34,0.69,1.19,-2.11,-0.20,-0.50,-1.12,0.12,933.58
6.503,-0.63,-0.34,0.69,1.19,-2.11,-0.20,-0.50,-1.12,0.12,933.58
6.504,-0.63,-0.34,0.69,1.19,-2.11,-0.20,0.16,-0.93,-0.23,933.58
6.509,-0.75,-0.50,0.88,1.19,-2.11,-0.20,0.16,-0.93,-0.23,933.58
6.509,-0.75,-0.50,0.88,2.79,-0.60,-1.78,0.16,-0.93,-0.23,933.58
6.567,-0.75,-0.50,0.88,2.79,-0.60,-1.78,0.90,-0.61,-0.18,933.58
6.57,-0.75,-0.50,0.88,2.79,-0.60,-1.78,0.90,-0.61,-0.18,933.58
6.572,-0.75,-0.50,0.88,3.97,1.84,-0.84,0.90,-0.61,-0.18,933.58
6.574,-0.84,-0.71,0.83,3.97,1.84,-0.84,0.90,-0.61,-0.18,933.58
6.631,-0.84,-0.71,0.83,3.97,1.84,-0.84,1.30,-0.57,0.43,933.58
6.635,-0.76,-0.67,0.68,3.97,1.84,-0.84,1.30,-0.57,0.43,933.58
6.635,-0.76,-0.67,0.68,3.40,2.14,1.21,1.30,-0.57,0.43,933.58
6.636,-0.76,-0.67,0.68,3.40,2.14,1.21,1.30,-0.57,0.43,933.60
6.694,-0.76,-0.67,0.68,3.40,2.14,1.21,0.94,-0.45,0.70,933.60
6.699,-0.76,-0.67,0.68,1.11,0.84,0.56,0.94,-0.45,0.70,933.60
6.7,-0.53,-0.47,0.78,1.11,0.84,0.56,0.94,-0.45,0.70,933.60
6.704,-0.53,-0.47,0.78,1.11,0.84,0.56,0.94,-0.45,0.70,933.60
6.757,-0.53,-0.47,0.78,1.11,0.84,0.56,0.35,0.05,0.53,933.60
6.762,-0.49,-0.38,0.86,1.11,0.84,0.56,0.35,0.05,0.53,933.60
6.763,-0.49,-0.38,0.86,0.62,0.28,-0.14,0.35,0.05,0.53,933.60
6.77,-0.49,-0.38,0.86,0.62,0.28,-0.14,0.35,0.05,0.53,933.58
6.821,-0.49,-0.38,0.86,0.62,0.28,-0.14,0.17,-0.81,0.50,933.58
6.827,-0.38,-0.33,0.91,0.62,0.28,-0.14,0.17,-0.81,0.50,933.58
6.828,-0.38,-0.33,0.91,-0.12,0.06,-0.45,0.17,-0.81,0.50,933.58
6.837,-0.38,-0.33,0.91,-0.12,0.06,-0.45,0.17,-0.81,0.50,933.58
6.888,-0.38,-0.33,0.91,-0.12,0.06,-0.45,0.39,-0.87,0.63,933.58
6.889,-0.29,-0.20,0.89,-0.12,0.06,-0.45,0.39,-0.87,0.63,933.58
6.891,-0.29,-0.20,0.89,-0.62,-0.86,0.04,0.39,-0.87,0.63,933.58
6.908,-0.29,-0.20,0.89,-0.62,-0.86,0.04,0.39,-0.87,0.63,933.60
6.949,-0.29,-0.20,0.89,-0.62,-0.86,0.04,0.36,-0.85,0.74,933.60
6.953,-0.40,-0.07,0.79,-0.62,-0.86,0.04,0.36,-0.85,0.74,933.60
6.954,-0.40,-0.07,0.79,0.75,-1.78,1.29,0.36,-0.85,0.74,933.60
6.97,-0.40,-0.07,0.79,0.75,-1.78,1.29,0.36,-0.85,0.74,933.60
7.011,-0.40,-0.07,0.79,0.75,-1.78,1.29,0.21,-1.22,0.81,933.60
7.015,-0.32,-0.01,0.85,0.75,-1.78,1.29,0.21,-1.22,0.81,933.60
7.017,-0.32,-0.01,0.85,0.58,-2.09,0.97,0.21,-1.22,0.81,933.60
7.037,-0.32,-0.01,0.85,0.58,-2.09,0.97,0.21,-1.22,0.81,933.60
7.074,-0.32,-0.01,0.85,0.58,-2.09,0.97,0.20,-1.22,0.70,933.60
7.089,-0.42,-0.03,0.95,0.58,-2.09,0.97,0.20,-1.22,0.70,933.60
7.09,-0.42,-0.03,0.95,2.17,-1.73,0.21,0.20,-1.22,0.70,933.60
7.111,-0.42,-0.03,0.95,2.17,-1.73,0.21,0.20,-1.22,0.70,933.63
7.137,-0.42,-0.03,0.95,2.17,-1.73,0.21,0.50,-0.82,0.82,933.63
7.141,-0.48,-0.06,0.98,2.17,-1.73,0.21,0.50,-0.82,0.82,933.63
7.142,-0.48,-0.06,0.98,3.15,-1.06,0.03,0.50,-0.82,0.82,933.63
7.17,-0.48,-0.06,0.98,3.15,-1.06,0.03,0.50,-0.82,0.82,933.63
7.2,-0.48,-0.06,0.98,3.15,-1.06,0.03,0.70,-0.68,1.57,933.63
7.206,-0.48,-0.06,0.98,3.41,-0.49,-0.22,0.70,-0.68,1.57,933.63
7.207,-0.48,-0.06,1.02,3.41,-0.49,-0.22,0.70,-0.68,1.57,933.63
7.237,-0.48,-0.06,1.02,3.41,-0.49,-0.22,0.70,-0.68,1.57,933.59
7.268,-0.48,-0.06,1.02,3.41,-0.49,-0.22,0.38,-1.01,1.91,933.59
7.27,-0.36,-0.05,0.76,3.41,-0.49,-0.22,0.38,-1.01,1.91,933.59
7.271,-0.36,-0.05,0.76,2.78,-0.13,2.41,0.38,-1.01,1.91,933.59
7.304,-0.36,-0.05,0.76,2.78,-0.13,2.41,0.38,-1.01,1.91,933.59
7.328,-0.36,-0.05,0.76,2.78,-0.13,2.41,-0.47,-0.40,1.34,933.59
7.333,0.04,-0.30,1.04,2.78,-0.13,2.41,-0.47,-0.40,1.34,933.59
7.334,0.04,-0.30,1.04,-0.97,2.03,-0.36,-0.47,-0.40,1.34,933.59
7.37,0.04,-0.30,1.04,-0.97,2.03,-0.36,-0.47,-0.40,1.34,933.58
7.392,0.04,-0.30,1.04,-0.97,2.03,-0.36,-1.48,-1.33,1.05,933.58
7.395,-0.01,-0.12,0.48,-0.97,2.03,-0.36,-1.48,-1.33,1.05,933.58
7.396,-0.01,-0.12,0.48,0.24,-0.59,4.97,-1.48,-1.33,1.05,933.58
7.437,-0.01,-0.12,0.48,0.24,-0.59,4.97,-1.48,-1.33,1.05,933.58
7.453,-0.01,-0.12,0.48,0.24,-0.59,4.97,-2.19,1.00,0.26,933.58
7.458,-0.01,-0.12,0.48,-3.36,1.31,4.17,-2.19,1.00,0.26,933.58
7.459,0.30,-0.45,0.53,-3.36,1.31,4.17,-2.19,1.00,0.26,933.58
7.504,0.30,-0.45,0.53,-3.36,1.31,4.17,-2.19,1.00,0.26,933.58
7.52,0.30,-0.45,0.53,-3.36,1.31,4.17,-1.24,1.52,-0.32,933.58
7.522,0.30,-0.45,0.53,-0.44,-0.94,-1.41,-1.24,1.52,-0.32,933.58
7.522,-0.08,-0.30,1.06,-0.44,-0.94,-1.41,-1.24,1.52,-0.32,933.58
7.57,-0.08,-0.30,1.06,-0.44,-0.94,-1.41,-1.24,1.52,-0.32,933.54
7.591,-0.08,-0.30,1.06,-0.44,-0.94,-1.41,-0.86,0.27,-0.03,933.54
7.592,-0.08,-0.30,1.06,0.97,-1.38,2.67,-0.86,0.27,-0.03,933.54
7.593,-0.24,-0.30,0.62,0.97,-1.38,2.67,-0.86,0.27,-0.03,933.54
7.637,-0.24,-0.30,0.62,0.97,-1.38,2.67,-0.86,0.27,-0.03,933.54
7.643,-0.24,-0.30,0.62,0.97,-1.38,2.67,-0.77,0.12,-0.27,933.54
7.648,-0.24,-0.30,0.62,0.25,0.68,0.04,-0.77,0.12,-0.27,933.54
7.649,-0.17,-0.56,0.87,0.25,0.68,0.04,-0.77,0.12,-0.27,933.54
7.704,-0.17,-0.56,0.87,0.25,0.68,0.04,-0.77,0.12,-0.27,933.50
7.707,-0.17,-0.56,0.87,0.25,0.68,0.04,-0.57,0.07,-0.59,933.50
7.712,-0.11,-0.64,0.95,0.25,0.68,0.04,-0.57,0.07,-0.59,933.50
7.713,-0.11,-0.64,0.95,-0.17,1.16,-0.93,-0.57,0.07,-0.59,933.50
7.77,-0.11,-0.64,0.95,-0.17,1.16,-0.93,-1.09,-0.03,-0.82,933.50
7.771,-0.11,-0.64,0.95,-0.17,1.16,-0.93,-1.09,-0.03,-0.82,933.50
7.776,-0.11,-0.64,0.95,-0.13,0.14,-2.12,-1.09,-0.03,-0.82,933.50
7.777,-0.08,-0.60,1.03,-0.13,0.14,-2.12,-1.09,-0.03,-0.82,933.50
7.834,-0.08,-0.60,1.03,-0.13,0.14,-2.12,-1.21,0.45,-0.65,933.50
7.838,-0.08,-0.60,1.03,-0.13,0.14,-2.12,-1.21,0.45,-0.65,933.45
7.839,-0.20,-0.79,0.97,-0.13,0.14,-2.12,-1.21,0.45,-0.65,933.45
7.839,-0.20,-0.79,0.97,1.04,1.38,-2.02,-1.21,0.45,-0.65,933.45
7.897,-0.20,-0.79,0.97,1.04,1.38,-2.02,-0.98,0.75,-0.55,933.45
7.902,-0.13,-0.64,0.87,1.04,1.38,-2.02,-0.98,0.75,-0.55,933.45
7.902,-0.13,-0.64,0.87,0.21,-0.59,-1.52,-0.98,0.75,-0.55,933.45
7.904,-0.13,-0.64,0.87,0.21,-0.59,-1.52,-0.98,0.75,-0.55,933.45
7.961,-0.13,-0.64,0.87,0.21,-0.59,-1.52,-0.90,0.50,-0.31,933.45
7.965,-0.25,-0.69,0.82,0.21,-0.59,-1.52,-0.90,0.50,-0.31,933.45
7.966,-0.25,-0.69,0.82,1.33,-0.54,-1.44,-0.90,0.50,-0.31,933.45
7.971,-0.25,-0.69,0.82,1.33,-0.54,-1.44,-0.90,0.50,-0.31,933.42
8.024,-0.25,-0.69,0.82,1.33,-0.54,-1.44,-0.28,0.48,-0.07,933.42
8.029,-0.25,-0.69,0.82,1.68,1.06,-0.52,-0.28,0.48,-0.07,933.42
8.031,-0.30,-0.86,0.71,1.68,1.06,-0.52,-0.28,0.48,-0.07,933.42
8.039,-0.30,-0.86,0.71,1.68,1.06,-0.52,-0.28,0.48,-0.07,933.42
8.092,-0.30,-0.86,0.71,1.68,1.06,-0.52,-0.27,-0.10,0.27,933.42
8.094,-0.41,-0.61,0.52,1.68,1.06,-0.52,-0.27,-0.10,0.27,933.42
8.096,-0.41,-0.61,0.52,2.60,-1.52,1.26,-0.27,-0.10,0.27,933.42
8.121,-0.41,-0.61,0.52,2.60,-1.52,1.26,-0.27,-0.10,0.27,933.42
8.149,-0.41,-0.61,0.52,2.60,-1.52,1.26,-0.33,-0.06,0.65,933.42
8.154,-0.34,-0.84,0.81,2.60,-1.52,1.26,-0.33,-0.06,0.65,933.42
8.155,-0.34,-0.84,0.81,1.63,0.68,-1.72,-0.33,-0.06,0.65,933.42
8.17,-0.34,-0.84,0.81,1.63,0.68,-1.72,-0.33,-0.06,0.65,933.40
8.214,-0.34,-0.84,0.81,1.63,0.68,-1.72,-0.00,0.30,0.50,933.40
8.219,-0.34,-0.84,0.81,-0.09,0.39,0.17,-0.00,0.30,0.50,933.40
8.22,-0.20,-0.80,0.61,-0.09,0.39,0.17,-0.00,0.30,0.50,933.40
8.236,-0.20,-0.80,0.61,-0.09,0.39,0.17,-0.00,0.30,0.50,933.40
8.276,-0.20,-0.80,0.61,-0.09,0.39,0.17,-0.33,0.28,0.52,933.40
8.282,-0.33,-0.97,0.66,-0.09,0.39,0.17,-0.33,0.28,0.52,933.40
8.282,-0.33,-0.97,0.66,0.86,1.99,-0.52,-0.33,0.28,0.52,933.40
8.303,-0.33,-0.97,0.66,0.86,1.99,-0.52,-0.33,0.28,0.52,933.40
8.339,-0.33,-0.97,0.66,0.86,1.99,-0.52,-0.20,-0.06,0.66,933.40
8.344,-0.18,-1.13,0.77,0.86,1.99,-0.52,-0.20,-0.06,0.66,933.40
8.344,-0.18,-1.13,0.77,-0.89,3.55,-1.67,-0.20,-0.06,0.66,933.40
8.369,-0.18,-1.13,0.77,-0.89,3.55,-1.67,-0.20,-0.06,0.66,933.40
8.402,-0.18,-1.13,0.77,-0.89,3.55,-1.67,0.22,0.22,0.17,933.40
8.407,-0.11,-0.90,0.66,-0.89,3.55,-1.67,0.22,0.22,0.17,933.40
8.408,-0.11,-0.90,0.66,-1.77,1.45,-0.51,0.22,0.22,0.17,933.40
8.437,-0.11,-0.90,0.66,-1.77,1.45,-0.51,0.22,0.22,0.17,933.40
8.466,-0.11,-0.90,0.66,-1.77,1.45,-0.51,0.64,0.11,0.17,933.40
8.47,-0.16,-0.66,0.64,-1.77,1.45,-0.51,0.64,0.11,0.17,933.40
8.471,-0.16,-0.66,0.64,-1.37,-0.65,-0.02,0.64,0.11,0.17,933.40
8.503,-0.16,-0.66,0.64,-1.37,-0.65,-0.02,0.64,0.11,0.17,933.40
8.529,-0.16,-0.66,0.64,-1.37,-0.65,-0.02,0.60,-0.39,0.29,933.40
8.534,-0.43,-0.49,0.49,-1.37,-0.65,-0.02,0.60,-0.39,0.29,933.40
8.534,-0.43,-0.49,0.49,1.29,-2.06,1.71,0.60,-0.39,0.29,933.40
8.57,-0.43,-0.49,0.49,1.29,-2.06,1.71,0.60,-0.39,0.29,933.40
8.592,-0.43,-0.49,0.49,1.29,-2.06,1.71,0.27,-0.61,0.37,933.40
8.599,-0.41,-0.50,0.55,1.29,-2.06,1.71,0.27,-0.61,0.37,933.40
8.6,-0.41,-0.50,0.55,1.16,-1.75,1.38,0.27,-0.61,0.37,933.40
8.637,-0.41,-0.50,0.55,1.16,-1.75,1.38,0.27,-0.61,0.37,933.41
8.656,-0.41,-0.50,0.55,1.16,-1.75,1.38,0.25,-0.64,0.33,933.41
8.66,-0.32,-0.69,0.66,1.16,-1.75,1.38,0.25,-0.64,0.33,933.41
8.661,-0.32,-0.69,0.66,0.49,0.24,0.53,0.25,-0.64,0.33,933.41
8.703,-0.32,-0.69,0.66,0.49,0.24,0.53,0.25,-0.64,0.33,933.41
8.719,-0.32,-0.69,0.66,0.49,0.24,0.53,0.04,-0.19,0.24,933.41
8.724,-0.19,-0.75,0.74,0.49,0.24,0.53,0.04,-0.19,0.24,933.41
8.724,-0.19,-0.75,0.74,-0.83,0.89,-0.19,0.04,-0.19,0.24,933.41
8.77,-0.19,-0.75,0.74,-0.83,0.89,-0.19,0.04,-0.19,0.24,933.45
8.782,-0.19,-0.75,0.74,-0.83,0.89,-0.19,-0.52,0.11,0.15,933.45
8.787,-0.19,-0.70,0.78,-0.83,0.89,-0.19,-0.52,0.11,0.15,933.45
8.787,-0.19,-0.70,0.78,-0.90,0.28,-0.89,-0.52,0.11,0.15,933.45
8.837,-0.19,-0.70,0.78,-0.90,0.28,-0.89,-0.52,0.11,0.15,933.45
8.845,-0.19,-0.70,0.78,-0.90,0.28,-0.89,-0.43,0.01,-0.13,933.45
8.85,-0.16,-0.69,0.66,-0.90,0.28,-0.89,-0.43,0.01,-0.13,933.45
8.851,-0.16,-0.69,0.66,-1.17,-0.05,0.14,-0.43,0.01,-0.13,933.45
8.904,-0.16,-0.69,0.66,-1.17,-0.05,0.14,-0.43,0.01,-0.13,933.46
8.909,-0.16,-0.69,0.66,-1.17,-0.05,0.14,-0.10,-0.12,-0.03,933.46
8.915,-0.16,-0.69,0.66,-0.27,-0.62,1.11,-0.10,-0.12,-0.03,933.46
8.915,-0.25,-0.64,0.56,-0.27,-0.62,1.11,-0.10,-0.12,-0.03,933.46
8.97,-0.25,-0.64,0.56,-0.27,-0.62,1.11,-0.10,-0.12,-0.03,933.46
8.972,-0.25,-0.64,0.56,-0.27,-0.62,1.11,-0.09,-0.12,0.02,933.46
8.977,-0.33,-0.61,0.54,-0.27,-0.62,1.11,-0.09,-0.12,0.02,933.46
8.977,-0.33,-0.61,0.54,0.61,-0.97,1.31,-0.09,-0.12,0.02,933.46
9.036,-0.33,-0.61,0.54,0.61,-0.97,1.31,0.17,-0.31,0.28,933.46
9.037,-0.33,-0.61,0.54,0.61,-0.97,1.31,0.17,-0.31,0.28,933.46
9.04,-0.32,-0.70,0.55,0.61,-0.97,1.31,0.17,-0.31,0.28,933.46
9.041,-0.32,-0.70,0.55,0.52,0.03,1.32,0.17,-0.31,0.28,933.46
9.099,-0.32,-0.70,0.55,0.52,0.03,1.32,0.13,-0.37,0.62,933.46
9.105,-0.32,-0.70,0.55,0.52,0.03,1.32,0.13,-0.37,0.62,933.48
9.105,-0.32,-0.70,0.55,0.54,0.57,-0.40,0.13,-0.37,0.62,933.48
9.105,-0.34,-0.74,0.73,0.54,0.57,-0.40,0.13,-0.37,0.62,933.48
9.162,-0.34,-0.74,0.73,0.54,0.57,-0.40,-0.30,-0.43,0.62,933.48
9.167,-0.47,-0.92,0.70,0.54,0.57,-0.40,-0.30,-0.43,0.62,933.48
9.168,-0.47,-0.92,0.70,1.73,2.32,-0.12,-0.30,-0.43,0.62,933.48
9.17,-0.47,-0.92,0.70,1.73,2.32,-0.12,-0.30,-0.43,0.62,933.48
9.226,-0.47,-0.92,0.70,1.73,2.32,-0.12,-0.23,-0.65,0.55,933.48
9.23,-0.31,-0.82,0.54,1.73,2.32,-0.12,-0.23,-0.65,0.55,933.48
9.231,-0.31,-0.82,0.54,0.28,1.36,1.51,-0.23,-0.65,0.55,933.48
9.236,-0.31,-0.82,0.54,0.28,1.36,1.51,-0.23,-0.65,0.55,933.50
9.289,-0.31,-0.82,0.54,0.28,1.36,1.51,0.02,-0.17,0.37,933.50
9.294,-0.31,-0.82,0.54,-1.03,0.31,1.63,0.02,-0.17,0.37,933.50
9.295,-0.19,-0.70,0.53,-1.03,0.31,1.63,0.02,-0.17,0.37,933.50
9.305,-0.19,-0.70,0.53,-1.03,0.31,1.63,0.02,-0.17,0.37,933.50
9.352,-0.19,-0.70,0.53,-1.03,0.31,1.63,0.03,-0.23,0.47,933.50
9.357,-0.27,-0.71,0.67,-1.03,0.31,1.63,0.03,-0.23,0.47,933.50
9.357,-0.27,-0.71,0.67,-0.29,0.44,0.32,0.03,-0.23,0.47,933.50
9.37,-0.27,-0.71,0.67,-0.29,0.44,0.32,0.03,-0.23,0.47,933.51
9.415,-0.27,-0.71,0.67,-0.29,0.44,0.32,0.15,-0.65,0.39,933.51
9.421,-0.30,-0.68,0.64,-0.29,0.44,0.32,0.15,-0.65,0.39,933.51
9.421,-0.30,-0.68,0.64,0.15,0.30,0.78,0.15,-0.65,0.39,933.51
9.437,-0.30,-0.68,0.64,0.15,0.30,0.78,0.15,-0.65,0.39,933.51
9.479,-0.30,-0.68,0.64,0.15,0.30,0.78,0.44,-0.56,0.09,933.51
9.485,-0.31,-0.73,0.76,0.15,0.30,0.78,0.44,-0.56,0.09,933.51
9.486,-0.31,-0.73,0.76,0.41,0.95,-0.13,0.44,-0.56,0.09,933.51
9.503,-0.31,-0.73,0.76,0.41,0.95,-0.13,0.44,-0.56,0.09,933.54
9.543,-0.31,-0.73,0.76,0.41,0.95,-0.13,0.22,-0.63,0.11,933.54
9.547,-0.27,-0.63,0.67,0.41,0.95,-0.13,0.22,-0.63,0.11,933.54
9.547,-0.27,-0.63,0.67,0.31,0.17,0.91,0.22,-0.63,0.11,933.54
9.57,-0.27,-0.63,0.67,0.31,0.17,0.91,0.22,-0.63,0.11,933.54
9.606,-0.27,-0.63,0.67,0.31,0.17,0.91,-0.38,0.08,0.36,933.54
9.61,-0.37,-0.68,0.74,0.31,0.17,0.91,-0.38,0.08,0.36,933.54
9.611,-0.37,-0.68,0.74,1.11,0.47,0.10,-0.38,0.08,0.36,933.54
9.637,-0.37,-0.68,0.74,1.11,0.47,0.10,-0.38,0.08,0.36,933.54
9.669,-0.37,-0.68,0.74,1.11,0.47,0.10,-0.87,0.04,0.20,933.54
9.673,-0.39,-0.64,0.73,1.11,0.47,0.10,-0.87,0.04,0.20,933.54
9.674,-0.39,-0.64,0.73,1.18,-0.23,-0.17,-0.87,0.04,0.20,933.54
9.703,-0.39,-0.64,0.73,1.18,-0.23,-0.17,-0.87,0.04,0.20,933.56
9.733,-0.39,-0.64,0.73,1.18,-0.23,-0.17,-0.48,0.01,0.17,933.56
9.738,-0.39,-0.64,0.73,0.13,-0.04,0.87,-0.48,0.01,0.17,933.56
9.739,-0.29,-0.68,0.60,0.13,-0.04,0.87,-0.48,0.01,0.17,933.56
9.773,-0.29,-0.68,0.60,0.13,-0.04,0.87,-0.48,0.01,0.17,933.56
9.797,-0.29,-0.68,0.60,0.13,-0.04,0.87,-0.17,0.20,0.22,933.56
9.811,-0.29,-0.68,0.60,-0.40,-0.79,1.22,-0.17,0.20,0.22,933.56
9.812,-0.26,-0.61,0.55,-0.40,-0.79,1.22,-0.17,0.20,0.22,933.56
9.84,-0.26,-0.61,0.55,-0.40,-0.79,1.22,-0.17,0.20,0.22,933.56
9.86,-0.26,-0.61,0.55,-0.40,-0.79,1.22,-0.39,0.20,0.11,933.56
9.864,-0.28,-0.67,0.55,-0.40,-0.79,1.22,-0.39,0.20,0.11,933.56
9.864,-0.28,-0.67,0.55,-0.27,-0.28,1.07,-0.39,0.20,0.11,933.56
9.905,-0.28,-0.67,0.55,-0.27,-0.28,1.07,-0.39,0.20,0.11,933.56
9.923,-0.28,-0.67,0.55,-0.27,-0.28,1.07,-0.14,0.02,0.32,933.56
9.927,-0.39,-0.62,0.53,-0.27,-0.28,1.07,-0.14,0.02,0.32,933.56
9.928,-0.39,-0.62,0.53,0.67,-0.78,1.21,-0.14,0.02,0.32,933.56
9.971,-0.39,-0.62,0.53,0.67,-0.78,1.21,-0.14,0.02,0.32,933.57
9.986,-0.39,-0.62,0.53,0.67,-0.78,1.21,-0.07,-0.09,0.49,933.57
9.991,-0.34,-0.78,0.70,0.67,-0.78,1.21,-0.07,-0.09,0.49,933.57
9.992,-0.34,-0.78,0.70,-0.06,0.87,-0.48,-0.07,-0.09,0.49,933.57
10.039,-0.34,-0.78,0.70,-0.06,0.87,-0.48,-0.07,-0.09,0.49,933.57
10.049,-0.34,-0.78,0.70,-0.06,0.87,-0.48,-0.09,-0.29,0.64,933.57
10.054,-0.38,-0.92,0.59,-0.06,0.87,-0.48,-0.09,-0.29,0.64,933.57
10.055,-0.38,-0.92,0.59,0.22,2.26,0.58,-0.09,-0.29,0.64,933.57
10.104,-0.38,-0.92,0.59,0.22,2.26,0.58,-0.09,-0.29,0.64,933.57
10.113,-0.38,-0.92,0.59,0.22,2.26,0.58,0.02,-0.07,0.29,933.57
10.118,-0.29,-0.93,0.74,0.22,2.26,0.58,0.02,-0.07,0.29,933.57
10.118,-0.29,-0.93,0.74,-0.79,2.44,-0.87,0.02,-0.07,0.29,933.57
10.171,-0.29,-0.93,0.74,-0.79,2.44,-0.87,0.02,-0.07,0.29,933.57
10.176,-0.29,-0.93,0.74,-0.79,2.44,-0.87,-0.01,-0.04,0.26,933.57
10.183,-0.35,-0.67,0.57,-0.79,2.44,-0.87,-0.01,-0.04,0.26,933.57
10.184,-0.35,-0.67,0.57,-0.29,-0.01,0.83,-0.01,-0.04,0.26,933.57
10.241,-0.35,-0.67,0.57,-0.29,-0.01,0.83,-0.01,-0.04,0.26,933.57
10.242,-0.35,-0.67,0.57,-0.29,-0.01,0.83,0.02,-0.15,0.23,933.57
10.244,-0.42,-0.58,0.65,-0.29,-0.01,0.83,0.02,-0.15,0.23,933.57
10.245,-0.42,-0.58,0.65,0.35,-0.83,0.09,0.02,-0.15,0.23,933.57
10.303,-0.42,-0.58,0.65,0.35,-0.83,0.09,-0.01,-0.10,0.08,933.57
10.304,-0.42,-0.58,0.65,0.35,-0.83,0.09,-0.01,-0.10,0.08,933.56
10.308,-0.50,-0.67,0.67,0.35,-0.83,0.09,-0.01,-0.10,0.08,933.56
10.309,-0.50,-0.67,0.67,1.17,0.02,-0.09,-0.01,-0.10,0.08,933.56
10.367,-0.50,-0.67,0.67,1.17,0.02,-0.09,0.47,0.03,-0.00,933.56
10.371,-0.50,-0.67,0.67,1.17,0.02,-0.09,0.47,0.03,-0.00,933.56
10.372,-0.50,-0.67,0.67,0.54,-0.45,0.04,0.47,0.03,-0.00,933.56
10.373,-0.44,-0.60,0.67,0.54,-0.45,0.04,0.47,0.03,-0.00,933.56
10.431,-0.44,-0.60,0.67,0.54,-0.45,0.04,0.26,0.24,0.12,933.56
10.442,-0.26,-0.72,0.78,0.54,-0.45,0.04,0.26,0.24,0.12,933.56
10.443,-0.26,-0.72,0.78,-1.33,0.89,-0.92,0.26,0.24,0.12,933.56
10.443,-0.26,-0.72,0.78,-1.33,0.89,-0.92,0.26,0.24,0.12,933.59
10.495,-0.26,-0.72,0.78,-1.33,0.89,-0.92,-0.28,0.13,0.15,933.59
10.499,-0.38,-0.64,0.78,-1.33,0.89,-0.92,-0.28,0.13,0.15,933.59
10.5,-0.38,-0.64,0.78,-0.25,0.02,-1.07,-0.28,0.13,0.15,933.59
10.517,-0.38,-0.64,0.78,-0.25,0.02,-1.07,-0.28,0.13,0.15,933.59
10.557,-0.38,-0.64,0.78,-0.25,0.02,-1.07,-0.05,0.18,-0.17,933.59
10.561,-0.17,-0.83,1.05,-0.25,0.02,-1.07,-0.05,0.18,-0.17,933.59
10.562,-0.17,-0.83,1.05,-2.34,1.79,-3.82,-0.05,0.18,-0.17,933.59
10.572,-0.17,-0.83,1.05,-2.34,1.79,-3.82,-0.05,0.18,-0.17,933.58
10.621,-0.17,-0.83,1.05,-2.34,1.79,-3.82,0.69,0.33,-0.19,933.58
10.625,-0.43,-0.39,0.37,-2.34,1.79,-3.82,0.69,0.33,-0.19,933.58
10.625,-0.43,-0.39,0.37,0.19,-2.21,3.08,0.69,0.33,-0.19,933.58
10.638,-0.43,-0.39,0.37,0.19,-2.21,3.08,0.69,0.33,-0.19,933.58
10.683,-0.43,-0.39,0.37,0.19,-2.21,3.08,-0.32,0.15,-0.59,933.58
10.694,0.14,-0.41,0.59,0.19,-2.21,3.08,-0.32,0.15,-0.59,933.58
10.695,0.14,-0.41,0.59,-5.21,-2.36,0.74,-0.32,0.15,-0.59,933.58
10.716,0.14,-0.41,0.59,-5.21,-2.36,0.74,-0.32,0.15,-0.59,933.58
10.746,0.14,-0.41,0.59,-5.21,-2.36,0.74,-0.74,0.35,0.25,933.58
10.75,-0.78,-0.77,0.26,-5.21,-2.36,0.74,-0.74,0.35,0.25,933.58
10.751,-0.78,-0.77,0.26,3.56,0.97,3.57,-0.74,0.35,0.25,933.58
10.771,-0.78,-0.77,0.26,3.56,0.97,3.57,-0.74,0.35,0.25,933.60
10.814,-0.78,-0.77,0.26,3.56,0.97,3.57,-0.17,-0.05,0.51,933.60
10.815,-0.61,-0.74,0.80,3.56,0.97,3.57,-0.17,-0.05,0.51,933.60
10.815,-0.61,-0.74,0.80,1.67,0.71,-1.81,-0.17,-0.05,0.51,933.60
10.838,-0.61,-0.74,0.80,1.67,0.71,-1.81,-0.17,-0.05,0.51,933.60
10.873,-0.61,-0.74,0.80,1.67,0.71,-1.81,-0.23,1.03,0.47,933.60
10.878,-0.62,-0.88,0.47,1.67,0.71,-1.81,-0.23,1.03,0.47,933.60
10.879,-0.62,-0.88,0.47,1.13,2.12,1.13,-0.23,1.03,0.47,933.60
10.912,-0.62,-0.88,0.47,1.13,2.12,1.13,-0.23,1.03,0.47,933.60
10.936,-0.62,-0.88,0.47,1.13,2.12,1.13,-0.47,0.92,0.08,933.60
10.941,-0.51,-0.81,0.83,1.13,2.12,1.13,-0.47,0.92,0.08,933.60
10.941,-0.51,-0.81,0.83,-0.20,1.33,-2.96,-0.47,0.92,0.08,933.60
10.972,-0.51,-0.81,0.83,-0.20,1.33,-2.96,-0.47,0.92,0.08,933.60
11.001,-0.51,-0.81,0.83,-0.20,1.33,-2.96,-0.28,0.38,-0.09,933.60
11.012,-0.34,-0.68,0.74,-0.20,1.33,-2.96,-0.28,0.38,-0.09,933.60
11.014,-0.34,-0.68,0.74,-1.99,-0.07,-2.33,-0.28,0.38,-0.09,933.60
11.037,-0.34,-0.68,0.74,-1.99,-0.07,-2.33,-0.28,0.38,-0.09,933.59
11.063,-0.34,-0.68,0.74,-1.99,-0.07,-2.33,0.18,0.57,-0.33,933.59
11.067,-0.30,-0.57,0.70,-1.99,-0.07,-2.33,0.18,0.57,-0.33,933.59
11.068,-0.30,-0.57,0.70,-2.38,-1.14,-1.97,0.18,0.57,-0.33,933.59
11.105,-0.30,-0.57,0.70,-2.38,-1.14,-1.97,0.18,0.57,-0.33,933.59
11.127,-0.30,-0.57,0.70,-2.38,-1.14,-1.97,0.50,0.23,-0.44,933.59
11.131,-0.37,-0.71,0.62,-2.38,-1.14,-1.97,0.50,0.23,-0.44,933.59
11.132,-0.37,-0.71,0.62,-1.62,0.21,-1.06,0.50,0.23,-0.44,933.59
11.171,-0.37,-0.71,0.62,-1.62,0.21,-1.06,0.50,0.23,-0.44,933.59
11.189,-0.37,-0.71,0.62,-1.62,0.21,-1.06,0.83,-0.10,-0.27,933.59
11.194,-0.44,-0.59,0.61,-1.62,0.21,-1.06,0.83,-0.10,-0.27,933.59
11.196,-0.44,-0.59,0.61,-0.79,-0.80,-0.61,0.83,-0.10,-0.27,933.59
11.238,-0.44,-0.59,0.61,-0.79,-0.80,-0.61,0.83,-0.10,-0.27,933.59
11.253,-0.44,-0.59,0.61,-0.79,-0.80,-0.61,0.40,-0.10,-0.06,933.59
11.258,-0.44,-0.59,0.61,0.03,-0.54,0.37,0.40,-0.10,-0.06,933.59
11.259,-0.51,-0.60,0.53,0.03,-0.54,0.37,0.40,-0.10,-0.06,933.59
11.305,-0.51,-0.60,0.53,0.03,-0.54,0.37,0.40,-0.10,-0.06,933.59
11.316,-0.51,-0.60,0.53,0.03,-0.54,0.37,-0.02,0.12,0.15,933.59
11.321,-0.45,-0.63,0.74,0.03,-0.54,0.37,-0.02,0.12,0.15,933.59
11.322,-0.45,-0.63,0.74,-0.66,-0.23,-1.72,-0.02,0.12,0.15,933.59
11.371,-0.45,-0.63,0.74,-0.66,-0.23,-1.72,-0.02,0.12,0.15,933.59
11.379,-0.45,-0.63,0.74,-0.66,-0.23,-1.72,-0.31,0.63,-0.39,933.59
11.385,-0.45,-0.63,0.74,-0.53,-1.60,-1.04,-0.31,0.63,-0.39,933.59
11.386,-0.47,-0.51,0.64,-0.53,-1.60,-1.04,-0.31,0.63,-0.39,933.59
11.439,-0.47,-0.51,0.64,-0.53,-1.60,-1.04,-0.31,0.63,-0.39,933.59
11.446,-0.47,-0.51,0.64,-0.53,-1.60,-1.04,-0.07,0.32,-0.31,933.59
11.447,-0.56,-0.70,0.63,-0.53,-1.60,-1.04,-0.07,0.32,-0.31,933.59
11.448,-0.56,-0.70,0.63,0.38,0.11,-1.03,-0.07,0.32,-0.31,933.59
11.505,-0.56,-0.70,0.63,0.38,0.11,-1.03,-0.07,0.32,-0.31,933.57
11.506,-0.56,-0.70,0.63,0.38,0.11,-1.03,0.37,-0.12,-0.17,933.57
11.511,-0.37,-0.71,0.52,0.38,0.11,-1.03,0.37,-0.12,-0.17,933.57
11.512,-0.37,-0.71,0.52,-1.42,0.31,0.15,0.37,-0.12,-0.17,933.57
11.569,-0.37,-0.71,0.52,-1.42,0.31,0.15,-0.01,0.50,-0.13,933.57
11.572,-0.37,-0.71,0.52,-1.42,0.31,0.15,-0.01,0.50,-0.13,933.57
11.574,-0.47,-0.64,0.35,-1.42,0.31,0.15,-0.01,0.50,-0.13,933.57
11.576,-0.47,-0.64,0.35,-0.50,-0.46,1.70,-0.01,0.50,-0.13,933.57
11.633,-0.47,-0.64,0.35,-0.50,-0.46,1.70,-0.14,0.18,-0.05,933.57
11.641,-0.63,-0.62,0.57,-0.50,-0.46,1.70,-0.14,0.18,-0.05,933.57
11.642,-0.63,-0.62,0.57,1.02,-0.74,-0.56,-0.14,0.18,-0.05,933.57
11.642,-0.63,-0.62,0.57,1.02,-0.74,-0.56,-0.14,0.18,-0.05,933.57
11.696,-0.63,-0.62,0.57,1.02,-0.74,-0.56,-0.12,0.01,0.14,933.57
11.701,-0.63,-0.62,0.57,0.96,-1.35,-1.82,-0.12,0.01,0.14,933.57
11.702,-0.63,-0.55,0.69,0.96,-1.35,-1.82,-0.12,0.01,0.14,933.57
11.704,-0.63,-0.55,0.69,0.96,-1.35,-1.82,-0.12,0.01,0.14,933.55
11.759,-0.63,-0.55,0.69,0.96,-1.35,-1.82,0.23,-0.19,-0.06,933.55
11.764,-0.63,-0.55,0.69,0.66,2.03,-2.62,0.23,-0.19,-0.06,933.55
11.765,-0.59,-0.89,0.79,0.66,2.03,-2.62,0.23,-0.19,-0.06,933.55
11.771,-0.59,-0.89,0.79,0.66,2.03,-2.62,0.23,-0.19,-0.06,933.55
11.824,-0.59,-0.89,0.79,0.66,2.03,-2.62,0.50,-0.44,-0.18,933.55
11.828,-0.59,-0.89,0.79,-1.99,0.72,0.78,0.50,-0.44,-0.18,933.55
11.829,-0.30,-0.75,0.48,-1.99,0.72,0.78,0.50,-0.44,-0.18,933.55
11.838,-0.30,-0.75,0.48,-1.99,0.72,0.78,0.50,-0.44,-0.18,933.56
11.887,-0.30,-0.75,0.48,-1.99,0.72,0.78,0.11,-0.28,-0.24,933.56
11.901,-0.19,-0.69,0.52,-1.99,0.72,0.78,0.11,-0.28,-0.24,933.56
11.902,-0.19,-0.69,0.52,-2.85,0.09,0.51,0.11,-0.28,-0.24,933.56
11.904,-0.19,-0.69,0.52,-2.85,0.09,0.51,0.11,-0.28,-0.24,933.56
11.949,-0.19,-0.69,0.52,-2.85,0.09,0.51,-0.08,-0.17,-0.14,933.56
11.953,-0.50,-0.70,0.50,-2.85,0.09,0.51,-0.08,-0.17,-0.14,933.56
11.954,-0.50,-0.70,0.50,0.28,0.12,0.72,-0.08,-0.17,-0.14,933.56
11.971,-0.50,-0.70,0.50,0.28,0.12,0.72,-0.08,-0.17,-0.14,933.57
12.015,-0.50,-0.70,0.50,0.28,0.12,0.72,0.30,-0.19,0.05,933.57
12.018,-0.56,-0.67,0.55,0.28,0.12,0.72,0.30,-0.19,0.05,933.57
12.018,-0.56,-0.67,0.55,0.96,-0.01,0.37,0.30,-0.19,0.05,933.57
12.039,-0.56,-0.67,0.55,0.96,-0.01,0.37,0.30,-0.19,0.05,933.57
12.076,-0.56,-0.67,0.55,0.96,-0.01,0.37,0.37,0.23,-0.02,933.57
12.081,-0.55,-0.59,0.52,0.96,-0.01,0.37,0.37,0.23,-0.02,933.57
12.082,-0.55,-0.59,0.52,0.77,-0.68,0.82,0.37,0.23,-0.02,933.57
12.104,-0.55,-0.59,0.52,0.77,-0.68,0.82,0.37,0.23,-0.02,933.60
12.14,-0.55,-0.59,0.52,0.77,-0.68,0.82,0.15,0.24,0.02,933.60
12.145,-0.56,-0.55,0.60,0.77,-0.68,0.82,0.15,0.24,0.02,933.60
12.146,-0.56,-0.55,0.60,0.79,-1.02,0.01,0.15,0.24,0.02,933.60
12.171,-0.56,-0.55,0.60,0.79,-1.02,0.01,0.15,0.24,0.02,933.60
12.204,-0.56,-0.55,0.60,0.79,-1.02,0.01,0.10,-0.12,-0.04,933.60
12.216,-0.50,-0.58,0.66,0.79,-1.02,0.01,0.10,-0.12,-0.04,933.60
12.217,-0.50,-0.58,0.66,0.20,-0.74,-0.48,0.10,-0.12,-0.04,933.60
12.249,-0.50,-0.58,0.66,0.20,-0.74,-0.48,0.10,-0.12,-0.04,933.60
12.265,-0.50,-0.58,0.66,0.20,-0.74,-0.48,-0.34,0.39,-0.21,933.60
12.27,-0.48,-0.68,0.73,0.20,-0.74,-0.48,-0.34,0.39,-0.21,933.60
12.271,-0.48,-0.68,0.73,-0.00,0.09,-1.44,-0.34,0.39,-0.21,933.60
12.305,-0.48,-0.68,0.73,-0.00,0.09,-1.44,-0.34,0.39,-0.21,933.61
12.329,-0.48,-0.68,0.73,-0.00,0.09,-1.44,-0.26,0.00,-0.18,933.61
12.334,-0.41,-0.72,0.68,-0.00,0.09,-1.44,-0.26,0.00,-0.18,933.61
12.334,-0.41,-0.72,0.68,-0.61,0.34,-1.10,-0.26,0.00,-0.18,933.61
12.372,-0.41,-0.72,0.68,-0.61,0.34,-1.10,-0.26,0.00,-0.18,933.61
12.392,-0.41,-0.72,0.68,-0.61,0.34,-1.10,0.18,-0.21,-0.21,933.61
12.397,-0.32,-0.71,0.56,-0.61,0.34,-1.10,0.18,-0.21,-0.21,933.61
12.398,-0.32,-0.71,0.56,-1.36,0.24,0.26,0.18,-0.21,-0.21,933.61
12.439,-0.32,-0.71,0.56,-1.36,0.24,0.26,0.18,-0.21,-0.21,933.60
12.456,-0.32,-0.71,0.56,-1.36,0.24,0.26,0.21,-0.07,-0.17,933.60
12.461,-0.32,-0.71,0.56,-2.67,-0.66,-0.09,0.21,-0.07,-0.17,933.60
12.462,-0.17,-0.61,0.61,-2.67,-0.66,-0.09,0.21,-0.07,-0.17,933.60
12.505,-0.17,-0.61,0.61,-2.67,-0.66,-0.09,0.21,-0.07,-0.17,933.60
12.519,-0.17,-0.61,0.61,-2.67,-0.66,-0.09,0.38,-0.24,0.10,933.60
12.524,-0.17,-0.61,0.61,-0.26,-0.18,0.48,0.38,-0.24,0.10,933.60
12.524,-0.41,-0.65,0.57,-0.26,-0.18,0.48,0.38,-0.24,0.10,933.60
12.572,-0.41,-0.65,0.57,-0.26,-0.18,0.48,0.38,-0.24,0.10,933.61
12.582,-0.41,-0.65,0.57,-0.26,-0.18,0.48,0.39,-0.39,0.37,933.61
12.588,-0.58,-0.57,0.75,-0.26,-0.18,0.48,0.39,-0.39,0.37,933.61
12.588,-0.58,-0.57,0.75,1.38,-0.70,-1.01,0.39,-0.39,0.37,933.61
12.639,-0.58,-0.57,0.75,1.38,-0.70,-1.01,0.39,-0.39,0.37,933.61
12.65,-0.58,-0.57,0.75,1.38,-0.70,-1.01,-0.03,-0.10,0.18,933.61
12.651,-0.58,-0.57,0.75,0.99,-1.15,-0.57,-0.03,-0.10,0.18,933.61
12.652,-0.55,-0.52,0.71,0.99,-1.15,-0.57,-0.03,-0.10,0.18,933.61
12.705,-0.55,-0.52,0.71,0.99,-1.15,-0.57,-0.03,-0.10,0.18,933.61
12.731,-0.55,-0.52,0.71,0.99,-1.15,-0.57,-0.21,0.09,-0.16,933.61
12.733,-0.55,-0.52,0.71,0.86,-0.52,-1.35,-0.21,0.09,-0.16,933.61
12.733,-0.53,-0.59,0.77,0.86,-0.52,-1.35,-0.21,0.09,-0.16,933.61
12.771,-0.53,-0.59,0.77,0.86,-0.52,-1.35,-0.21,0.09,-0.16,933.62
12.773,-0.53,-0.59,0.77,0.86,-0.52,-1.35,0.01,-0.24,-0.05,933.62
12.783,-0.40,-0.66,0.65,0.86,-0.52,-1.35,0.01,-0.24,-0.05,933.62
12.784,-0.40,-0.66,0.65,-0.30,0.08,-0.11,0.01,-0.24,-0.05,933.62
12.842,-0.40,-0.66,0.65,-0.30,0.08,-0.11,0.09,-0.28,-0.03,933.62
12.843,-0.40,-0.66,0.65,-0.30,0.08,-0.11,0.09,-0.28,-0.03,933.62
12.845,-0.32,-0.89,0.58,-0.30,0.08,-0.11,0.09,-0.28,-0.03,933.62
12.846,-0.32,-0.89,0.58,-0.93,2.41,0.76,0.09,-0.28,-0.03,933.62
12.902,-0.32,-0.89,0.58,-0.93,2.41,0.76,0.17,-0.23,0.01,933.62
12.904,-0.14,-0.67,0.57,-0.93,2.41,0.76,0.17,-0.23,0.01,933.62
12.905,-0.14,-0.67,0.57,-0.93,2.41,0.76,0.17,-0.23,0.01,933.63
12.906,-0.14,-0.67,0.57,-2.58,0.32,0.93,0.17,-0.23,0.01,933.63
12.963,-0.14,-0.67,0.57,-2.58,0.32,0.93,0.16,-0.02,0.04,933.63
12.967,-0.18,-0.61,0.69,-2.58,0.32,0.93,0.16,-0.02,0.04,933.63
12.968,-0.18,-0.61,0.69,-2.19,-0.18,-0.20,0.16,-0.02,0.04,933.63
12.971,-0.18,-0.61,0.69,-2.19,-0.18,-0.20,0.16,-0.02,0.04,933.63
13.026,-0.18,-0.61,0.69,-2.19,-0.18,-0.20,0.17,0.63,-0.39,933.63
13.031,-0.18,-0.61,0.69,0.02,-1.31,0.14,0.17,0.63,-0.39,933.63
13.034,-0.42,-0.50,0.65,0.02,-1.31,0.14,0.17,0.63,-0.39,933.63
13.038,-0.42,-0.50,0.65,0.02,-1.31,0.14,0.17,0.63,-0.39,933.66
13.09,-0.42,-0.50,0.65,0.02,-1.31,0.14,0.09,0.36,-0.24,933.66
13.105,-0.73,-0.53,0.63,0.02,-1.31,0.14,0.09,0.36,-0.24,933.66
13.107,-0.73,-0.53,0.63,2.98,-1.00,0.27,0.09,0.36,-0.24,933.66
13.108,-0.73,-0.53,0.63,2.98,-1.00,0.27,0.09,0.36,-0.24,933.66
13.153,-0.73,-0.53,0.63,2.98,-1.00,0.27,-0.09,0.05,-0.05,933.66
13.157,-0.75,-0.69,0.82,2.98,-1.00,0.27,-0.09,0.05,-0.05,933.66
13.157,-0.75,-0.69,0.82,3.17,0.52,-1.61,-0.09,0.05,-0.05,933.66
13.172,-0.75,-0.69,0.82,3.17,0.52,-1.61,-0.09,0.05,-0.05,933.66
13.216,-0.75,-0.69,0.82,3.17,0.52,-1.61,-0.17,0.03,-0.09,933.66
13.221,-0.43,-0.66,0.64,3.17,0.52,-1.61,-0.17,0.03,-0.09,933.66
13.224,-0.43,-0.66,0.64,0.09,0.05,0.10,-0.17,0.03,-0.09,933.66
13.238,-0.43,-0.66,0.64,0.09,0.05,0.10,-0.17,0.03,-0.09,933.66
13.279,-0.43,-0.66,0.64,0.09,0.05,0.10,-0.37,0.37,-0.18,933.66
13.284,-0.27,-0.67,0.65,0.09,0.05,0.10,-0.37,0.37,-0.18,933.66
13.285,-0.27,-0.67,0.65,-1.57,0.03,-0.26,-0.37,0.37,-0.18,933.66
13.305,-0.27,-0.67,0.65,-1.57,0.03,-0.26,-0.37,0.37,-0.18,933.66
13.343,-0.27,-0.67,0.65,-1.57,0.03,-0.26,-0.18,0.10,-0.06,933.66
13.348,-0.26,-0.66,0.58,-1.57,0.03,-0.26,-0.18,0.10,-0.06,933.66
13.352,-0.26,-0.66,0.58,-1.66,-0.23,0.28,-0.18,0.10,-0.06,933.66
13.372,-0.26,-0.66,0.58,-1.66,-0.23,0.28,-0.18,0.10,-0.06,933.64
13.406,-0.26,-0.66,0.58,-1.66,-0.23,0.28,0.10,0.06,0.02,933.64
13.428,-0.25,-0.59,0.55,-1.66,-0.23,0.28,0.10,0.06,0.02,933.64
13.429,-0.25,-0.59,0.55,-1.81,-0.80,0.62,0.10,0.06,0.02,933.64
13.438,-0.25,-0.59,0.55,-1.81,-0.80,0.62,0.10,0.06,0.02,933.64
13.468,-0.25,-0.59,0.55,-1.81,-0.80,0.62,0.18,0.17,0.01,933.64
13.473,-0.33,-0.61,0.52,-1.81,-0.80,0.62,0.18,0.17,0.01,933.64
13.474,-0.33,-0.61,0.52,-1.08,-0.55,0.96,0.18,0.17,0.01,933.64
13.505,-0.33,-0.61,0.52,-1.08,-0.55,0.96,0.18,0.17,0.01,933.64
13.536,-0.33,-0.61,0.52,-1.08,-0.55,0.96,0.05,0.18,0.07,933.64
13.538,-0.33,-0.61,0.52,0.96,-0.00,-0.61,0.05,0.18,0.07,933.64
13.538,-0.55,-0.66,0.68,0.96,-0.00,-0.61,0.05,0.18,0.07,933.64
13.572,-0.55,-0.66,0.68,0.96,-0.00,-0.61,0.05,0.18,0.07,933.64
13.603,-0.55,-0.66,0.68,0.96,-0.00,-0.61,-0.28,0.11,0.26,933.64
13.604,-0.55,-0.66,0.68,3.07,0.55,-2.11,-0.28,0.11,0.26,933.64
13.605,-0.78,-0.72,0.81,3.07,0.55,-2.11,-0.28,0.11,0.26,933.64
13.638,-0.78,-0.72,0.81,3.07,0.55,-2.11,-0.28,0.11,0.26,933.63
13.659,-0.78,-0.72,0.81,3.07,0.55,-2.11,-0.33,0.24,0.09,933.63
13.666,-0.69,-0.71,0.69,3.07,0.55,-2.11,-0.33,0.24,0.09,933.63
13.667,-0.69,-0.71,0.69,2.07,0.34,-1.11,-0.33,0.24,0.09,933.63
13.706,-0.69,-0.71,0.69,2.07,0.34,-1.11,-0.33,0.24,0.09,933.63
13.725,-0.69,-0.71,0.69,2.07,0.34,-1.11,0.15,-0.09,0.03,933.63
13.728,-0.24,-0.74,0.51,2.07,0.34,-1.11,0.15,-0.09,0.03,933.63
13.729,-0.24,-0.74,0.51,-2.35,0.64,0.79,0.15,-0.09,0.03,933.63
13.772,-0.24,-0.74,0.51,-2.35,0.64,0.79,0.15,-0.09,0.03,933.63
13.786,-0.24,-0.74,0.51,-2.35,0.64,0.79,-0.18,0.03,0.08,933.63
13.791,-0.22,-0.70,0.50,-2.35,0.64,0.79,-0.18,0.03,0.08,933.63
13.792,-0.22,-0.70,0.50,-2.58,0.22,0.72,-0.18,0.03,0.08,933.63
13.843,-0.22,-0.70,0.50,-2.58,0.22,0.72,-0.18,0.03,0.08,933.62
13.852,-0.22,-0.70,0.50,-2.58,0.22,0.72,-0.21,-0.04,0.18,933.62
13.854,-0.22,-0.70,0.50,-1.39,-0.27,-0.14,-0.21,-0.04,0.18,933.62
13.855,-0.34,-0.65,0.59,-1.39,-0.27,-0.14,-0.21,-0.04,0.18,933.62
13.908,-0.34,-0.65,0.59,-1.39,-0.27,-0.14,-0.21,-0.04,0.18,933.62
13.931,-0.34,-0.65,0.59,-1.39,-0.27,-0.14,0.13,0.00,0.04,933.62
13.932,-0.40,-0.59,0.55,-1.39,-0.27,-0.14,0.13,0.00,0.04,933.62
13.932,-0.40,-0.59,0.55,-0.87,-0.83,0.24,0.13,0.00,0.04,933.62
13.972,-0.40,-0.59,0.55,-0.87,-0.83,0.24,0.13,0.00,0.04,933.62
13.975,-0.40,-0.59,0.55,-0.87,-0.83,0.24,0.34,-0.09,0.13,933.62
13.98,-0.59,-0.67,0.69,-0.87,-0.83,0.24,0.34,-0.09,0.13,933.62
13.981,-0.59,-0.67,0.69,0.97,0.19,-0.92,0.34,-0.09,0.13,933.62
14.039,-0.59,-0.67,0.69,0.97,0.19,-0.92,0.34,-0.09,0.13,933.62
14.042,-0.59,-0.67,0.69,0.97,0.19,-0.92,0.44,-0.28,0.23,933.62
14.046,-0.59,-0.67,0.69,1.81,-0.18,-0.30,0.44,-0.28,0.23,933.62
14.046,-0.67,-0.61,0.65,1.81,-0.18,-0.30,0.44,-0.28,0.23,933.62
14.108,-0.67,-0.61,0.65,1.81,-0.18,-0.30,0.22,-0.06,0.04,933.62
14.109,-0.67,-0.61,0.65,1.81,-0.18,-0.30,0.22,-0.06,0.04,933.66
14.11,-0.67,-0.61,0.65,0.48,0.19,-0.21,0.22,-0.06,0.04,933.66
14.111,-0.54,-0.64,0.65,0.48,0.19,-0.21,0.22,-0.06,0.04,933.66
14.168,-0.54,-0.64,0.65,0.48,0.19,-0.21,-0.37,0.37,-0.23,933.66
14.17,-0.31,-0.53,0.54,0.48,0.19,-0.21,-0.37,0.37,-0.23,933.66
14.171,-0.31,-0.53,0.54,-1.78,-1.08,0.63,-0.37,0.37,-0.23,933.66
14.172,-0.31,-0.53,0.54,-1.78,-1.08,0.63,-0.37,0.37,-0.23,933.66
14.229,-0.31,-0.53,0.54,-1.78,-1.08,0.63,-0.53,0.50,-0.03,933.66
14.237,-0.51,-0.53,0.61,-1.78,-1.08,0.63,-0.53,0.50,-0.03,933.66
14.239,-0.51,-0.53,0.61,0.01,-1.30,-0.40,-0.53,0.50,-0.03,933.66
14.24,-0.51,-0.53,0.61,0.01,-1.30,-0.40,-0.53,0.50,-0.03,933.66
14.293,-0.51,-0.53,0.61,0.01,-1.30,-0.40,-0.34,0.28,0.03,933.66
14.308,-0.55,-0.72,0.55,0.01,-1.30,-0.40,-0.34,0.28,0.03,933.66
14.309,-0.55,-0.72,0.55,0.26,0.50,-0.07,-0.34,0.28,0.03,933.66
14.31,-0.55,-0.72,0.55,0.26,0.50,-0.07,-0.34,0.28,0.03,933.65
14.356,-0.55,-0.72,0.55,0.26,0.50,-0.07,0.06,-0.25,0.31,933.65
14.36,-0.55,-0.59,0.70,0.26,0.50,-0.07,0.06,-0.25,0.31,933.65
14.361,-0.55,-0.59,0.70,0.22,-0.73,-1.45,0.06,-0.25,0.31,933.65
14.372,-0.55,-0.59,0.70,0.22,-0.73,-1.45,0.06,-0.25,0.31,933.65
14.419,-0.55,-0.59,0.70,0.22,-0.73,-1.45,0.54,-0.02,0.19,933.65
14.427,-0.43,-0.73,0.56,0.22,-0.73,-1.45,0.54,-0.02,0.19,933.65
14.429,-0.43,-0.73,0.56,-1.03,0.90,0.15,0.54,-0.02,0.19,933.65
14.439,-0.43,-0.73,0.56,-1.03,0.90,0.15,0.54,-0.02,0.19,933.65
14.483,-0.43,-0.73,0.56,-1.03,0.90,0.15,-0.11,0.41,-0.26,933.65
14.487,-0.34,-0.73,0.29,-1.03,0.90,0.15,-0.11,0.41,-0.26,933.65
14.488,-0.34,-0.73,0.29,-1.94,0.84,2.64,-0.11,0.41,-0.26,933.65
14.505,-0.34,-0.73,0.29,-1.94,0.84,2.64,-0.11,0.41,-0.26,933.65
14.546,-0.34,-0.73,0.29,-1.94,0.84,2.64,-0.66,0.61,-0.22,933.65
14.554,-0.78,-0.84,0.61,-1.94,0.84,2.64,-0.66,0.61,-0.22,933.65
14.556,-0.78,-0.84,0.61,2.28,1.62,-0.97,-0.66,0.61,-0.22,933.65
14.572,-0.78,-0.84,0.61,2.28,1.62,-0.97,-0.66,0.61,-0.22,933.65
14.609,-0.78,-0.84,0.61,2.28,1.62,-0.97,-0.37,-0.24,0.10,933.65
14.623,-0.78,-0.84,0.61,1.17,0.20,-1.14,-0.37,-0.24,0.10,933.65
14.624,-0.66,-0.71,0.62,1.17,0.20,-1.14,-0.37,-0.24,0.10,933.65
14.639,-0.66,-0.71,0.62,1.17,0.20,-1.14,-0.37,-0.24,0.10,933.65
14.672,-0.66,-0.71,0.62,1.17,0.20,-1.14,-0.02,-0.05,-0.02,933.65
14.677,-0.66,-0.71,0.62,-1.33,0.18,-0.66,-0.02,-0.05,-0.02,933.65
14.678,-0.41,-0.71,0.57,-1.33,0.18,-0.66,-0.02,-0.05,-0.02,933.65
14.705,-0.41,-0.71,0.57,-1.33,0.18,-0.66,-0.02,-0.05,-0.02,933.62
14.738,-0.41,-0.71,0.57,-1.33,0.18,-0.66,0.05,-0.02,-0.21,933.62
14.74,-0.41,-0.71,0.57,-2.21,0.27,0.14,0.05,-0.02,-0.21,933.62
14.741,-0.31,-0.72,0.49,-2.21,0.27,0.14,0.05,-0.02,-0.21,933.62
14.772,-0.31,-0.72,0.49,-2.21,0.27,0.14,0.05,-0.02,-0.21,933.62
14.806,-0.31,-0.72,0.49,-2.21,0.27,0.14,0.10,-0.01,-0.16,933.62
14.807,-0.31,-0.72,0.49,-1.24,1.08,0.70,0.10,-0.01,-0.16,933.62
14.808,-0.40,-0.81,0.44,-1.24,1.08,0.70,0.10,-0.01,-0.16,933.62
14.84,-0.40,-0.81,0.44,-1.24,1.08,0.70,0.10,-0.01,-0.16,933.62
14.863,-0.40,-0.81,0.44,-1.24,1.08,0.70,0.28,0.03,-0.19,933.62
14.867,-0.40,-0.81,0.44,0.45,-0.62,-1.20,0.28,0.03,-0.19,933.62
14.868,-0.56,-0.63,0.65,0.45,-0.62,-1.20,0.28,0.03,-0.19,933.62
14.906,-0.56,-0.63,0.65,0.45,-0.62,-1.20,0.28,0.03,-0.19,933.61
14.925,-0.56,-0.63,0.65,0.45,-0.62,-1.20,0.72,-0.12,-0.34,933.61
14.93,-0.55,-0.67,0.54,0.45,-0.62,-1.20,0.72,-0.12,-0.34,933.61
14.931,-0.55,-0.67,0.54,0.53,-0.13,0.20,0.72,-0.12,-0.34,933.61
14.972,-0.55,-0.67,0.54,0.53,-0.13,0.20,0.72,-0.12,-0.34,933.61
14.989,-0.55,-0.67,0.54,0.53,-0.13,0.20,0.16,-0.01,-0.21,933.61
14.993,-0.34,-0.77,0.67,0.53,-0.13,0.20,0.16,-0.01,-0.21,933.61
14.994,-0.34,-0.77,0.67,-1.42,0.84,-1.00,0.16,-0.01,-0.21,933.61
15.039,-0.34,-0.77,0.67,-1.42,0.84,-1.00,0.16,-0.01,-0.21,933.64
15.053,-0.34,-0.77,0.67,-1.42,0.84,-1.00,-0.42,0.49,-0.35,933.64
15.057,-0.57,-0.60,0.63,-1.42,0.84,-1.00,-0.42,0.49,-0.35,933.64
15.057,-0.57,-0.60,0.63,0.77,-1.02,-0.97,-0.42,0.49,-0.35,933.64
15.109,-0.57,-0.60,0.63,0.77,-1.02,-0.97,-0.42,0.49,-0.35,933.64
15.13,-0.57,-0.60,0.63,0.77,-1.02,-0.97,0.04,0.10,-0.31,933.64
15.131,-0.50,-0.71,0.59,0.77,-1.02,-0.97,0.04,0.10,-0.31,933.64
15.131,-0.50,-0.71,0.59,0.19,-0.02,-0.53,0.04,0.10,-0.31,933.64
15.172,-0.50,-0.71,0.59,0.19,-0.02,-0.53,0.04,0.10,-0.31,933.65
15.179,-0.50,-0.71,0.59,0.19,-0.02,-0.53,0.19,-0.39,0.28,933.65
15.184,-0.40,-0.58,0.57,0.19,-0.02,-0.53,0.19,-0.39,0.28,933.65
15.185,-0.40,-0.58,0.57,-0.73,-1.16,-0.21,0.19,-0.39,0.28,933.65
15.239,-0.40,-0.58,0.57,-0.73,-1.16,-0.21,0.19,-0.39,0.28,933.65
15.242,-0.40,-0.58,0.57,-0.73,-1.16,-0.21,0.01,-0.23,0.43,933.65
15.248,-0.40,-0.58,0.57,-0.72,-0.44,1.41,0.01,-0.23,0.43,933.65
15.249,-0.41,-0.64,0.42,-0.72,-0.44,1.41,0.01,-0.23,0.43,933.65
15.311,-0.41,-0.64,0.42,-0.72,-0.44,1.41,0.01,-0.23,0.43,933.65
15.312,-0.41,-0.64,0.42,-0.72,-0.44,1.41,0.13,-0.34,0.59,933.65
15.313,-0.60,-0.68,0.61,-0.72,-0.44,1.41,0.13,-0.34,0.59,933.65
15.314,-0.60,-0.68,0.61,0.93,0.21,-0.34,0.13,-0.34,0.59,933.65
15.369,-0.60,-0.68,0.61,0.93,0.21,-0.34,-0.05,-0.05,0.46,933.65
15.372,-0.60,-0.68,0.61,0.93,0.21,-0.34,-0.05,-0.05,0.46,933.68
15.373,-0.64,-0.37,0.58,0.93,0.21,-0.34,-0.05,-0.05,0.46,933.68
15.374,-0.64,-0.37,0.58,1.20,-2.71,-0.06,-0.05,-0.05,0.46,933.68
15.433,-0.64,-0.37,0.58,1.20,-2.71,-0.06,0.09,-0.06,0.03,933.68
15.437,-0.33,-0.75,0.68,1.20,-2.71,-0.06,0.09,-0.06,0.03,933.68
15.44,-0.33,-0.75,0.68,-1.82,1.08,-0.94,0.09,-0.06,0.03,933.68
15.441,-0.33,-0.75,0.68,-1.82,1.08,-0.94,0.09,-0.06,0.03,933.68
15.496,-0.33,-0.75,0.68,-1.82,1.08,-0.94,0.18,0.02,-0.11,933.68
15.512,-0.23,-0.63,0.66,-1.82,1.08,-0.94,0.18,0.02,-0.11,933.68
15.513,-0.23,-0.63,0.66,-2.73,-0.15,-0.73,0.18,0.02,-0.11,933.68
15.514,-0.23,-0.63,0.66,-2.73,-0.15,-0.73,0.18,0.02,-0.11,933.72
15.559,-0.23,-0.63,0.66,-2.73,-0.15,-0.73,0.13,-0.24,-0.18,933.72
15.563,-0.55,-0.59,0.71,-2.73,-0.15,-0.73,0.13,-0.24,-0.18,933.72
15.566,-0.55,-0.59,0.71,0.53,-0.53,-1.10,0.13,-0.24,-0.18,933.72
15.572,-0.55,-0.59,0.71,0.53,-0.53,-1.10,0.13,-0.24,-0.18,933.72
15.623,-0.55,-0.59,0.71,0.53,-0.53,-1.10,-0.24,-0.01,0.13,933.72
15.627,-0.54,-0.64,0.45,0.53,-0.53,-1.10,-0.24,-0.01,0.13,933.72
15.63,-0.54,-0.64,0.45,0.37,-0.11,1.37,-0.24,-0.01,0.13,933.72
15.639,-0.54,-0.64,0.45,0.37,-0.11,1.37,-0.24,-0.01,0.13,933.70
15.685,-0.54,-0.64,0.45,0.37,-0.11,1.37,-0.30,0.11,0.19,933.70
15.69,-0.53,-0.86,0.62,0.37,-0.11,1.37,-0.30,0.11,0.19,933.70
15.691,-0.53,-0.86,0.62,0.15,2.04,-0.48,-0.30,0.11,0.19,933.70
15.707,-0.53,-0.86,0.62,0.15,2.04,-0.48,-0.30,0.11,0.19,933.70
15.75,-0.53,-0.86,0.62,0.15,2.04,-0.48,0.19,0.11,-0.08,933.70
15.753,-0.49,-0.64,0.51,0.15,2.04,-0.48,0.19,0.11,-0.08,933.70
15.758,-0.49,-0.64,0.51,-0.24,-0.07,0.66,0.19,0.11,-0.08,933.70
15.772,-0.49,-0.64,0.51,-0.24,-0.07,0.66,0.19,0.11,-0.08,933.70
15.812,-0.49,-0.64,0.51,-0.24,-0.07,0.66,0.35,-0.26,-0.16,933.70
15.826,-0.49,-0.64,0.51,0.25,-0.69,0.59,0.35,-0.26,-0.16,933.70
15.827,-0.52,-0.57,0.54,0.25,-0.69,0.59,0.35,-0.26,-0.16,933.70
15.839,-0.52,-0.57,0.54,0.25,-0.69,0.59,0.35,-0.26,-0.16,933.71
15.875,-0.52,-0.57,0.54,0.25,-0.69,0.59,0.35,-0.30,-0.24,933.71
15.88,-0.40,-0.60,0.93,0.25,-0.69,0.59,0.35,-0.30,-0.24,933.71
15.881,-0.40,-0.60,0.93,-0.75,-0.33,-2.95,0.35,-0.30,-0.24,933.71
15.908,-0.40,-0.60,0.93,-0.75,-0.33,-2.95,0.35,-0.30,-0.24,933.71
15.939,-0.40,-0.60,0.93,-0.75,-0.33,-2.95,-0.21,-0.06,-0.26,933.71
15.944,-0.40,-0.60,0.93,-1.67,-0.68,-1.47,-0.21,-0.06,-0.26,933.71
15.945,-0.29,-0.58,0.77,-1.67,-0.68,-1.47,-0.21,-0.06,-0.26,933.71
15.972,-0.29,-0.58,0.77,-1.67,-0.68,-1.47,-0.21,-0.06,-0.26,933.71
16.004,-0.29,-0.58,0.77,-1.67,-0.68,-1.47,-0.38,0.15,-0.26,933.71
16.007,-0.29,-0.58,0.77,0.20,0.23,-0.84,-0.38,0.15,-0.26,933.71
16.007,-0.48,-0.69,0.69,0.20,0.23,-0.84,-0.38,0.15,-0.26,933.71
16.043,-0.48,-0.69,0.69,0.20,0.23,-0.84,-0.38,0.15,-0.26,933.71
16.065,-0.48,-0.69,0.69,0.20,0.23,-0.84,-0.04,-0.29,-0.15,933.71
16.07,-0.38,-0.77,0.41,0.20,0.23,-0.84,-0.04,-0.29,-0.15,933.71
16.071,-0.38,-0.77,0.41,-0.60,0.89,1.91,-0.04,-0.29,-0.15,933.71
16.109,-0.38,-0.77,0.41,-0.60,0.89,1.91,-0.04,-0.29,-0.15,933.71
16.13,-0.38,-0.77,0.41,-0.60,0.89,1.91,0.01,-0.34,-0.03,933.71
16.134,-0.40,-0.74,0.54,-0.60,0.89,1.91,0.01,-0.34,-0.03,933.71
16.135,-0.40,-0.74,0.54,-0.21,0.58,0.73,0.01,-0.34,-0.03,933.71
16.173,-0.40,-0.74,0.54,-0.21,0.58,0.73,0.01,-0.34,-0.03,933.71
16.192,-0.40,-0.74,0.54,-0.21,0.58,0.73,0.15,-0.36,0.14,933.71
16.196,-0.50,-0.72,0.50,-0.21,0.58,0.73,0.15,-0.36,0.14,933.71
16.197,-0.50,-0.72,0.50,0.80,0.46,1.31,0.15,-0.36,0.14,933.71
16.246,-0.50,-0.72,0.50,0.80,0.46,1.31,0.15,-0.36,0.14,933.71
16.256,-0.50,-0.72,0.50,0.80,0.46,1.31,0.12,-0.22,0.31,933.71
16.26,-0.48,-0.55,0.62,0.80,0.46,1.31,0.12,-0.22,0.31,933.71
16.26,-0.48,-0.55,0.62,0.53,-1.00,0.25,0.12,-0.22,0.31,933.71
16.313,-0.48,-0.55,0.62,0.53,-1.00,0.25,0.12,-0.22,0.31,933.71
16.334,-0.48,-0.55,0.62,0.53,-1.00,0.25,-0.02,-0.01,0.11,933.71
16.335,-0.48,-0.55,0.62,0.22,-1.39,-0.37,-0.02,-0.01,0.11,933.71
16.336,-0.45,-0.51,0.68,0.22,-1.39,-0.37,-0.02,-0.01,0.11,933.71
16.374,-0.45,-0.51,0.68,0.22,-1.39,-0.37,-0.02,-0.01,0.11,933.71
16.382,-0.45,-0.51,0.68,0.22,-1.39,-0.37,0.19,-0.21,0.06,933.71
16.387,-0.48,-0.53,0.84,0.22,-1.39,-0.37,0.19,-0.21,0.06,933.71
16.388,-0.48,-0.53,0.84,0.54,-1.14,-1.79,0.19,-0.21,0.06,933.71
16.44,-0.48,-0.53,0.84,0.54,-1.14,-1.79,0.19,-0.21,0.06,933.74
16.445,-0.48,-0.53,0.84,0.54,-1.14,-1.79,-0.36,0.33,0.20,933.74
16.451,-0.48,-0.53,0.84,0.70,-0.78,3.44,-0.36,0.33,0.20,933.74
16.452,-0.51,-0.57,0.28,0.70,-0.78,3.44,-0.36,0.33,0.20,933.74
16.513,-0.51,-0.57,0.28,0.70,-0.78,3.44,-0.36,0.33,0.20,933.74
16.515,-0.51,-0.57,0.28,0.70,-0.78,3.44,-0.33,0.26,0.02,933.74
16.515,-0.47,-0.92,0.67,0.70,-0.78,3.44,-0.33,0.26,0.02,933.74
16.537,-0.47,-0.92,0.67,0.13,2.50,-0.56,-0.33,0.26,0.02,933.74
16.572,-0.47,-0.92,0.67,0.13,2.50,-0.56,-0.05,-0.06,0.21,933.74
16.573,-0.47,-0.92,0.67,0.13,2.50,-0.56,-0.05,-0.06,0.21,933.72
16.576,-0.45,-0.55,0.64,0.13,2.50,-0.56,-0.05,-0.06,0.21,933.72
16.576,-0.45,-0.55,0.64,-0.08,-1.10,-0.26,-0.05,-0.06,0.21,933.72
16.635,-0.45,-0.55,0.64,-0.08,-1.10,-0.26,0.09,0.27,-0.03,933.72
16.643,-0.45,-0.55,0.64,-0.08,-1.10,-0.26,0.09,0.27,-0.03,933.72
16.644,-0.44,-0.60,0.63,-0.08,-1.10,-0.26,0.09,0.27,-0.03,933.72
16.645,-0.44,-0.60,0.63,-0.29,-0.62,-0.28,0.09,0.27,-0.03,933.72
16.699,-0.44,-0.60,0.63,-0.29,-0.62,-0.28,0.47,0.09,-0.16,933.72
16.715,-0.37,-0.62,0.69,-0.29,-0.62,-0.28,0.47,0.09,-0.16,933.72
16.716,-0.37,-0.62,0.69,-0.90,-0.27,-0.70,0.47,0.09,-0.16,933.72
16.716,-0.37,-0.62,0.69,-0.90,-0.27,-0.70,0.47,0.09,-0.16,933.72
16.762,-0.37,-0.62,0.69,-0.90,-0.27,-0.70,0.46,0.20,-0.25,933.72
16.766,-0.33,-0.85,0.67,-0.90,-0.27,-0.70,0.46,0.20,-0.25,933.72
16.769,-0.33,-0.85,0.67,-1.31,2.13,-0.39,0.46,0.20,-0.25,933.72
16.776,-0.33,-0.85,0.67,-1.31,2.13,-0.39,0.46,0.20,-0.25,933.72
16.825,-0.33,-0.85,0.67,-1.31,2.13,-0.39,-0.27,0.22,-0.24,933.72
16.832,-0.28,-0.77,0.50,-1.31,2.13,-0.39,-0.27,0.22,-0.24,933.72
16.836,-0.28,-0.77,0.50,-1.74,1.10,1.14,-0.27,0.22,-0.24,933.72
16.844,-0.28,-0.77,0.50,-1.74,1.10,1.14,-0.27,0.22,-0.24,933.72
16.889,-0.28,-0.77,0.50,-1.74,1.10,1.14,-0.75,0.27,-0.10,933.72
16.893,-0.50,-0.74,0.71,-1.74,1.10,1.14,-0.75,0.27,-0.10,933.72
16.894,-0.50,-0.74,0.71,0.31,0.50,-1.29,-0.75,0.27,-0.10,933.72
16.906,-0.50,-0.74,0.71,0.31,0.50,-1.29,-0.75,0.27,-0.10,933.71
16.951,-0.50,-0.74,0.71,0.31,0.50,-1.29,-0.34,0.04,-0.09,933.71
16.958,-0.43,-0.78,0.68,0.31,0.50,-1.29,-0.34,0.04,-0.09,933.71
16.959,-0.43,-0.78,0.68,-0.34,0.78,-1.16,-0.34,0.04,-0.09,933.71
16.972,-0.43,-0.78,0.68,-0.34,0.78,-1.16,-0.34,0.04,-0.09,933.71
17.015,-0.43,-0.78,0.68,-0.34,0.78,-1.16,0.07,0.18,-0.20,933.71
17.027,-0.43,-0.78,0.68,-0.52,0.17,0.47,0.07,0.18,-0.20,933.71
17.028,-0.41,-0.72,0.51,-0.52,0.17,0.47,0.07,0.18,-0.20,933.71
17.039,-0.41,-0.72,0.51,-0.52,0.17,0.47,0.07,0.18,-0.20,933.66
17.078,-0.41,-0.72,0.51,-0.52,0.17,0.47,0.13,-0.08,-0.20,933.66
17.084,-0.30,-0.77,0.60,-0.52,0.17,0.47,0.13,-0.08,-0.20,933.66
17.085,-0.30,-0.77,0.60,-1.45,0.64,-0.35,0.13,-0.08,-0.20,933.66
17.112,-0.30,-0.77,0.60,-1.45,0.64,-0.35,0.13,-0.08,-0.20,933.66
17.145,-0.30,-0.77,0.60,-1.45,0.64,-0.35,0.19,-0.20,-0.08,933.66
17.147,-0.30,-0.77,0.60,-0.61,-1.60,-0.66,0.19,-0.20,-0.08,933.66
17.147,-0.38,-0.54,0.65,-0.61,-1.60,-0.66,0.19,-0.20,-0.08,933.66
17.172,-0.38,-0.54,0.65,-0.61,-1.60,-0.66,0.19,-0.20,-0.08,933.64
17.212,-0.38,-0.54,0.65,-0.61,-1.60,-0.66,0.47,-0.37,0.19,933.64
17.213,-0.38,-0.54,0.65,1.67,-0.31,0.14,0.47,-0.37,0.19,933.64
17.214,-0.60,-0.64,0.60,1.67,-0.31,0.14,0.47,-0.37,0.19,933.64
17.239,-0.60,-0.64,0.60,1.67,-0.31,0.14,0.47,-0.37,0.19,933.64
17.269,-0.60,-0.64,0.60,1.67,-0.31,0.14,0.48,-0.59,0.57,933.64
17.273,-0.22,-0.49,0.77,1.67,-0.31,0.14,0.48,-0.59,0.57,933.64
17.274,-0.22,-0.49,0.77,-2.03,-1.52,-1.18,0.48,-0.59,0.57,933.64
17.312,-0.22,-0.49,0.77,-2.03,-1.52,-1.18,0.48,-0.59,0.57,933.64
17.332,-0.22,-0.49,0.77,-2.03,-1.52,-1.18,-0.14,0.15,0.29,933.64
17.337,-0.54,-0.73,0.63,-2.03,-1.52,-1.18,-0.14,0.15,0.29,933.64
17.338,-0.54,-0.73,0.63,0.91,0.86,0.12,-0.14,0.15,0.29,933.64
17.372,-0.54,-0.73,0.63,0.91,0.86,0.12,-0.14,0.15,0.29,933.68
17.394,-0.54,-0.73,0.63,0.91,0.86,0.12,0.02,-0.42,0.11,933.68
17.399,-0.41,-0.66,0.67,0.91,0.86,0.12,0.02,-0.42,0.11,933.68
17.4,-0.41,-0.66,0.67,-0.30,0.28,-0.20,0.02,-0.42,0.11,933.68
17.44,-0.41,-0.66,0.67,-0.30,0.28,-0.20,0.02,-0.42,0.11,933.68
17.463,-0.41,-0.66,0.67,-0.30,0.28,-0.20,0.23,-0.18,0.03,933.68
17.464,-0.41,-0.66,0.67,-0.73,1.48,0.27,0.23,-0.18,0.03,933.68
17.465,-0.36,-0.78,0.64,-0.73,1.48,0.27,0.23,-0.18,0.03,933.68
17.514,-0.36,-0.78,0.64,-0.73,1.48,0.27,0.23,-0.18,0.03,933.71
17.537,-0.36,-0.78,0.64,-0.73,1.48,0.27,0.06,-0.13,0.08,933.71
17.538,-0.41,-0.65,0.60,-0.73,1.48,0.27,0.06,-0.13,0.08,933.71
17.538,-0.41,-0.65,0.60,-0.21,0.31,0.68,0.06,-0.13,0.08,933.71
17.573,-0.41,-0.65,0.60,-0.21,0.31,0.68,0.06,-0.13,0.08,933.71
17.585,-0.41,-0.65,0.60,-0.21,0.31,0.68,0.32,-0.20,-0.01,933.71
17.59,-0.51,-0.55,0.69,-0.21,0.31,0.68,0.32,-0.20,-0.01,933.71
17.591,-0.51,-0.55,0.69,0.89,-0.52,0.02,0.32,-0.20,-0.01,933.71
17.64,-0.51,-0.55,0.69,0.89,-0.52,0.02,0.32,-0.20,-0.01,933.75
17.648,-0.51,-0.55,0.69,0.89,-0.52,0.02,0.37,-0.39,-0.29,933.75
17.655,-0.26,-0.51,0.72,0.89,-0.52,0.02,0.37,-0.39,-0.29,933.75
17.656,-0.26,-0.51,0.72,-1.25,-0.89,-0.06,0.37,-0.39,-0.29,933.75
17.714,-0.26,-0.51,0.72,-1.25,-0.89,-0.06,0.37,-0.39,-0.29,933.75
17.715,-0.26,-0.51,0.72,-1.25,-0.89,-0.06,-0.38,0.34,-0.36,933.75
17.719,-0.31,-0.71,0.76,-1.25,-0.89,-0.06,-0.38,0.34,-0.36,933.75
17.72,-0.31,-0.71,0.76,-0.79,0.80,-0.68,-0.38,0.34,-0.36,933.75
17.772,-0.31,-0.71,0.76,-0.79,0.80,-0.68,-0.38,0.34,-0.36,933.72
17.774,-0.31,-0.71,0.76,-0.79,0.80,-0.68,-0.62,0.16,0.14,933.72
17.779,-0.55,-0.47,0.77,-0.79,0.80,-0.68,-0.62,0.16,0.14,933.72
17.781,-0.55,-0.47,0.77,1.44,-1.74,-1.07,-0.62,0.16,0.14,933.72
17.839,-0.55,-0.47,0.77,1.44,-1.74,-1.07,-0.15,-0.01,-0.01,933.72
17.84,-0.55,-0.47,0.77,1.44,-1.74,-1.07,-0.15,-0.01,-0.01,933.72
17.843,-0.25,-0.66,0.73,1.44,-1.74,-1.07,-0.15,-0.01,-0.01,933.72
17.844,-0.25,-0.66,0.73,-1.48,0.06,-0.69,-0.15,-0.01,-0.01,933.72
17.902,-0.25,-0.66,0.73,-1.48,0.06,-0.69,0.19,-0.10,-0.12,933.72
17.917,-0.25,-0.66,0.73,-1.48,0.06,-0.69,0.19,-0.10,-0.12,933.72
17.918,-0.14,-0.59,0.63,-1.48,0.06,-0.69,0.19,-0.10,-0.12,933.72
17.918,-0.14,-0.59,0.63,-2.44,-0.60,0.33,0.19,-0.10,-0.12,933.72
17.965,-0.14,-0.59,0.63,-2.44,-0.60,0.33,0.28,-0.12,-0.06,933.72
17.97,-0.24,-0.59,0.73,-2.44,-0.60,0.33,0.28,-0.12,-0.06,933.72
17.971,-0.24,-0.59,0.73,-1.40,-0.49,-0.45,0.28,-0.12,-0.06,933.72
17.972,-0.24,-0.59,0.73,-1.40,-0.49,-0.45,0.28,-0.12,-0.06,933.72
18.029,-0.24,-0.59,0.73,-1.40,-0.49,-0.45,0.39,0.04,-0.10,933.72
18.033,-0.36,-0.70,0.63,-1.40,-0.49,-0.45,0.39,0.04,-0.10,933.72
18.035,-0.36,-0.70,0.63,-0.27,0.77,0.65,0.39,0.04,-0.10,933.72
18.039,-0.36,-0.70,0.63,-0.27,0.77,0.65,0.39,0.04,-0.10,933.72
18.092,-0.36,-0.70,0.63,-0.27,0.77,0.65,0.15,0.03,-0.05,933.72
18.096,-0.44,-0.76,0.71,-0.27,0.77,0.65,0.15,0.03,-0.05,933.72
18.097,-0.44,-0.76,0.71,0.56,1.37,-0.07,0.15,0.03,-0.05,933.72
18.106,-0.44,-0.76,0.71,0.56,1.37,-0.07,0.15,0.03,-0.05,933.75
18.156,-0.44,-0.76,0.71,0.56,1.37,-0.07,-0.11,0.09,0.00,933.75
18.16,-0.60,-0.74,0.72,0.56,1.37,-0.07,-0.11,0.09,0.00,933.75
18.162,-0.60,-0.74,0.72,2.04,1.18,-0.27,-0.11,0.09,0.00,933.75
18.174,-0.60,-0.74,0.72,2.04,1.18,-0.27,-0.11,0.09,0.00,933.75
18.219,-0.60,-0.74,0.72,2.04,1.18,-0.27,0.22,-0.19,0.20,933.75
18.223,-0.41,-0.56,0.85,2.04,1.18,-0.27,0.22,-0.19,0.20,933.75
18.224,-0.41,-0.56,0.85,0.24,-0.43,-1.35,0.22,-0.19,0.20,933.75
18.239,-0.41,-0.56,0.85,0.24,-0.43,-1.35,0.22,-0.19,0.20,933.75
18.281,-0.41,-0.56,0.85,0.24,-0.43,-1.35,0.22,-0.11,0.46,933.75
18.287,-0.28,-0.65,0.77,0.24,-0.43,-1.35,0.22,-0.11,0.46,933.75
18.288,-0.28,-0.65,0.77,-1.18,0.60,-0.55,0.22,-0.11,0.46,933.75
18.316,-0.28,-0.65,0.77,-1.18,0.60,-0.55,0.22,-0.11,0.46,933.75
18.348,-0.28,-0.65,0.77,-1.18,0.60,-0.55,0.31,-0.13,0.25,933.75
18.349,-0.15,-0.57,0.71,-1.18,0.60,-0.55,0.31,-0.13,0.25,933.75
18.35,-0.15,-0.57,0.71,-2.44,0.03,0.23,0.31,-0.13,0.25,933.75
18.373,-0.15,-0.57,0.71,-2.44,0.03,0.23,0.31,-0.13,0.25,933.75
18.417,-0.15,-0.57,0.71,-2.44,0.03,0.23,0.44,-0.26,0.08,933.75
18.418,-0.26,-0.44,0.71,-2.44,0.03,0.23,0.44,-0.26,0.08,933.75
18.418,-0.26,-0.44,0.71,-1.29,-1.04,0.43,0.44,-0.26,0.08,933.75
18.44,-0.26,-0.44,0.71,-1.29,-1.04,0.43,0.44,-0.26,0.08,933.79
18.476,-0.26,-0.44,0.71,-1.29,-1.04,0.43,0.44,-0.06,-0.08,933.79
18.48,-0.26,-0.44,0.71,1.76,-0.50,-0.53,0.44,-0.06,-0.08,933.79
18.48,-0.57,-0.47,0.82,1.76,-0.50,-0.53,0.44,-0.06,-0.08,933.79
18.516,-0.57,-0.47,0.82,1.76,-0.50,-0.53,0.44,-0.06,-0.08,933.79
18.538,-0.57,-0.47,0.82,1.76,-0.50,-0.53,0.39,-0.03,-0.08,933.79
18.541,-0.56,-0.51,0.73,1.76,-0.50,-0.53,0.39,-0.03,-0.08,933.79
18.542,-0.56,-0.51,0.73,1.72,0.07,0.53,0.39,-0.03,-0.08,933.79
18.573,-0.56,-0.51,0.73,1.72,0.07,0.53,0.39,-0.03,-0.08,933.83
18.599,-0.56,-0.51,0.73,1.72,0.07,0.53,0.16,-0.10,0.00,933.83
18.604,-0.56,-0.51,0.73,1.04,-0.90,-0.36,0.16,-0.10,0.00,933.83
18.604,-0.49,-0.41,0.83,1.04,-0.90,-0.36,0.16,-0.10,0.00,933.83
18.641,-0.49,-0.41,0.83,1.04,-0.90,-0.36,0.16,-0.10,0.00,933.83
18.668,-0.49,-0.41,0.83,1.04,-0.90,-0.36,-0.13,0.32,0.20,933.83
18.669,-0.49,-0.41,0.83,0.74,-0.98,-0.34,-0.13,0.32,0.20,933.83
18.669,-0.48,-0.40,0.81,0.74,-0.98,-0.34,-0.13,0.32,0.20,933.83
18.717,-0.48,-0.40,0.81,0.74,-0.98,-0.34,-0.13,0.32,0.20,933.82
18.738,-0.48,-0.40,0.81,0.74,-0.98,-0.34,-0.29,0.16,0.20,933.82
18.739,-0.37,-0.54,0.86,0.74,-0.98,-0.34,-0.29,0.16,0.20,933.82
18.74,-0.37,-0.54,0.86,-0.41,0.34,-0.89,-0.29,0.16,0.20,933.82
18.772,-0.37,-0.54,0.86,-0.41,0.34,-0.89,-0.29,0.16,0.20,933.82
18.787,-0.37,-0.54,0.86,-0.41,0.34,-0.89,0.16,0.18,-0.01,933.82
18.792,-0.22,-0.55,0.82,-0.41,0.34,-0.89,0.16,0.18,-0.01,933.82
18.794,-0.22,-0.55,0.82,-2.01,0.42,-0.50,0.16,0.18,-0.01,933.82
18.84,-0.22,-0.55,0.82,-2.01,0.42,-0.50,0.16,0.18,-0.01,933.81
18.851,-0.22,-0.55,0.82,-2.01,0.42,-0.50,0.32,0.03,0.04,933.81
18.858,-0.35,-0.32,0.73,-2.01,0.42,-0.50,0.32,0.03,0.04,933.81
18.858,-0.35,-0.32,0.73,-0.77,-1.61,0.48,0.32,0.03,0.04,933.81
18.916,-0.35,-0.32,0.73,-0.77,-1.61,0.48,0.32,0.03,0.04,933.81
18.917,-0.35,-0.32,0.73,-0.77,-1.61,0.48,0.25,-0.15,0.12,933.81
18.921,-0.35,-0.51,0.81,-0.77,-1.61,0.48,0.25,-0.15,0.12,933.81
18.923,-0.35,-0.51,0.81,-0.75,0.39,-0.26,0.25,-0.15,0.12,933.81
18.973,-0.35,-0.51,0.81,-0.75,0.39,-0.26,0.25,-0.15,0.12,933.81
18.977,-0.35,-0.51,0.81,-0.75,0.39,-0.26,0.02,-0.11,0.11,933.81
18.983,-0.53,-0.52,0.78,-0.75,0.39,-0.26,0.02,-0.11,0.11,933.81
18.984,-0.53,-0.52,0.78,1.11,0.55,0.12,0.02,-0.11,0.11,933.81
19.044,-0.53,-0.52,0.78,1.11,0.55,0.12,0.02,-0.11,0.11,933.80
19.045,-0.53,-0.52,0.78,1.11,0.55,0.12,0.00,-0.21,0.02,933.80
19.05,-0.48,-0.51,0.93,1.11,0.55,0.12,0.00,-0.21,0.02,933.80
19.051,-0.48,-0.51,0.93,0.68,0.44,-1.35,0.00,-0.21,0.02,933.80
19.106,-0.48,-0.51,0.93,0.68,0.44,-1.35,0.14,-0.05,-0.08,933.80
19.107,-0.48,-0.51,0.93,0.68,0.44,-1.35,0.14,-0.05,-0.08,933.80
19.12,-0.39,-0.44,0.80,0.68,0.44,-1.35,0.14,-0.05,-0.08,933.80
19.121,-0.39,-0.44,0.80,-0.11,-0.18,0.01,0.14,-0.05,-0.08,933.80
19.168,-0.39,-0.44,0.80,-0.11,-0.18,0.01,-0.12,0.07,-0.14,933.80
19.172,-0.39,-0.44,0.80,-0.11,-0.18,0.01,-0.12,0.07,-0.14,933.80
19.173,-0.27,-0.64,0.95,-0.11,-0.18,0.01,-0.12,0.07,-0.14,933.80
19.175,-0.27,-0.64,0.95,-1.30,1.69,-1.53,-0.12,0.07,-0.14,933.80
19.232,-0.27,-0.64,0.95,-1.30,1.69,-1.53,-0.02,0.12,-0.27,933.80
19.236,-0.35,-0.51,0.79,-1.30,1.69,-1.53,-0.02,0.12,-0.27,933.80
19.24,-0.35,-0.51,0.79,-0.52,0.33,0.07,-0.02,0.12,-0.27,933.80
19.242,-0.35,-0.51,0.79,-0.52,0.33,0.07,-0.02,0.12,-0.27,933.80
19.294,-0.35,-0.51,0.79,-0.52,0.33,0.07,-0.10,-0.11,-0.18,933.80
19.299,-0.39,-0.54,0.88,-0.52,0.33,0.07,-0.10,-0.11,-0.18,933.80
19.301,-0.39,-0.54,0.88,0.02,0.51,-0.87,-0.10,-0.11,-0.18,933.80
19.306,-0.39,-0.54,0.88,0.02,0.51,-0.87,-0.10,-0.11,-0.18,933.80
19.358,-0.39,-0.54,0.88,0.02,0.51,-0.87,-0.12,0.04,-0.23,933.80
19.366,-0.44,-0.46,0.72,0.02,0.51,-0.87,-0.12,0.04,-0.23,933.80
19.367,-0.44,-0.46,0.72,0.52,-0.33,0.71,-0.12,0.04,-0.23,933.80
19.373,-0.44,-0.46,0.72,0.52,-0.33,0.71,-0.12,0.04,-0.23,933.80
19.422,-0.44,-0.46,0.72,0.52,-0.33,0.71,0.09,-0.05,-0.74,933.80
19.438,-0.24,-0.53,0.76,0.52,-0.33,0.71,0.09,-0.05,-0.74,933.80
19.439,-0.24,-0.53,0.76,-1.14,0.18,0.28,0.09,-0.05,-0.74,933.80
19.44,-0.24,-0.53,0.76,-1.14,0.18,0.28,0.09,-0.05,-0.74,933.80
19.484,-0.24,-0.53,0.76,-1.14,0.18,0.28,0.09,0.10,-0.90,933.80
19.489,-0.17,-0.53,0.85,-1.14,0.18,0.28,0.09,0.10,-0.90,933.80
19.49,-0.17,-0.53,0.85,-1.62,0.01,-0.52,0.09,0.10,-0.90,933.80
19.507,-0.17,-0.53,0.85,-1.62,0.01,-0.52,0.09,0.10,-0.90,933.77
19.552,-0.17,-0.53,0.85,-1.62,0.01,-0.52,-0.62,0.37,-0.65,933.77
19.553,-0.35,-0.54,1.00,-1.62,0.01,-0.52,-0.62,0.37,-0.65,933.77
19.554,-0.35,-0.54,1.00,0.24,-0.25,-2.25,-0.62,0.37,-0.65,933.77
19.573,-0.35,-0.54,1.00,0.24,-0.25,-2.25,-0.62,0.37,-0.65,933.77
19.616,-0.35,-0.54,1.00,0.24,-0.25,-2.25,-0.15,-0.08,-0.23,933.77
19.617,-0.43,-0.50,0.84,0.24,-0.25,-2.25,-0.15,-0.08,-0.23,933.77
19.618,-0.43,-0.50,0.84,1.09,-0.84,-0.74,-0.15,-0.08,-0.23,933.77
19.639,-0.43,-0.50,0.84,1.09,-0.84,-0.74,-0.15,-0.08,-0.23,933.72
19.675,-0.43,-0.50,0.84,1.09,-0.84,-0.74,0.15,-0.22,-0.10,933.72
19.679,-0.03,-0.41,0.70,1.09,-0.84,-0.74,0.15,-0.22,-0.10,933.72
19.681,-0.03,-0.41,0.70,-2.65,-1.67,0.68,0.15,-0.22,-0.10,933.72
19.719,-0.03,-0.41,0.70,-2.65,-1.67,0.68,0.15,-0.22,-0.10,933.72
19.739,-0.03,-0.41,0.70,-2.65,-1.67,0.68,0.27,-0.18,-0.43,933.72
19.744,0.01,-0.51,0.64,-2.65,-1.67,0.68,0.27,-0.18,-0.43,933.72
19.744,0.01,-0.51,0.64,-2.80,-0.59,1.40,0.27,-0.18,-0.43,933.72
19.772,0.01,-0.51,0.64,-2.80,-0.59,1.40,0.27,-0.18,-0.43,933.72
19.801,0.01,-0.51,0.64,-2.80,-0.59,1.40,0.23,-0.02,-0.13,933.72
19.806,-0.42,-0.66,0.85,-2.80,-0.59,1.40,0.23,-0.02,-0.13,933.72
19.807,-0.42,-0.66,0.85,1.49,0.98,-0.59,0.23,-0.02,-0.13,933.72
19.84,-0.42,-0.66,0.85,1.49,0.98,-0.59,0.23,-0.02,-0.13,933.72
19.866,-0.42,-0.66,0.85,1.49,0.98,-0.59,0.03,-0.34,0.24,933.72
19.869,-0.35,-0.63,0.74,1.49,0.98,-0.59,0.03,-0.34,0.24,933.72
19.869,-0.35,-0.63,0.74,0.83,0.71,0.60,0.03,-0.34,0.24,933.72
19.907,-0.35,-0.63,0.74,0.83,0.71,0.60,0.03,-0.34,0.24,933.72
19.928,-0.35,-0.63,0.74,0.83,0.71,0.60,0.29,-0.29,0.21,933.72
19.933,-0.22,-0.51,0.73,0.83,0.71,0.60,0.29,-0.29,0.21,933.72
19.934,-0.22,-0.51,0.73,-0.32,-0.33,0.86,0.29,-0.29,0.21,933.72
19.973,-0.22,-0.51,0.73,-0.32,-0.33,0.86,0.29,-0.29,0.21,933.71
19.991,-0.22,-0.51,0.73,-0.32,-0.33,0.86,0.27,-0.09,0.39,933.71
19.996,-0.15,-0.47,0.89,-0.32,-0.33,0.86,0.27,-0.09,0.39,933.71
19.997,-0.15,-0.47,0.89,-1.11,-0.48,-0.65,0.27,-0.09,0.39,933.71
20.044,-0.15,-0.47,0.89,-1.11,-0.48,-0.65,0.27,-0.09,0.39,933.71
20.055,-0.15,-0.47,0.89,-1.11,-0.48,-0.65,0.01,-0.08,0.25,933.71
20.06,-0.15,-0.47,0.89,-0.21,1.19,0.47,0.01,-0.08,0.25,933.71
20.06,-0.25,-0.63,0.78,-0.21,1.19,0.47,0.01,-0.08,0.25,933.71
20.107,-0.25,-0.63,0.78,-0.21,1.19,0.47,0.01,-0.08,0.25,933.71
20.122,-0.25,-0.63,0.78,-0.21,1.19,0.47,0.03,-0.02,0.12,933.71
20.124,-0.25,-0.63,0.78,-0.89,0.06,-0.81,0.03,-0.02,0.12,933.71
20.124,-0.18,-0.52,0.91,-0.89,0.06,-0.81,0.03,-0.02,0.12,933.71
20.174,-0.18,-0.52,0.91,-0.89,0.06,-0.81,0.03,-0.02,0.12,933.71
20.182,-0.18,-0.52,0.91,-0.89,0.06,-0.81,0.11,-0.06,-0.25,933.71
20.186,-0.25,-0.63,0.80,-0.89,0.06,-0.81,0.11,-0.06,-0.25,933.71
20.186,-0.25,-0.63,0.80,-0.10,1.16,0.33,0.11,-0.06,-0.25,933.71
20.242,-0.25,-0.63,0.80,-0.10,1.16,0.33,0.11,-0.06,-0.25,933.73
20.244,-0.25,-0.63,0.80,-0.10,1.16,0.33,0.04,0.06,-0.57,933.73
20.253,-0.31,-0.65,0.77,-0.10,1.16,0.33,0.04,0.06,-0.57,933.73
20.254,-0.31,-0.65,0.77,0.60,1.33,0.58,0.04,0.06,-0.57,933.73
20.308,-0.31,-0.65,0.77,0.60,1.33,0.58,0.04,0.06,-0.57,933.73
20.309,-0.31,-0.65,0.77,0.60,1.33,0.58,-0.13,0.14,-0.70,933.73
20.324,-0.34,-0.73,0.94,0.60,1.33,0.58,-0.13,0.14,-0.70,933.73
20.325,-0.34,-0.73,0.94,1.04,1.92,-1.17,-0.13,0.14,-0.70,933.73
20.371,-0.34,-0.73,0.94,1.04,1.92,-1.17,-0.36,0.39,-0.26,933.73
20.372,-0.34,-0.73,0.94,1.04,1.92,-1.17,-0.36,0.39,-0.26,933.72
20.375,-0.24,-0.74,0.80,1.04,1.92,-1.17,-0.36,0.39,-0.26,933.72
20.376,-0.24,-0.74,0.80,-0.04,1.80,0.03,-0.36,0.39,-0.26,933.72
20.435,-0.24,-0.74,0.80,-0.04,1.80,0.03,-0.77,0.15,-0.30,933.72
20.44,0.02,-0.35,0.72,-0.04,1.80,0.03,-0.77,0.15,-0.30,933.72
20.44,0.02,-0.35,0.72,-2.50,-2.41,0.59,-0.77,0.15,-0.30,933.72
20.441,0.02,-0.35,0.72,-2.50,-2.41,0.59,-0.77,0.15,-0.30,933.72
20.498,0.02,-0.35,0.72,-2.50,-2.41,0.59,-0.64,0.26,-0.36,933.72
20.503,-0.13,-0.51,0.83,-2.50,-2.41,0.59,-0.64,0.26,-0.36,933.72
20.504,-0.13,-0.51,0.83,-1.05,-1.20,-0.75,-0.64,0.26,-0.36,933.72
20.506,-0.13,-0.51,0.83,-1.05,-1.20,-0.75,-0.64,0.26,-0.36,933.72
20.563,-0.13,-0.51,0.83,-1.05,-1.20,-0.75,-0.05,0.17,0.00,933.72
20.567,-0.13,-0.57,0.78,-1.05,-1.20,-0.75,-0.05,0.17,0.00,933.72
20.571,-0.13,-0.57,0.78,-1.06,-0.61,-0.34,-0.05,0.17,0.00,933.72
20.573,-0.13,-0.57,0.78,-1.06,-0.61,-0.34,-0.05,0.17,0.00,933.68
20.626,-0.13,-0.57,0.78,-1.06,-0.61,-0.34,0.22,-0.05,0.18,933.68
20.65,-0.20,-0.44,0.85,-1.06,-0.61,-0.34,0.22,-0.05,0.18,933.68
20.652,-0.20,-0.44,0.85,-0.46,-1.78,-0.95,0.22,-0.05,0.18,933.68
20.652,-0.20,-0.44,0.85,-0.46,-1.78,-0.95,0.22,-0.05,0.18,933.68
20.687,-0.20,-0.44,0.85,-0.46,-1.78,-0.95,0.30,-0.18,0.21,933.68
20.692,-0.31,-0.54,0.74,-0.46,-1.78,-0.95,0.30,-0.18,0.21,933.68
20.693,-0.31,-0.54,0.74,0.64,-0.63,0.32,0.30,-0.18,0.21,933.68
20.706,-0.31,-0.54,0.74,0.64,-0.63,0.32,0.30,-0.18,0.21,933.67
20.756,-0.31,-0.54,0.74,0.64,-0.63,0.32,-0.05,-0.09,0.45,933.67
20.758,-0.34,-0.64,0.78,0.64,-0.63,0.32,-0.05,-0.09,0.45,933.67
20.759,-0.34,-0.64,0.78,0.79,0.42,-0.11,-0.05,-0.09,0.45,933.67
20.773,-0.34,-0.64,0.78,0.79,0.42,-0.11,-0.05,-0.09,0.45,933.67
20.826,-0.34,-0.64,0.78,0.79,0.42,-0.11,-0.02,-0.14,0.37,933.67
20.828,-0.15,-0.64,0.74,0.79,0.42,-0.11,-0.02,-0.14,0.37,933.67
20.828,-0.15,-0.64,0.74,-1.14,0.45,0.26,-0.02,-0.14,0.37,933.67
20.852,-0.15,-0.64,0.74,-1.14,0.45,0.26,-0.02,-0.14,0.37,933.65
20.878,-0.15,-0.64,0.74,-1.14,0.45,0.26,0.05,0.02,0.43,933.65
20.882,-0.09,-0.60,0.74,-1.14,0.45,0.26,0.05,0.02,0.43,933.65
20.883,-0.09,-0.60,0.74,-1.90,0.13,0.30,0.05,0.02,0.43,933.65
20.907,-0.09,-0.60,0.74,-1.90,0.13,0.30,0.05,0.02,0.43,933.65
20.942,-0.09,-0.60,0.74,-1.90,0.13,0.30,-0.10,-0.01,0.48,933.65
20.947,-0.30,-0.69,0.75,-1.90,0.13,0.30,-0.10,-0.01,0.48,933.65
20.948,-0.30,-0.69,0.75,0.02,1.01,0.15,-0.10,-0.01,0.48,933.65
20.974,-0.30,-0.69,0.75,0.02,1.01,0.15,-0.10,-0.01,0.48,933.65
21.004,-0.30,-0.69,0.75,0.02,1.01,0.15,-0.01,0.03,0.53,933.65
21.009,-0.28,-0.65,0.71,0.02,1.01,0.15,-0.01,0.03,0.53,933.65
21.01,-0.28,-0.65,0.71,-0.42,0.76,0.52,-0.01,0.03,0.53,933.65
21.041,-0.28,-0.65,0.71,-0.42,0.76,0.52,-0.01,0.03,0.53,933.65
21.07,-0.28,-0.65,0.71,-0.42,0.76,0.52,0.08,-0.00,0.21,933.65
21.072,-0.30,-0.47,0.74,-0.42,0.76,0.52,0.08,-0.00,0.21,933.65
21.073,-0.30,-0.47,0.74,-0.25,-0.92,0.31,0.08,-0.00,0.21,933.65
21.106,-0.30,-0.47,0.74,-0.25,-0.92,0.31,0.08,-0.00,0.21,933.65
21.141,-0.30,-0.47,0.74,-0.25,-0.92,0.31,0.17,-0.09,0.05,933.65
21.142,-0.30,-0.47,0.74,0.57,-0.05,-1.50,0.17,-0.09,0.05,933.65
21.143,-0.38,-0.55,0.93,0.57,-0.05,-1.50,0.17,-0.09,0.05,933.65
21.173,-0.38,-0.55,0.93,0.57,-0.05,-1.50,0.17,-0.09,0.05,933.68
21.194,-0.38,-0.55,0.93,0.57,-0.05,-1.50,0.22,-0.13,-0.08,933.68
21.198,-0.52,-0.60,0.78,0.57,-0.05,-1.50,0.22,-0.13,-0.08,933.68
21.199,-0.52,-0.60,0.78,1.96,0.56,0.06,0.22,-0.13,-0.08,933.68
21.242,-0.52,-0.60,0.78,1.96,0.56,0.06,0.22,-0.13,-0.08,933.68
21.263,-0.52,-0.60,0.78,1.96,0.56,0.06,0.23,-0.18,-0.27,933.68
21.264,-0.36,-0.51,0.81,1.96,0.56,0.06,0.23,-0.18,-0.27,933.68
21.265,-0.36,-0.51,0.81,0.58,-0.26,-0.08,0.23,-0.18,-0.27,933.68
21.307,-0.36,-0.51,0.81,0.58,-0.26,-0.08,0.23,-0.18,-0.27,933.69
21.324,-0.36,-0.51,0.81,0.58,-0.26,-0.08,0.17,0.15,-0.06,933.69
21.326,-0.36,-0.51,0.81,0.82,0.73,-0.26,0.17,0.15,-0.06,933.69
21.326,-0.39,-0.61,0.83,0.82,0.73,-0.26,0.17,0.15,-0.06,933.69
21.374,-0.39,-0.61,0.83,0.82,0.73,-0.26,0.17,0.15,-0.06,933.69
21.384,-0.39,-0.61,0.83,0.82,0.73,-0.26,-0.27,0.09,0.18,933.69
21.389,-0.39,-0.61,0.83,-1.81,0.39,0.80,-0.27,0.09,0.18,933.69
21.39,-0.13,-0.58,0.71,-1.81,0.39,0.80,-0.27,0.09,0.18,933.69
21.441,-0.13,-0.58,0.71,-1.81,0.39,0.80,-0.27,0.09,0.18,933.69
21.45,-0.13,-0.58,0.71,-1.81,0.39,0.80,-0.59,0.38,0.30,933.69
21.457,-0.37,-0.56,0.74,-1.81,0.39,0.80,-0.59,0.38,0.30,933.69
21.458,-0.37,-0.56,0.74,0.32,-0.07,0.25,-0.59,0.38,0.30,933.69
21.507,-0.37,-0.56,0.74,0.32,-0.07,0.25,-0.59,0.38,0.30,933.71
21.511,-0.37,-0.56,0.74,0.32,-0.07,0.25,-0.45,0.24,0.40,933.71
21.516,-0.32,-0.42,0.78,0.32,-0.07,0.25,-0.45,0.24,0.40,933.71
21.517,-0.32,-0.42,0.78,-0.46,-1.50,-0.41,-0.45,0.24,0.40,933.71
21.574,-0.32,-0.42,0.78,-0.46,-1.50,-0.41,-0.45,0.24,0.40,933.71
21.575,-0.32,-0.42,0.78,-0.46,-1.50,-0.41,-0.27,0.28,0.25,933.71
21.579,-0.37,-0.51,0.70,-0.46,-1.50,-0.41,-0.27,0.28,0.25,933.71
21.581,-0.37,-0.51,0.70,-0.20,-0.71,0.26,-0.27,0.28,0.25,933.71
21.639,-0.37,-0.51,0.70,-0.20,-0.71,0.26,-0.36,0.29,0.14,933.71
21.64,-0.37,-0.51,0.70,-0.20,-0.71,0.26,-0.36,0.29,0.14,933.70
21.642,-0.37,-0.49,0.70,-0.20,-0.71,0.26,-0.36,0.29,0.14,933.70
21.646,-0.37,-0.49,0.70,-0.35,-1.03,0.02,-0.36,0.29,0.14,933.70
21.701,-0.37,-0.49,0.70,-0.35,-1.03,0.02,-0.23,0.57,0.28,933.70
21.706,-0.74,-0.37,0.62,-0.35,-1.03,0.02,-0.23,0.57,0.28,933.70
21.707,-0.74,-0.37,0.62,2.89,-2.24,0.65,-0.23,0.57,0.28,933.70
21.708,-0.74,-0.37,0.62,2.89,-2.24,0.65,-0.23,0.57,0.28,933.70
21.767,-0.74,-0.37,0.62,2.89,-2.24,0.65,0.13,0.34,0.56,933.70
21.769,-0.74,-0.37,0.62,1.04,-5.57,2.46,0.13,0.34,0.56,933.70
21.77,-0.59,-0.00,0.43,1.04,-5.57,2.46,0.13,0.34,0.56,933.70
21.774,-0.59,-0.00,0.43,1.04,-5.57,2.46,0.13,0.34,0.56,933.69
21.827,-0.59,-0.00,0.43,1.04,-5.57,2.46,-2.17,0.17,1.43,933.69
21.856,-0.79,-0.93,0.84,1.04,-5.57,2.46,-2.17,0.17,1.43,933.69
21.857,-0.79,-0.93,0.84,2.40,3.08,-2.39,-2.17,0.17,1.43,933.69
21.858,-0.79,-0.93,0.84,2.40,3.08,-2.39,-2.17,0.17,1.43,933.69
21.89,-0.79,-0.93,0.84,2.40,3.08,-2.39,-0.88,0.42,0.69,933.69
21.895,-0.79,-0.93,0.84,-6.13,20.50,-10.32,-0.88,0.42,0.69,933.69
21.897,0.04,-2.71,1.60,-6.13,20.50,-10.32,-0.88,0.42,0.69,933.69
21.906,0.04,-2.71,1.60,-6.13,20.50,-10.32,-0.88,0.42,0.69,933.65
21.955,0.04,-2.71,1.60,-6.13,20.50,-10.32,1.34,0.61,-1.33,933.65
21.959,1.00,-1.58,0.59,-6.13,20.50,-10.32,1.34,0.61,-1.33,933.65
21.96,1.00,-1.58,0.59,-15.22,9.38,-0.14,1.34,0.61,-1.33,933.65
21.973,1.00,-1.58,0.59,-15.22,9.38,-0.14,1.34,0.61,-1.33,933.65
22.028,1.00,-1.58,0.59,-15.22,9.38,-0.14,1.21,-0.38,-1.04,933.65
22.029,0.02,-0.62,0.67,-15.22,9.38,-0.14,1.21,-0.38,-1.04,933.65
22.03,0.02,-0.62,0.67,-5.00,0.08,-0.35,1.21,-0.38,-1.04,933.65
22.051,0.02,-0.62,0.67,-5.00,0.08,-0.35,1.21,-0.38,-1.04,933.65
22.08,0.02,-0.62,0.67,-5.00,0.08,-0.35,1.38,-1.06,-1.17,933.65
22.085,-0.29,-0.40,0.96,-5.00,0.08,-0.35,1.38,-1.06,-1.17,933.65
22.086,-0.29,-0.40,0.96,-1.04,-1.84,-2.34,1.38,-1.06,-1.17,933.65
22.106,-0.29,-0.40,0.96,-1.04,-1.84,-2.34,1.38,-1.06,-1.17,933.68
22.145,-0.29,-0.40,0.96,-1.04,-1.84,-2.34,1.51,-1.41,-1.28,933.68
22.165,-0.24,-0.25,0.84,-1.04,-1.84,-2.34,1.51,-1.41,-1.28,933.68
22.167,-0.24,-0.25,0.84,-0.43,-2.84,-0.40,1.51,-1.41,-1.28,933.68
22.175,-0.24,-0.25,0.84,-0.43,-2.84,-0.40,1.51,-1.41,-1.28,933.68
22.208,-0.24,-0.25,0.84,-0.43,-2.84,-0.40,1.11,-0.30,-2.11,933.68
22.212,-0.10,-0.41,0.93,-0.43,-2.84,-0.40,1.11,-0.30,-2.11,933.68
22.213,-0.10,-0.41,0.93,-0.96,-1.04,-0.83,1.11,-0.30,-2.11,933.68
22.244,-0.10,-0.41,0.93,-0.96,-1.04,-0.83,1.11,-0.30,-2.11,933.79
22.272,-0.10,-0.41,0.93,-0.96,-1.04,-0.83,1.03,0.17,-2.53,933.79
22.275,0.04,-0.58,0.88,-0.96,-1.04,-0.83,1.03,0.17,-2.53,933.79
22.276,0.04,-0.58,0.88,-1.63,0.91,-0.06,1.03,0.17,-2.53,933.79
22.307,0.04,-0.58,0.88,-1.63,0.91,-0.06,1.03,0.17,-2.53,933.79
22.346,0.04,-0.58,0.88,-1.63,0.91,-0.06,0.80,0.11,-2.40,933.79
22.348,0.14,-0.43,0.66,-1.63,0.91,-0.06,0.80,0.11,-2.40,933.79
22.349,0.14,-0.43,0.66,-2.03,-0.21,2.30,0.80,0.11,-2.40,933.79
22.374,0.14,-0.43,0.66,-2.03,-0.21,2.30,0.80,0.11,-2.40,933.86
22.397,0.14,-0.43,0.66,-2.03,-0.21,2.30,0.45,0.49,-2.40,933.86
22.402,0.15,-0.33,0.66,-2.03,-0.21,2.30,0.45,0.49,-2.40,933.86
22.404,0.15,-0.33,0.66,-1.74,-1.02,2.44,0.45,0.49,-2.40,933.86
22.442,0.15,-0.33,0.66,-1.74,-1.02,2.44,0.45,0.49,-2.40,933.86
22.463,0.15,-0.33,0.66,-1.74,-1.02,2.44,0.06,0.84,-2.38,933.86
22.468,0.19,-0.19,0.67,-1.74,-1.02,2.44,0.06,0.84,-2.38,933.86
22.468,0.19,-0.19,0.67,-1.89,-2.38,2.31,0.06,0.84,-2.38,933.86
22.506,0.19,-0.19,0.67,-1.89,-2.38,2.31,0.06,0.84,-2.38,933.86
22.524,0.19,-0.19,0.67,-1.89,-2.38,2.31,-0.55,1.12,-1.63,933.86
22.529,-0.23,-0.06,0.55,-1.89,-2.38,2.31,-0.55,1.12,-1.63,933.86
22.529,-0.23,-0.06,0.55,2.00,-3.99,3.39,-0.55,1.12,-1.63,933.86
22.577,-0.23,-0.06,0.55,2.00,-3.99,3.39,-0.55,1.12,-1.63,933.88
22.588,-0.23,-0.06,0.55,2.00,-3.99,3.39,-0.87,1.01,-0.80,933.88
22.592,0.12,-0.28,1.11,2.00,-3.99,3.39,-0.87,1.01,-0.80,933.88
22.592,0.12,-0.28,1.11,-1.76,-2.29,-2.36,-0.87,1.01,-0.80,933.88
22.641,0.12,-0.28,1.11,-1.76,-2.29,-2.36,-0.87,1.01,-0.80,933.88
22.651,0.12,-0.28,1.11,-1.76,-2.29,-2.36,-0.15,1.61,-1.31,933.88
22.661,0.12,-0.28,1.11,-5.52,0.90,-6.42,-0.15,1.61,-1.31,933.88
22.662,0.46,-0.62,1.51,-5.52,0.90,-6.42,-0.15,1.61,-1.31,933.88
22.708,0.46,-0.62,1.51,-5.52,0.90,-6.42,-0.15,1.61,-1.31,933.90
22.714,0.46,-0.62,1.51,-5.52,0.90,-6.42,0.73,1.76,-1.66,933.90
22.719,0.33,-0.55,1.11,-5.52,0.90,-6.42,0.73,1.76,-1.66,933.90
22.72,0.33,-0.55,1.11,-4.60,0.54,-2.41,0.73,1.76,-1.66,933.90
22.777,0.33,-0.55,1.11,-4.60,0.54,-2.41,0.73,1.76,-1.66,933.90
22.778,0.33,-0.55,1.11,-4.60,0.54,-2.41,0.85,1.43,-1.53,933.90
22.782,0.33,-0.55,1.11,-0.83,-0.56,1.05,0.85,1.43,-1.53,933.90
22.783,-0.09,-0.41,0.77,-0.83,-0.56,1.05,0.85,1.43,-1.53,933.90
22.841,-0.09,-0.41,0.77,-0.83,-0.56,1.05,0.85,1.43,-1.53,933.86
22.843,-0.09,-0.41,0.77,-0.83,-0.56,1.05,0.63,1.05,-1.52,933.86
22.846,-0.09,-0.41,0.77,-1.59,-0.13,1.25,0.63,1.05,-1.52,933.86
22.846,-0.02,-0.44,0.76,-1.59,-0.13,1.25,0.63,1.05,-1.52,933.86
22.905,-0.02,-0.44,0.76,-1.59,-0.13,1.25,0.20,1.05,-1.53,933.86
22.907,-0.02,-0.44,0.76,-1.59,-0.13,1.25,0.20,1.05,-1.53,933.86
22.909,-0.02,-0.44,0.76,0.12,0.19,1.27,0.20,1.05,-1.53,933.86
22.91,-0.21,-0.48,0.75,0.12,0.19,1.27,0.20,1.05,-1.53,933.86
22.968,-0.21,-0.48,0.75,0.12,0.19,1.27,0.10,1.01,-1.82,933.86
22.973,-0.21,-0.48,0.75,-2.75,-0.44,1.65,0.10,1.01,-1.82,933.86
22.976,0.08,-0.43,0.70,-2.75,-0.44,1.65,0.10,1.01,-1.82,933.86
22.977,0.08,-0.43,0.70,-2.75,-0.44,1.65,0.10,1.01,-1.82,933.76
23.033,0.08,-0.43,0.70,-2.75,-0.44,1.65,0.52,1.44,-2.10,933.76
23.035,-0.07,-0.30,0.98,-2.75,-0.44,1.65,0.52,1.44,-2.10,933.76
23.036,-0.07,-0.30,0.98,-1.48,-1.67,-1.17,0.52,1.44,-2.10,933.76
23.04,-0.07,-0.30,0.98,-1.48,-1.67,-1.17,0.52,1.44,-2.10,933.76
23.095,-0.07,-0.30,0.98,-1.48,-1.67,-1.17,0.87,1.08,-2.02,933.76
23.099,-0.09,-0.25,1.01,-1.48,-1.67,-1.17,0.87,1.08,-2.02,933.76
23.1,-0.09,-0.25,1.01,-1.23,-1.99,-1.35,0.87,1.08,-2.02,933.76
23.107,-0.09,-0.25,1.01,-1.23,-1.99,-1.35,0.87,1.08,-2.02,933.76
23.159,-0.09,-0.25,1.01,-1.23,-1.99,-1.35,0.89,0.81,-2.16,933.76
23.162,-0.04,-0.46,0.88,-1.23,-1.99,-1.35,0.89,0.81,-2.16,933.76
23.163,-0.04,-0.46,0.88,-1.55,0.23,0.12,0.89,0.81,-2.16,933.76
23.177,-0.04,-0.46,0.88,-1.55,0.23,0.12,0.89,0.81,-2.16,933.70
23.231,-0.04,-0.46,0.88,-1.55,0.23,0.12,0.46,0.62,-2.09,933.70
23.231,-0.04,-0.46,0.88,-0.39,1.41,-1.52,0.46,0.62,-2.09,933.70
23.232,-0.14,-0.58,1.05,-0.39,1.41,-1.52,0.46,0.62,-2.09,933.70
23.254,-0.14,-0.58,1.05,-0.39,1.41,-1.52,0.46,0.62,-2.09,933.70
23.284,-0.14,-0.58,1.05,-0.39,1.41,-1.52,0.07,0.77,-2.00,933.70
23.289,-0.14,-0.58,1.05,-1.95,1.54,-1.47,0.07,0.77,-2.00,933.70
23.289,0.03,-0.61,1.04,-1.95,1.54,-1.47,0.07,0.77,-2.00,933.70
23.307,0.03,-0.61,1.04,-1.95,1.54,-1.47,0.07,0.77,-2.00,933.67
23.347,0.03,-0.61,1.04,-1.95,1.54,-1.47,-0.20,1.25,-2.13,933.67
23.362,0.01,-0.55,0.93,-1.95,1.54,-1.47,-0.20,1.25,-2.13,933.67
23.362,0.01,-0.55,0.93,-1.82,0.69,-0.63,-0.20,1.25,-2.13,933.67
23.374,0.01,-0.55,0.93,-1.82,0.69,-0.63,-0.20,1.25,-2.13,933.67
23.411,0.01,-0.55,0.93,-1.82,0.69,-0.63,-0.04,0.98,-1.88,933.67
23.415,-0.01,-0.58,0.69,-1.82,0.69,-0.63,-0.04,0.98,-1.88,933.67
23.416,-0.01,-0.58,0.69,-1.53,0.75,1.65,-0.04,0.98,-1.88,933.67
23.445,-0.01,-0.58,0.69,-1.53,0.75,1.65,-0.04,0.98,-1.88,933.61
23.478,-0.01,-0.58,0.69,-1.53,0.75,1.65,0.22,0.83,-1.42,933.61
23.479,-0.13,-0.44,0.59,-1.53,0.75,1.65,0.22,0.83,-1.42,933.61
23.48,-0.13,-0.44,0.59,-0.36,-0.71,2.60,0.22,0.83,-1.42,933.61
23.507,-0.13,-0.44,0.59,-0.36,-0.71,2.60,0.22,0.83,-1.42,933.61
23.547,-0.13,-0.44,0.59,-0.36,-0.71,2.60,0.16,0.79,-1.50,933.61
23.549,-0.26,-0.39,0.57,-0.36,-0.71,2.60,0.16,0.79,-1.50,933.61
23.549,-0.26,-0.39,0.57,0.93,-1.19,2.82,0.16,0.79,-1.50,933.61
23.578,-0.26,-0.39,0.57,0.93,-1.19,2.82,0.16,0.79,-1.50,933.61
23.601,-0.26,-0.39,0.57,0.93,-1.19,2.82,-0.04,0.65,-1.36,933.61
23.605,-0.26,-0.39,0.57,2.18,-0.84,1.36,-0.04,0.65,-1.36,933.61
23.606,-0.38,-0.44,0.71,2.18,-0.84,1.36,-0.04,0.65,-1.36,933.61
23.648,-0.38,-0.44,0.71,2.18,-0.84,1.36,-0.04,0.65,-1.36,933.62
23.67,-0.38,-0.44,0.71,2.18,-0.84,1.36,-0.12,0.22,-0.97,933.62
23.671,-0.27,-0.64,0.83,2.18,-0.84,1.36,-0.12,0.22,-0.97,933.62
23.672,-0.27,-0.64,0.83,1.33,0.89,0.05,-0.12,0.22,-0.97,933.62
23.71,-0.27,-0.64,0.83,1.33,0.89,0.05,-0.12,0.22,-0.97,933.62
23.727,-0.27,-0.64,0.83,1.33,0.89,0.05,-0.56,0.22,-0.78,933.62
23.734,-0.31,-0.77,1.05,1.33,0.89,0.05,-0.56,0.22,-0.78,933.62
23.735,-0.31,-0.77,1.05,1.84,1.89,-2.28,-0.56,0.22,-0.78,933.62
23.779,-0.31,-0.77,1.05,1.84,1.89,-2.28,-0.56,0.22,-0.78,933.64
23.792,-0.31,-0.77,1.05,1.84,1.89,-2.28,-0.41,0.12,-0.54,933.64
23.795,-0.06,-0.66,0.77,1.84,1.89,-2.28,-0.41,0.12,-0.54,933.64
23.796,-0.06,-0.66,0.77,-0.45,0.55,0.31,-0.41,0.12,-0.54,933.64
23.841,-0.06,-0.66,0.77,-0.45,0.55,0.31,-0.41,0.12,-0.54,933.64
23.854,-0.06,-0.66,0.77,-0.45,0.55,0.31,-0.55,0.31,-0.28,933.64
23.859,-0.09,-0.66,0.81,-0.45,0.55,0.31,-0.55,0.31,-0.28,933.64
23.859,-0.09,-0.66,0.81,-0.23,0.29,-0.31,-0.55,0.31,-0.28,933.64
23.907,-0.09,-0.66,0.81,-0.23,0.29,-0.31,-0.55,0.31,-0.28,933.61
23.917,-0.09,-0.66,0.81,-0.23,0.29,-0.31,-0.16,0.43,-0.28,933.61
23.922,0.13,-0.94,1.17,-0.23,0.29,-0.31,-0.16,0.43,-0.28,933.61
23.923,0.13,-0.94,1.17,-2.39,2.86,-3.96,-0.16,0.43,-0.28,933.61
23.977,0.13,-0.94,1.17,-2.39,2.86,-3.96,-0.16,0.43,-0.28,933.61
23.981,0.13,-0.94,1.17,-2.39,2.86,-3.96,-0.13,-0.08,0.10,933.61
23.986,-0.31,-0.74,0.37,-2.39,2.86,-3.96,-0.13,-0.08,0.10,933.61
23.988,-0.31,-0.74,0.37,1.89,0.91,3.83,-0.13,-0.08,0.10,933.61
24.042,-0.31,-0.74,0.37,1.89,0.91,3.83,-0.13,-0.08,0.10,933.61
24.044,-0.31,-0.74,0.37,1.89,0.91,3.83,-0.03,-0.13,0.41,933.61
24.049,-0.32,-0.67,1.03,1.89,0.91,3.83,-0.03,-0.13,0.41,933.61
24.051,-0.32,-0.67,1.03,1.83,0.26,-2.61,-0.03,-0.13,0.41,933.61
24.107,-0.32,-0.67,1.03,1.83,0.26,-2.61,0.28,-0.07,0.11,933.61
24.108,-0.32,-0.67,1.03,1.83,0.26,-2.61,0.28,-0.07,0.11,933.61
24.112,-0.23,-0.59,0.68,1.83,0.26,-2.61,0.28,-0.07,0.11,933.61
24.113,-0.23,-0.59,0.68,1.01,-0.40,0.92,0.28,-0.07,0.11,933.61
24.172,-0.23,-0.59,0.68,1.01,-0.40,0.92,0.31,-0.08,0.11,933.61
24.174,-0.23,-0.59,0.68,1.01,-0.40,0.92,0.31,-0.08,0.11,933.61
24.176,-0.23,-0.59,0.68,-0.43,0.87,0.12,0.31,-0.08,0.11,933.61
24.176,-0.09,-0.71,0.77,-0.43,0.87,0.12,0.31,-0.08,0.11,933.61
24.238,-0.09,-0.71,0.77,-0.43,0.87,0.12,0.16,0.10,-0.16,933.61
24.239,-0.13,-0.79,0.86,-0.43,0.87,0.12,0.16,0.10,-0.16,933.61
24.24,-0.13,-0.79,0.86,-0.04,1.75,-0.64,0.16,0.10,-0.16,933.61
24.241,-0.13,-0.79,0.86,-0.04,1.75,-0.64,0.16,0.10,-0.16,933.61
24.298,-0.13,-0.79,0.86,-0.04,1.75,-0.64,-0.52,0.21,0.25,933.61
24.302,-0.12,-0.80,0.74,-0.04,1.75,-0.64,-0.52,0.21,0.25,933.61
24.303,-0.12,-0.80,0.74,-0.26,1.60,0.27,-0.52,0.21,0.25,933.61
24.307,-0.12,-0.80,0.74,-0.26,1.60,0.27,-0.52,0.21,0.25,933.61
24.361,-0.12,-0.80,0.74,-0.26,1.60,0.27,-0.49,0.23,0.14,933.61
24.365,-0.00,-0.61,0.91,-0.26,1.60,0.27,-0.49,0.23,0.14,933.61
24.366,-0.00,-0.61,0.91,-1.62,-0.45,-1.63,-0.49,0.23,0.14,933.61
24.374,-0.00,-0.61,0.91,-1.62,-0.45,-1.63,-0.49,0.23,0.14,933.61
24.433,-0.00,-0.61,0.91,-1.62,-0.45,-1.63,-0.10,0.47,0.04,933.61
24.435,-0.20,-0.40,0.68,-1.62,-0.45,-1.63,-0.10,0.47,0.04,933.61
24.435,-0.20,-0.40,0.68,0.11,-2.53,0.60,-0.10,0.47,0.04,933.61
24.455,-0.20,-0.40,0.68,0.11,-2.53,0.60,-0.10,0.47,0.04,933.61
24.493,-0.20,-0.40,0.68,0.38,-2.38,0.67,-0.10,0.47,0.04,933.61
24.498,-0.20,-0.40,0.68,0.38,-2.38,0.67,0.07,0.05,0.58,933.61
24.499,-0.26,-0.41,0.67,0.38,-2.38,0.67,0.07,0.05,0.58,933.61
24.511,-0.26,-0.41,0.67,0.38,-2.38,0.67,0.07,0.05,0.58,933.61
24.55,-0.26,-0.41,0.67,0.38,-2.38,0.67,0.59,-0.28,0.54,933.61
24.565,-0.16,-0.50,0.80,0.38,-2.38,0.67,0.59,-0.28,0.54,933.61
24.566,-0.16,-0.50,0.80,-0.68,-1.15,-0.32,0.59,-0.28,0.54,933.61
24.574,-0.16,-0.50,0.80,-0.68,-1.15,-0.32,0.59,-0.28,0.54,933.61
24.614,-0.16,-0.50,0.80,-0.68,-1.15,-0.32,0.53,-1.08,0.96,933.61
24.618,-0.30,-0.59,0.44,-0.68,-1.15,-0.32,0.53,-1.08,0.96,933.61
24.619,-0.30,-0.59,0.44,0.93,0.16,3.60,0.53,-1.08,0.96,933.61
24.648,-0.30,-0.59,0.44,0.93,0.16,3.60,0.53,-1.08,0.96,933.61
24.679,-0.30,-0.59,0.44,0.93,0.16,3.60,0.08,-0.80,1.19,933.61
24.682,-0.45,-0.88,0.80,0.93,0.16,3.60,0.08,-0.80,1.19,933.61
24.682,-0.45,-0.88,0.80,2.38,3.19,0.17,0.08,-0.80,1.19,933.61
24.709,-0.45,-0.88,0.80,2.38,3.19,0.17,0.08,-0.80,1.19,933.64
24.75,-0.45,-0.88,0.80,2.38,3.19,0.17,-0.82,-0.88,1.15,933.64
24.751,-0.24,-1.16,0.37,2.38,3.19,0.17,-0.82,-0.88,1.15,933.64
24.751,-0.24,-1.16,0.37,0.35,5.59,4.20,-0.82,-0.88,1.15,933.64
24.774,-0.24,-1.16,0.37,0.35,5.59,4.20,-0.82,-0.88,1.15,933.64
24.803,-0.24,-1.16,0.37,0.35,5.59,4.20,-0.96,-0.41,1.12,933.64
24.808,-0.29,-1.04,0.57,0.35,5.59,4.20,-0.96,-0.41,1.12,933.64
24.808,-0.29,-1.04,0.57,0.64,4.11,1.88,-0.96,-0.41,1.12,933.64
24.845,-0.29,-1.04,0.57,0.64,4.11,1.88,-0.96,-0.41,1.12,933.64
24.868,-0.29,-1.04,0.57,0.64,4.11,1.88,-0.83,-0.65,1.21,933.64
24.873,-0.02,-0.79,0.75,0.64,4.11,1.88,-0.83,-0.65,1.21,933.64
24.873,-0.02,-0.79,0.75,-2.20,1.47,-0.09,-0.83,-0.65,1.21,933.64
24.907,-0.02,-0.79,0.75,-2.20,1.47,-0.09,-0.83,-0.65,1.21,933.64
24.93,-0.02,-0.79,0.75,-2.20,1.47,-0.09,-0.22,-0.77,1.15,933.64
24.935,-0.05,-0.67,0.82,-2.20,1.47,-0.09,-0.22,-0.77,1.15,933.64
24.936,-0.05,-0.67,0.82,-2.05,0.32,-0.78,-0.22,-0.77,1.15,933.64
24.975,-0.05,-0.67,0.82,-2.05,0.32,-0.78,-0.22,-0.77,1.15,933.65
24.994,-0.05,-0.67,0.82,-2.05,0.32,-0.78,0.40,-1.08,0.63,933.65
24.999,0.15,-0.59,0.61,-2.05,0.32,-0.78,0.40,-1.08,0.63,933.65
24.999,0.15,-0.59,0.61,-3.64,-0.11,1.59,0.40,-1.08,0.63,933.65
25.041,0.15,-0.59,0.61,-3.64,-0.11,1.59,0.40,-1.08,0.63,933.65
25.057,0.15,-0.59,0.61,-3.64,-0.11,1.59,0.89,-1.23,0.52,933.65
25.064,0.05,-0.57,0.66,-3.64,-0.11,1.59,0.89,-1.23,0.52,933.65
25.065,0.05,-0.57,0.66,-2.28,0.14,1.58,0.89,-1.23,0.52,933.65
25.108,0.05,-0.57,0.66,-2.28,0.14,1.58,0.89,-1.23,0.52,933.65
25.121,0.05,-0.57,0.66,-2.28,0.14,1.58,0.21,-0.67,0.75,933.65
25.125,-0.12,-0.64,0.79,-2.28,0.14,1.58,0.21,-0.67,0.75,933.65
25.126,-0.12,-0.64,0.79,-0.50,1.05,0.47,0.21,-0.67,0.75,933.65
25.175,-0.12,-0.64,0.79,-0.50,1.05,0.47,0.21,-0.67,0.75,933.70
25.183,-0.12,-0.64,0.79,-0.50,1.05,0.47,-0.84,-0.45,1.01,933.70
25.188,-0.38,-0.92,0.99,-0.50,1.05,0.47,-0.84,-0.45,1.01,933.70
25.189,-0.38,-0.92,0.99,1.94,3.46,-1.69,-0.84,-0.45,1.01,933.70
25.242,-0.38,-0.92,0.99,1.94,3.46,-1.69,-0.84,-0.45,1.01,933.70
25.247,-0.38,-0.92,0.99,1.94,3.46,-1.69,-1.32,-0.76,0.83,933.70
25.252,-0.23,-0.83,0.63,1.94,3.46,-1.69,-1.32,-0.76,0.83,933.70
25.253,-0.23,-0.83,0.63,0.56,1.99,1.37,-1.32,-0.76,0.83,933.70
25.308,-0.23,-0.83,0.63,0.56,1.99,1.37,-1.32,-0.76,0.83,933.71
25.311,-0.23,-0.83,0.63,0.56,1.99,1.37,-1.00,-0.36,0.97,933.71
25.315,-0.27,-0.74,0.59,0.56,1.99,1.37,-1.00,-0.36,0.97,933.71
25.316,-0.27,-0.74,0.59,0.66,0.75,1.43,-1.00,-0.36,0.97,933.71
25.373,-0.27,-0.74,0.59,0.66,0.75,1.43,-0.70,-0.60,0.97,933.71
25.374,-0.27,-0.74,0.59,0.66,0.75,1.43,-0.70,-0.60,0.97,933.71
25.378,0.02,-0.68,0.42,0.66,0.75,1.43,-0.70,-0.60,0.97,933.71
25.378,0.02,-0.68,0.42,-2.30,-0.06,2.86,-0.70,-0.60,0.97,933.71
25.439,0.02,-0.68,0.42,-2.30,-0.06,2.86,-0.30,-0.75,1.15,933.71
25.441,0.02,-0.68,0.42,-2.30,-0.06,2.86,-0.30,-0.75,1.15,933.71
25.442,0.02,-0.68,0.42,-1.27,0.96,1.86,-0.30,-0.75,1.15,933.71
25.443,-0.10,-0.78,0.52,-1.27,0.96,1.86,-0.30,-0.75,1.15,933.71
25.501,-0.10,-0.78,0.52,-1.27,0.96,1.86,-0.33,-0.75,1.10,933.71
25.505,-0.10,-0.78,0.52,-0.44,1.50,0.73,-0.33,-0.75,1.10,933.71
25.506,-0.20,-0.83,0.63,-0.44,1.50,0.73,-0.33,-0.75,1.10,933.71
25.509,-0.20,-0.83,0.63,-0.44,1.50,0.73,-0.33,-0.75,1.10,933.71
25.563,-0.20,-0.83,0.63,-0.44,1.50,0.73,-0.82,-0.52,0.78,933.71
25.568,-0.20,-0.83,0.63,1.15,1.31,0.63,-0.82,-0.52,0.78,933.71
25.569,-0.37,-0.84,0.61,1.15,1.31,0.63,-0.82,-0.52,0.78,933.71
25.574,-0.37,-0.84,0.61,1.15,1.31,0.63,-0.82,-0.52,0.78,933.71
25.635,-0.37,-0.84,0.61,1.15,1.31,0.63,-0.90,-0.37,0.67,933.71
25.636,-0.37,-0.84,0.61,2.17,2.23,1.44,-0.90,-0.37,0.67,933.71
25.637,-0.49,-0.96,0.50,2.17,2.23,1.44,-0.90,-0.37,0.67,933.71
25.654,-0.49,-0.96,0.50,2.17,2.23,1.44,-0.90,-0.37,0.67,933.71
25.69,-0.49,-0.96,0.50,2.17,2.23,1.44,-0.52,-0.41,0.75,933.71
25.696,-0.49,-0.96,0.50,0.65,2.04,3.62,-0.52,-0.41,0.75,933.71
25.697,-0.35,-0.95,0.25,0.65,2.04,3.62,-0.52,-0.41,0.75,933.71
25.709,-0.35,-0.95,0.25,0.65,2.04,3.62,-0.52,-0.41,0.75,933.71
25.755,-0.35,-0.95,0.25,0.65,2.04,3.62,-0.15,-0.30,0.78,933.71
25.778,-0.15,-0.96,0.62,0.65,2.04,3.62,-0.15,-0.30,0.78,933.71
25.779,-0.15,-0.96,0.62,-1.55,2.20,-0.01,-0.15,-0.30,0.78,933.71
25.78,-0.15,-0.96,0.62,-1.55,2.20,-0.01,-0.15,-0.30,0.78,933.69
25.817,-0.15,-0.96,0.62,-1.55,2.20,-0.01,0.12,-0.31,0.47,933.69
25.821,-0.30,-0.68,0.42,-1.55,2.20,-0.01,0.12,-0.31,0.47,933.69
25.822,-0.30,-0.68,0.42,-0.23,-0.37,2.05,0.12,-0.31,0.47,933.69
25.85,-0.30,-0.68,0.42,-0.23,-0.37,2.05,0.12,-0.31,0.47,933.69
25.882,-0.30,-0.68,0.42,-0.23,-0.37,2.05,0.11,-0.43,0.44,933.69
25.885,-0.38,-0.68,0.66,-0.23,-0.37,2.05,0.11,-0.43,0.44,933.69
25.886,-0.38,-0.68,0.66,0.59,-0.22,-0.13,0.11,-0.43,0.44,933.69
25.908,-0.38,-0.68,0.66,0.59,-0.22,-0.13,0.11,-0.43,0.44,933.68
25.952,-0.38,-0.68,0.66,0.59,-0.22,-0.13,0.09,-0.54,0.46,933.68
25.953,-0.51,-0.78,0.73,0.59,-0.22,-0.13,0.09,-0.54,0.46,933.68
25.954,-0.51,-0.78,0.73,1.90,0.90,-0.68,0.09,-0.54,0.46,933.68
25.976,-0.51,-0.78,0.73,1.90,0.90,-0.68,0.09,-0.54,0.46,933.68
26.007,-0.51,-0.78,0.73,1.90,0.90,-0.68,-0.02,-0.41,0.41,933.68
26.012,-0.36,-0.86,0.59,1.90,0.90,-0.68,-0.02,-0.41,0.41,933.68
26.013,-0.36,-0.86,0.59,0.37,1.69,0.75,-0.02,-0.41,0.41,933.68
26.053,-0.36,-0.86,0.59,0.37,1.69,0.75,-0.02,-0.41,0.41,933.68
26.07,-0.36,-0.86,0.59,0.37,1.69,0.75,-0.37,-0.04,0.45,933.68
26.074,-0.32,-0.80,0.65,0.37,1.69,0.75,-0.37,-0.04,0.45,933.68
26.075,-0.32,-0.80,0.65,-0.18,1.02,0.00,-0.37,-0.04,0.45,933.68
26.107,-0.32,-0.80,0.65,-0.18,1.02,0.00,-0.37,-0.04,0.45,933.68
26.134,-0.32,-0.80,0.65,-0.18,1.02,0.00,-0.42,-0.23,0.45,933.68
26.138,-0.32,-0.80,0.65,-0.84,0.14,0.55,-0.42,-0.23,0.45,933.68
26.139,-0.26,-0.71,0.58,-0.84,0.14,0.55,-0.42,-0.23,0.45,933.68
26.176,-0.26,-0.71,0.58,-0.84,0.14,0.55,-0.42,-0.23,0.45,933.68
26.198,-0.26,-0.71,0.58,-0.84,0.14,0.55,-0.21,-0.08,0.31,933.68
26.201,-0.25,-0.59,0.53,-0.84,0.14,0.55,-0.21,-0.08,0.31,933.68
26.202,-0.25,-0.59,0.53,-1.09,-1.11,1.03,-0.21,-0.08,0.31,933.68
26.243,-0.25,-0.59,0.53,-1.09,-1.11,1.03,-0.21,-0.08,0.31,933.66
26.261,-0.25,-0.59,0.53,-1.09,-1.11,1.03,-0.09,0.03,0.34,933.66
26.265,-0.44,-0.58,0.63,-1.09,-1.11,1.03,-0.09,0.03,0.34,933.66
26.269,-0.44,-0.58,0.63,0.66,-1.16,-0.05,-0.09,0.03,0.34,933.66
26.307,-0.44,-0.58,0.63,0.66,-1.16,-0.05,-0.09,0.03,0.34,933.66
26.324,-0.44,-0.58,0.63,0.66,-1.16,-0.05,0.01,-0.23,0.55,933.66
26.328,-0.56,-0.58,0.54,0.66,-1.16,-0.05,0.01,-0.23,0.55,933.66
26.329,-0.56,-0.58,0.54,1.63,-1.05,0.87,0.01,-0.23,0.55,933.66
26.376,-0.56,-0.58,0.54,1.63,-1.05,0.87,0.01,-0.23,0.55,933.67
26.387,-0.56,-0.58,0.54,1.63,-1.05,0.87,0.05,-0.02,0.83,933.67
26.391,-0.69,-0.79,0.39,1.63,-1.05,0.87,0.05,-0.02,0.83,933.67
26.392,-0.69,-0.79,0.39,2.61,1.32,2.44,0.05,-0.02,0.83,933.67
26.442,-0.69,-0.79,0.39,2.61,1.32,2.44,0.05,-0.02,0.83,933.67
26.45,-0.69,-0.79,0.39,2.61,1.32,2.44,-0.32,0.26,0.72,933.67
26.455,-0.69,-0.79,0.39,1.20,2.32,0.10,-0.32,0.26,0.72,933.67
26.456,-0.59,-0.89,0.60,1.20,2.32,0.10,-0.32,0.26,0.72,933.67
26.508,-0.59,-0.89,0.60,1.20,2.32,0.10,-0.32,0.26,0.72,933.66
26.513,-0.59,-0.89,0.60,1.20,2.32,0.10,-0.36,0.11,0.31,933.66
26.518,-0.64,-0.73,0.66,1.20,2.32,0.10,-0.36,0.11,0.31,933.66
26.519,-0.64,-0.73,0.66,1.55,0.75,-0.67,-0.36,0.11,0.31,933.66
26.577,-0.64,-0.73,0.66,1.55,0.75,-0.67,-0.36,0.11,0.31,933.66
26.578,-0.64,-0.73,0.66,1.55,0.75,-0.67,-0.10,0.25,0.21,933.66
26.583,-0.32,-0.62,0.81,1.55,0.75,-0.67,-0.10,0.25,0.21,933.66
26.587,-0.32,-0.62,0.81,-1.78,-0.37,-2.17,-0.10,0.25,0.21,933.66
26.641,-0.32,-0.62,0.81,-1.78,-0.37,-2.17,0.17,0.11,0.18,933.66
26.643,-0.32,-0.62,0.81,-1.78,-0.37,-2.17,0.17,0.11,0.18,933.66
26.645,-0.37,-0.63,0.68,-1.78,-0.37,-2.17,0.17,0.11,0.18,933.66
26.645,-0.37,-0.63,0.68,-1.41,-0.17,-0.87,0.17,0.11,0.18,933.66
26.703,-0.37,-0.63,0.68,-1.41,-0.17,-0.87,0.06,-0.08,0.09,933.66
26.708,-0.37,-0.63,0.68,-1.41,-0.17,-0.87,0.06,-0.08,0.09,933.67
26.709,-0.37,-0.63,0.68,-2.20,-0.70,0.40,0.06,-0.08,0.09,933.67
26.71,-0.29,-0.57,0.55,-2.20,-0.70,0.40,0.06,-0.08,0.09,933.67
26.771,-0.29,-0.57,0.55,-2.20,-0.70,0.40,-0.04,-0.20,0.35,933.67
26.772,-0.48,-0.65,0.53,-2.20,-0.70,0.40,-0.04,-0.20,0.35,933.67
26.773,-0.48,-0.65,0.53,-0.36,0.19,0.63,-0.04,-0.20,0.35,933.67
26.775,-0.48,-0.65,0.53,-0.36,0.19,0.63,-0.04,-0.20,0.35,933.67
26.84,-0.48,-0.65,0.53,-0.36,0.19,0.63,0.06,-0.16,0.45,933.67
26.841,-0.48,-0.65,0.53,1.12,-0.41,0.16,0.06,-0.16,0.45,933.67
26.842,-0.64,-0.57,0.59,1.12,-0.41,0.16,0.06,-0.16,0.45,933.67
26.843,-0.64,-0.57,0.59,1.12,-0.41,0.16,0.06,-0.16,0.45,933.68
26.893,-0.64,-0.57,0.59,1.12,-0.41,0.16,0.10,-0.14,0.34,933.68
26.898,-0.62,-0.59,0.57,1.12,-0.41,0.16,0.10,-0.14,0.34,933.68
26.899,-0.62,-0.59,0.57,0.81,-0.03,0.39,0.10,-0.14,0.34,933.68
26.908,-0.62,-0.59,0.57,0.81,-0.03,0.39,0.10,-0.14,0.34,933.68
26.958,-0.62,-0.59,0.57,0.81,-0.03,0.39,0.06,-0.09,0.07,933.68
26.962,-0.62,-0.59,0.57,1.00,0.12,-0.02,0.06,-0.09,0.07,933.68
26.963,-0.64,-0.60,0.62,1.00,0.12,-0.02,0.06,-0.09,0.07,933.68
26.974,-0.64,-0.60,0.62,1.00,0.12,-0.02,0.06,-0.09,0.07,933.69
27.02,-0.64,-0.60,0.62,1.00,0.12,-0.02,-0.16,0.12,0.01,933.69
27.026,-0.64,-0.60,0.62,0.87,-0.27,0.09,-0.16,0.12,0.01,933.69
27.027,-0.63,-0.57,0.60,0.87,-0.27,0.09,-0.16,0.12,0.01,933.69
27.041,-0.63,-0.57,0.60,0.87,-0.27,0.09,-0.16,0.12,0.01,933.69
27.084,-0.63,-0.57,0.60,0.87,-0.27,0.09,-0.42,0.23,0.10,933.69
27.09,-0.41,-0.67,0.64,0.87,-0.27,0.09,-0.42,0.23,0.10,933.69
27.09,-0.41,-0.67,0.64,-1.46,0.55,-0.55,-0.42,0.23,0.10,933.69
27.108,-0.41,-0.67,0.64,-1.46,0.55,-0.55,-0.42,0.23,0.10,933.69
27.146,-0.41,-0.67,0.64,-1.46,0.55,-0.55,-0.44,0.12,-0.00,933.69
27.151,-0.39,-0.60,0.48,-1.46,0.55,-0.55,-0.44,0.12,-0.00,933.69
27.152,-0.39,-0.60,0.48,-1.60,-0.27,0.79,-0.44,0.12,-0.00,933.69
27.174,-0.39,-0.60,0.48,-1.60,-0.27,0.79,-0.44,0.12,-0.00,933.69
27.21,-0.39,-0.60,0.48,-1.60,-0.27,0.79,-0.27,0.16,0.04,933.69
27.214,-0.53,-0.70,0.48,-1.60,-0.27,0.79,-0.27,0.16,0.04,933.69
27.215,-0.53,-0.70,0.48,-0.33,0.61,0.69,-0.27,0.16,0.04,933.69
27.243,-0.53,-0.70,0.48,-0.33,0.61,0.69,-0.27,0.16,0.04,933.69
27.273,-0.53,-0.70,0.48,-0.33,0.61,0.69,-0.04,0.15,0.16,933.69
27.278,-0.57,-0.63,0.52,-0.33,0.61,0.69,-0.04,0.15,0.16,933.69
27.279,-0.57,-0.63,0.52,-0.03,0.02,0.24,-0.04,0.15,0.16,933.69
27.308,-0.57,-0.63,0.52,-0.03,0.02,0.24,-0.04,0.15,0.16,933.69
27.338,-0.57,-0.63,0.52,-0.03,0.02,0.24,-0.17,0.14,0.12,933.69
27.343,-0.61,-0.77,0.49,-0.03,0.02,0.24,-0.17,0.14,0.12,933.69
27.343,-0.61,-0.77,0.49,0.22,1.34,0.39,-0.17,0.14,0.12,933.69
27.376,-0.61,-0.77,0.49,0.22,1.34,0.39,-0.17,0.14,0.12,933.69
27.402,-0.61,-0.77,0.49,0.22,1.34,0.39,-0.30,-0.05,0.12,933.69
27.405,-0.70,-0.70,0.59,0.22,1.34,0.39,-0.30,-0.05,0.12,933.69
27.406,-0.70,-0.70,0.59,1.10,0.63,-0.69,-0.30,-0.05,0.12,933.69
27.442,-0.70,-0.70,0.59,1.10,0.63,-0.69,-0.30,-0.05,0.12,933.69
27.464,-0.70,-0.70,0.59,1.10,0.63,-0.69,-0.27,-0.09,0.07,933.69
27.468,-0.48,-0.53,0.75,1.10,0.63,-0.69,-0.27,-0.09,0.07,933.69
27.473,-0.48,-0.53,0.75,-1.04,-1.07,-2.36,-0.27,-0.09,0.07,933.69
27.508,-0.48,-0.53,0.75,-1.04,-1.07,-2.36,-0.27,-0.09,0.07,933.69
27.527,-0.48,-0.53,0.75,-1.04,-1.07,-2.36,0.01,-0.21,0.04,933.69
27.539,-0.51,-0.69,0.61,-1.04,-1.07,-2.36,0.01,-0.21,0.04,933.69
27.54,-0.51,-0.69,0.61,-0.74,0.49,-0.85,0.01,-0.21,0.04,933.69
27.576,-0.51,-0.69,0.61,-0.74,0.49,-0.85,0.01,-0.21,0.04,933.70
27.59,-0.51,-0.69,0.61,-0.74,0.49,-0.85,0.08,-0.21,-0.10,933.70
27.595,-0.48,-0.69,0.55,-0.74,0.49,-0.85,0.08,-0.21,-0.10,933.70
27.596,-0.48,-0.69,0.55,-0.89,0.51,-0.16,0.08,-0.21,-0.10,933.70
27.643,-0.48,-0.69,0.55,-0.89,0.51,-0.16,0.08,-0.21,-0.10,933.70
27.654,-0.48,-0.69,0.55,-0.89,0.51,-0.16,0.09,-0.05,-0.03,933.70
27.658,-0.48,-0.69,0.55,-0.73,1.86,1.41,0.09,-0.05,-0.03,933.70
27.658,-0.49,-0.83,0.39,-0.73,1.86,1.41,0.09,-0.05,-0.03,933.70
27.708,-0.49,-0.83,0.39,-0.73,1.86,1.41,0.09,-0.05,-0.03,933.70
27.716,-0.49,-0.83,0.39,-0.73,1.86,1.41,0.10,-0.18,0.15,933.70
27.721,-0.50,-0.66,0.47,-0.73,1.86,1.41,0.10,-0.18,0.15,933.70
27.722,-0.50,-0.66,0.47,-0.66,0.29,0.79,0.10,-0.18,0.15,933.70
27.775,-0.50,-0.66,0.47,-0.66,0.29,0.79,0.10,-0.18,0.15,933.71
27.781,-0.50,-0.66,0.47,-0.66,0.29,0.79,0.03,-0.01,0.04,933.71
27.787,-0.59,-0.60,0.54,-0.66,0.29,0.79,0.03,-0.01,0.04,933.71
27.789,-0.59,-0.60,0.54,0.22,-0.26,0.09,0.03,-0.01,0.04,933.71
27.842,-0.59,-0.60,0.54,0.22,-0.26,0.09,0.03,-0.01,0.04,933.71
27.849,-0.59,-0.60,0.54,0.22,-0.26,0.09,0.07,0.10,-0.20,933.71
27.85,-0.56,-0.45,0.44,0.22,-0.26,0.09,0.07,0.10,-0.20,933.71
27.852,-0.56,-0.45,0.44,-0.08,-1.77,1.07,0.07,0.10,-0.20,933.71
27.906,-0.56,-0.45,0.44,-0.08,-1.77,1.07,0.02,0.18,-0.10,933.71
27.907,-0.56,-0.45,0.44,-0.08,-1.77,1.07,0.02,0.18,-0.10,933.72
27.911,-0.62,-0.70,0.62,-0.08,-1.77,1.07,0.02,0.18,-0.10,933.72
27.914,-0.62,-0.70,0.62,0.55,0.58,-0.73,0.02,0.18,-0.10,933.72
27.972,-0.62,-0.70,0.62,0.55,0.58,-0.73,-0.14,0.16,0.13,933.72
27.979,-0.62,-0.70,0.62,-0.37,-0.06,-1.07,-0.14,0.16,0.13,933.72
27.981,-0.54,-0.63,0.64,-0.37,-0.06,-1.07,-0.14,0.16,0.13,933.72
27.982,-0.54,-0.63,0.64,-0.37,-0.06,-1.07,-0.14,0.16,0.13,933.72
28.041,-0.54,-0.63,0.64,-0.37,-0.06,-1.07,-0.19,0.15,0.04,933.72
28.042,-0.54,-0.63,0.64,-1.59,1.32,-0.13,-0.19,0.15,0.04,933.72
28.043,-0.42,-0.78,0.53,-1.59,1.32,-0.13,-0.19,0.15,0.04,933.72
28.044,-0.42,-0.78,0.53,-1.59,1.32,-0.13,-0.19,0.15,0.04,933.73
28.097,-0.42,-0.78,0.53,-1.59,1.32,-0.13,-0.06,0.26,-0.14,933.73
28.101,-0.35,-0.64,0.51,-1.59,1.32,-0.13,-0.06,0.26,-0.14,933.73
28.101,-0.35,-0.64,0.51,-2.27,-0.13,-0.02,-0.06,0.26,-0.14,933.73
28.107,-0.35,-0.64,0.51,-2.27,-0.13,-0.02,-0.06,0.26,-0.14,933.73
28.161,-0.35,-0.64,0.51,-2.27,-0.13,-0.02,-0.13,0.24,-0.31,933.73
28.165,-0.50,-0.67,0.47,-2.27,-0.13,-0.02,-0.13,0.24,-0.31,933.73
28.166,-0.50,-0.67,0.47,-0.76,0.08,0.18,-0.13,0.24,-0.31,933.73
28.175,-0.50,-0.67,0.47,-0.76,0.08,0.18,-0.13,0.24,-0.31,933.73
28.224,-0.50,-0.67,0.47,-0.76,0.08,0.18,-0.02,0.05,-0.12,933.73
28.229,-0.67,-0.70,0.63,-0.76,0.08,0.18,-0.02,0.05,-0.12,933.73
28.232,-0.67,-0.70,0.63,0.92,0.34,-1.42,-0.02,0.05,-0.12,933.73
28.241,-0.67,-0.70,0.63,0.92,0.34,-1.42,-0.02,0.05,-0.12,933.73
28.287,-0.67,-0.70,0.63,0.92,0.34,-1.42,-0.06,-0.02,0.11,933.73
28.291,-0.64,-0.72,0.49,0.92,0.34,-1.42,-0.06,-0.02,0.11,933.73
28.292,-0.64,-0.72,0.49,0.63,0.51,-0.07,-0.06,-0.02,0.11,933.73
28.309,-0.64,-0.72,0.49,0.63,0.51,-0.07,-0.06,-0.02,0.11,933.73
28.349,-0.64,-0.72,0.49,0.63,0.51,-0.07,-0.11,-0.23,0.06,933.73
28.355,-0.64,-0.72,0.49,-1.52,0.23,-0.36,-0.11,-0.23,0.06,933.73
28.355,-0.42,-0.69,0.53,-1.52,0.23,-0.36,-0.11,-0.23,0.06,933.73
28.375,-0.42,-0.69,0.53,-1.52,0.23,-0.36,-0.11,-0.23,0.06,933.73
28.413,-0.42,-0.69,0.53,-1.52,0.23,-0.36,0.15,-0.25,-0.01,933.73
28.418,-0.42,-0.69,0.53,-2.44,-0.29,-0.72,0.15,-0.25,-0.01,933.73
28.419,-0.32,-0.64,0.58,-2.44,-0.29,-0.72,0.15,-0.25,-0.01,933.73
28.441,-0.32,-0.64,0.58,-2.44,-0.29,-0.72,0.15,-0.25,-0.01,933.73
28.477,-0.32,-0.64,0.58,-2.44,-0.29,-0.72,0.03,-0.15,-0.21,933.73
28.484,-0.32,-0.64,0.58,-1.92,-0.35,-0.01,0.03,-0.15,-0.21,933.73
28.485,-0.35,-0.64,0.52,-1.92,-0.35,-0.01,0.03,-0.15,-0.21,933.73
28.509,-0.35,-0.64,0.52,-1.92,-0.35,-0.01,0.03,-0.15,-0.21,933.74
28.541,-0.35,-0.64,0.52,-1.92,-0.35,-0.01,-0.02,-0.16,0.00,933.74
28.544,-0.57,-0.76,0.50,-1.92,-0.35,-0.01,-0.02,-0.16,0.00,933.74
28.545,-0.57,-0.76,0.50,0.22,0.89,0.16,-0.02,-0.16,0.00,933.74
28.576,-0.57,-0.76,0.50,0.22,0.89,0.16,-0.02,-0.16,0.00,933.74
28.607,-0.57,-0.76,0.50,0.22,0.89,0.16,0.04,-0.10,0.22,933.74
28.608,-0.64,-0.73,0.45,0.22,0.89,0.16,0.04,-0.10,0.22,933.74
28.609,-0.64,-0.73,0.45,0.86,0.67,0.77,0.04,-0.10,0.22,933.74
28.643,-0.64,-0.73,0.45,0.86,0.67,0.77,0.04,-0.10,0.22,933.74
28.666,-0.64,-0.73,0.45,0.86,0.67,0.77,0.23,0.02,0.15,933.74
28.672,-0.64,-0.73,0.45,0.83,-0.09,0.87,0.23,0.02,0.15,933.74
28.673,-0.64,-0.64,0.44,0.83,-0.09,0.87,0.23,0.02,0.15,933.74
28.708,-0.64,-0.64,0.44,0.83,-0.09,0.87,0.23,0.02,0.15,933.74
28.73,-0.64,-0.64,0.44,0.83,-0.09,0.87,0.27,0.16,-0.02,933.74
28.735,-0.64,-0.64,0.44,0.47,0.11,1.02,0.27,0.16,-0.02,933.74
28.736,-0.61,-0.65,0.43,0.47,0.11,1.02,0.27,0.16,-0.02,933.74
28.775,-0.61,-0.65,0.43,0.47,0.11,1.02,0.27,0.16,-0.02,933.74
28.793,-0.61,-0.65,0.43,0.47,0.11,1.02,0.24,0.05,-0.03,933.74
28.798,-0.61,-0.65,0.43,0.56,-0.92,-0.62,0.24,0.05,-0.03,933.74
28.8,-0.62,-0.54,0.61,0.56,-0.92,-0.62,0.24,0.05,-0.03,933.74
28.842,-0.62,-0.54,0.61,0.56,-0.92,-0.62,0.24,0.05,-0.03,933.75
28.863,-0.62,-0.54,0.61,0.56,-0.92,-0.62,0.10,0.15,-0.10,933.75
28.864,-0.62,-0.54,0.61,0.83,0.04,-0.34,0.10,0.15,-0.10,933.75
28.865,-0.65,-0.64,0.58,0.83,0.04,-0.34,0.10,0.15,-0.10,933.75
28.908,-0.65,-0.64,0.58,0.83,0.04,-0.34,0.10,0.15,-0.10,933.75
28.919,-0.65,-0.64,0.58,0.83,0.04,-0.34,-0.11,0.08,0.07,933.75
28.925,-0.65,-0.64,0.58,-0.20,-0.65,-0.29,-0.11,0.08,0.07,933.75
28.926,-0.55,-0.57,0.57,-0.20,-0.65,-0.29,-0.11,0.08,0.07,933.75
28.976,-0.55,-0.57,0.57,-0.20,-0.65,-0.29,-0.11,0.08,0.07,933.76
28.984,-0.55,-0.57,0.57,-0.20,-0.65,-0.29,-0.32,0.01,0.14,933.76
28.989,-0.47,-0.58,0.50,-0.20,-0.65,-0.29,-0.32,0.01,0.14,933.76
28.994,-0.47,-0.58,0.50,-1.07,-0.60,0.24,-0.32,0.01,0.14,933.76
29.042,-0.47,-0.58,0.50,-1.07,-0.60,0.24,-0.32,0.01,0.14,933.76
29.049,-0.47,-0.58,0.50,-1.07,-0.60,0.24,-0.25,0.08,0.21,933.76
29.063,-0.55,-0.63,0.52,-1.07,-0.60,0.24,-0.25,0.08,0.21,933.76
29.064,-0.55,-0.63,0.52,-0.36,-0.10,-0.10,-0.25,0.08,0.21,933.76
29.112,-0.55,-0.63,0.52,-0.36,-0.10,-0.10,-0.25,0.08,0.21,933.76
29.114,-0.55,-0.63,0.52,-0.36,-0.10,-0.10,-0.11,0.13,0.15,933.76
29.115,-0.59,-0.66,0.49,-0.36,-0.10,-0.10,-0.11,0.13,0.15,933.76
29.116,-0.59,-0.66,0.49,-0.06,0.17,0.11,-0.11,0.13,0.15,933.76
29.178,-0.59,-0.66,0.49,-0.06,0.17,0.11,-0.01,0.03,-0.00,933.76
29.18,-0.59,-0.66,0.49,-0.06,0.17,0.11,-0.01,0.03,-0.00,933.76
29.181,-0.59,-0.66,0.49,0.24,0.07,-0.85,-0.01,0.03,-0.00,933.76
29.181,-0.62,-0.65,0.59,0.24,0.07,-0.85,-0.01,0.03,-0.00,933.76
29.237,-0.62,-0.65,0.59,0.24,0.07,-0.85,0.03,0.08,-0.04,933.76
29.241,-0.66,-0.72,0.50,0.24,0.07,-0.85,0.03,0.08,-0.04,933.76
29.242,-0.66,-0.72,0.50,0.59,0.80,-0.01,0.03,0.08,-0.04,933.76
29.243,-0.66,-0.72,0.50,0.59,0.80,-0.01,0.03,0.08,-0.04,933.76
29.299,-0.66,-0.72,0.50,0.59,0.80,-0.01,-0.07,-0.14,0.18,933.76
29.304,-0.45,-0.67,0.75,0.59,0.80,-0.01,-0.07,-0.14,0.18,933.76
29.304,-0.45,-0.67,0.75,-1.51,0.36,-2.40,-0.07,-0.14,0.18,933.76
29.311,-0.45,-0.67,0.75,-1.51,0.36,-2.40,-0.07,-0.14,0.18,933.77
29.363,-0.45,-0.67,0.75,-1.51,0.36,-2.40,0.08,-0.25,0.10,933.77
29.374,-0.61,-0.58,0.63,-1.51,0.36,-2.40,0.08,-0.25,0.10,933.77
29.375,-0.61,-0.58,0.63,0.11,-0.50,-1.17,0.08,-0.25,0.10,933.77
29.375,-0.61,-0.58,0.63,0.11,-0.50,-1.17,0.08,-0.25,0.10,933.77
29.426,-0.61,-0.58,0.63,0.11,-0.50,-1.17,0.20,-0.01,-0.16,933.77
29.43,-0.47,-0.73,0.53,0.11,-0.50,-1.17,0.20,-0.01,-0.16,933.77
29.431,-0.47,-0.73,0.53,-1.17,0.98,-0.04,0.20,-0.01,-0.16,933.77
29.441,-0.47,-0.73,0.53,-1.17,0.98,-0.04,0.20,-0.01,-0.16,933.77
29.491,-0.47,-0.73,0.53,-1.17,0.98,-0.04,0.30,-0.11,-0.17,933.77
29.494,-0.40,-0.77,0.53,-1.17,0.98,-0.04,0.30,-0.11,-0.17,933.77
29.495,-0.40,-0.77,0.53,-1.81,1.41,0.10,0.30,-0.11,-0.17,933.77
29.508,-0.40,-0.77,0.53,-1.81,1.41,0.10,0.30,-0.11,-0.17,933.77
29.553,-0.40,-0.77,0.53,-1.81,1.41,0.10,0.66,-0.15,-0.18,933.77
29.558,-0.38,-0.72,0.55,-1.81,1.41,0.10,0.66,-0.15,-0.18,933.77
29.558,-0.38,-0.72,0.55,-1.78,1.07,0.22,0.66,-0.15,-0.18,933.77
29.577,-0.38,-0.72,0.55,-1.78,1.07,0.22,0.66,-0.15,-0.18,933.77
29.616,-0.38,-0.72,0.55,-1.78,1.07,0.22,0.43,-0.19,-0.47,933.77
29.621,-0.36,-0.52,0.49,-1.78,1.07,0.22,0.43,-0.19,-0.47,933.77
29.622,-0.36,-0.52,0.49,-1.74,-0.91,0.97,0.43,-0.19,-0.47,933.77
29.642,-0.36,-0.52,0.49,-1.74,-0.91,0.97,0.43,-0.19,-0.47,933.77
29.68,-0.36,-0.52,0.49,-1.74,-0.91,0.97,0.45,-0.03,-0.10,933.77
29.69,-0.49,-0.93,0.60,-1.74,-0.91,0.97,0.45,-0.03,-0.10,933.77
29.691,-0.49,-0.93,0.60,-0.45,3.20,0.10,0.45,-0.03,-0.10,933.77
29.711,-0.49,-0.93,0.60,-0.45,3.20,0.10,0.45,-0.03,-0.10,933.77
29.742,-0.49,-0.93,0.60,-0.45,3.20,0.10,-0.15,-0.11,-0.17,933.77
29.748,-0.49,-0.51,0.89,-0.45,3.20,0.10,-0.15,-0.11,-0.17,933.77
29.749,-0.49,-0.51,0.89,-0.38,-1.00,-2.70,-0.15,-0.11,-0.17,933.77
29.775,-0.49,-0.51,0.89,-0.38,-1.00,-2.70,-0.15,-0.11,-0.17,933.79
29.807,-0.49,-0.51,0.89,-0.38,-1.00,-2.70,-0.04,-0.06,-0.58,933.79
29.81,-0.49,-0.51,0.89,-0.24,1.53,-1.37,-0.04,-0.06,-0.58,933.79
29.811,-0.47,-0.79,0.75,-0.24,1.53,-1.37,-0.04,-0.06,-0.58,933.79
29.844,-0.47,-0.79,0.75,-0.24,1.53,-1.37,-0.04,-0.06,-0.58,933.79
29.869,-0.47,-0.79,0.75,-0.24,1.53,-1.37,0.25,-0.35,-0.49,933.79
29.874,-0.21,-0.72,0.77,-0.24,1.53,-1.37,0.25,-0.35,-0.49,933.79
29.875,-0.21,-0.72,0.77,-2.53,0.78,-1.32,0.25,-0.35,-0.49,933.79
29.909,-0.21,-0.72,0.77,-2.53,0.78,-1.32,0.25,-0.35,-0.49,933.79
29.933,-0.21,-0.72,0.77,-2.53,0.78,-1.32,0.54,-0.94,-0.33,933.79
29.938,-0.11,-0.74,0.61,-2.53,0.78,-1.32,0.54,-0.94,-0.33,933.79
29.939,-0.11,-0.74,0.61,-2.94,1.10,0.65,0.54,-0.94,-0.33,933.79
29.98,-0.11,-0.74,0.61,-2.94,1.10,0.65,0.54,-0.94,-0.33,933.79
29.999,-0.11,-0.74,0.61,-2.94,1.10,0.65,0.77,-1.30,-0.55,933.79
30.003,0.00,-0.42,0.80,-2.94,1.10,0.65,0.77,-1.30,-0.55,933.79
30.004,0.00,-0.42,0.80,-3.29,-1.82,-0.59,0.77,-1.30,-0.55,933.79
30.042,0.00,-0.42,0.80,-3.29,-1.82,-0.59,0.77,-1.30,-0.55,933.80
30.058,0.00,-0.42,0.80,-3.29,-1.82,-0.59,0.95,-1.19,-0.82,933.80
30.063,0.08,-0.53,0.60,-3.29,-1.82,-0.59,0.95,-1.19,-0.82,933.80
30.063,0.08,-0.53,0.60,-3.18,-0.38,1.91,0.95,-1.19,-0.82,933.80
30.108,0.08,-0.53,0.60,-3.18,-0.38,1.91,0.95,-1.19,-0.82,933.80
30.122,0.08,-0.53,0.60,-3.18,-0.38,1.91,0.40,-1.20,-1.09,933.80
30.127,0.00,-0.37,0.41,-3.18,-0.38,1.91,0.40,-1.20,-1.09,933.80
30.128,0.00,-0.37,0.41,-1.43,-1.94,4.05,0.40,-1.20,-1.09,933.80
30.175,0.00,-0.37,0.41,-1.43,-1.94,4.05,0.40,-1.20,-1.09,933.84
30.186,0.00,-0.37,0.41,-1.43,-1.94,4.05,-0.51,-1.12,-0.81,933.84
30.195,-0.35,-0.38,0.56,-1.43,-1.94,4.05,-0.51,-1.12,-0.81,933.84
30.196,-0.35,-0.38,0.56,2.89,-2.08,2.46,-0.51,-1.12,-0.81,933.84
30.243,-0.35,-0.38,0.56,2.89,-2.08,2.46,-0.51,-1.12,-0.81,933.84
30.25,-0.35,-0.38,0.56,2.89,-2.08,2.46,-1.23,-1.66,0.26,933.84
30.264,-0.35,-0.38,0.56,3.10,-1.33,0.14,-1.23,-1.66,0.26,933.84
30.266,-0.30,-0.52,0.75,3.10,-1.33,0.14,-1.23,-1.66,0.26,933.84
30.31,-0.30,-0.52,0.75,3.10,-1.33,0.14,-1.23,-1.66,0.26,933.84
30.312,-0.30,-0.52,0.75,3.10,-1.33,0.14,-1.46,-0.90,-0.02,933.84
