time,gFx,gFy,gFz,ax,ay,az,wx,wy,wz,P
0.018,-0.51,0.31,0.79,0.11,0.39,0.14,0.07,0.01,-0.25,949.80
0.019,-0.51,0.31,0.79,0.11,0.39,0.14,0.07,0.01,-0.25,949.80
0.046,-0.53,0.32,0.78,0.11,0.39,0.14,0.07,0.01,-0.25,949.80
0.047,-0.53,0.32,0.78,0.25,0.18,0.22,0.07,0.01,-0.25,949.80
0.056,-0.53,0.32,0.78,0.25,0.18,0.22,0.06,0.05,-0.28,949.80
0.061,-0.53,0.32,0.78,0.25,0.18,0.22,0.06,0.05,-0.28,949.67
0.11,-0.54,0.32,0.78,0.25,0.18,0.22,0.06,0.05,-0.28,949.67
0.11,-0.54,0.32,0.78,0.19,0.09,0.12,0.06,0.05,-0.28,949.67
0.119,-0.54,0.32,0.78,0.19,0.09,0.12,0.03,0.03,-0.26,949.67
0.127,-0.54,0.32,0.78,0.19,0.09,0.12,0.03,0.03,-0.26,949.67
0.173,-0.54,0.32,0.79,0.19,0.09,0.12,0.03,0.03,-0.26,949.67
0.173,-0.54,0.32,0.79,0.17,0.12,0.04,0.03,0.03,-0.26,949.67
0.182,-0.54,0.32,0.79,0.17,0.12,0.04,0.05,-0.05,-0.23,949.67
0.194,-0.54,0.32,0.79,0.17,0.12,0.04,0.05,-0.05,-0.23,949.67
0.236,-0.55,0.32,0.78,0.17,0.12,0.04,0.05,-0.05,-0.23,949.67
0.236,-0.55,0.32,0.78,0.34,-0.02,0.18,0.05,-0.05,-0.23,949.67
0.246,-0.55,0.32,0.78,0.34,-0.02,0.18,0.01,-0.10,-0.18,949.67
0.261,-0.55,0.32,0.78,0.34,-0.02,0.18,0.01,-0.10,-0.18,949.54
0.299,-0.56,0.31,0.78,0.34,-0.02,0.18,0.01,-0.10,-0.18,949.54
0.3,-0.56,0.31,0.78,0.43,0.13,0.25,0.01,-0.10,-0.18,949.54
0.309,-0.56,0.31,0.78,0.43,0.13,0.25,-0.01,-0.07,-0.10,949.54
0.327,-0.56,0.31,0.78,0.43,0.13,0.25,-0.01,-0.07,-0.10,949.54
0.363,-0.54,0.30,0.82,0.43,0.13,0.25,-0.01,-0.07,-0.10,949.54
0.363,-0.54,0.30,0.82,0.25,0.16,-0.14,-0.01,-0.07,-0.10,949.54
0.372,-0.54,0.30,0.82,0.25,0.16,-0.14,0.04,-0.01,-0.10,949.54
0.394,-0.54,0.30,0.82,0.25,0.16,-0.14,0.04,-0.01,-0.10,949.49
0.426,-0.53,0.28,0.78,0.25,0.16,-0.14,0.04,-0.01,-0.10,949.49
0.427,-0.53,0.28,0.78,0.02,0.33,0.18,0.04,-0.01,-0.10,949.49
0.435,-0.53,0.28,0.78,0.02,0.33,0.18,0.05,0.16,-0.23,949.49
0.461,-0.53,0.28,0.78,0.02,0.33,0.18,0.05,0.16,-0.23,949.49
0.489,-0.49,0.25,0.75,0.02,0.33,0.18,0.05,0.16,-0.23,949.49
0.49,-0.49,0.25,0.75,-0.60,0.49,0.34,0.05,0.16,-0.23,949.49
0.499,-0.49,0.25,0.75,-0.60,0.49,0.34,0.03,0.50,-0.44,949.49
0.527,-0.49,0.25,0.75,-0.60,0.49,0.34,0.03,0.50,-0.44,949.44
0.553,-0.57,0.24,0.76,-0.60,0.49,0.34,0.03,0.50,-0.44,949.44
0.553,-0.57,0.24,0.76,-0.38,0.42,-0.05,0.03,0.50,-0.44,949.44
0.562,-0.57,0.24,0.76,-0.38,0.42,-0.05,0.04,0.96,-0.70,949.44
0.594,-0.57,0.24,0.76,-0.38,0.42,-0.05,0.04,0.96,-0.70,949.44
0.616,-0.65,0.07,0.57,-0.38,0.42,-0.05,0.04,0.96,-0.70,949.44
0.616,-0.65,0.07,0.57,-0.52,1.75,1.14,0.04,0.96,-0.70,949.44
0.625,-0.65,0.07,0.57,-0.52,1.75,1.14,0.05,1.97,-0.99,949.44
0.661,-0.65,0.07,0.57,-0.52,1.75,1.14,0.05,1.97,-0.99,949.44
0.679,-0.84,0.08,0.60,-0.52,1.75,1.14,0.05,1.97,-0.99,949.44
0.679,-0.84,0.08,0.60,0.24,1.08,-0.43,0.05,1.97,-0.99,949.44
0.689,-0.84,0.08,0.60,0.24,1.08,-0.43,0.11,2.60,-1.29,949.44
0.727,-0.84,0.08,0.60,0.24,1.08,-0.43,0.11,2.60,-1.29,949.37
0.742,-0.83,0.02,0.52,0.24,1.08,-0.43,0.11,2.60,-1.29,949.37
0.743,-0.83,0.02,0.52,-0.49,1.01,-0.44,0.11,2.60,-1.29,949.37
0.755,-0.83,0.02,0.52,-0.49,1.01,-0.44,0.43,1.17,-1.43,949.37
0.794,-0.83,0.02,0.52,-0.49,1.01,-0.44,0.43,1.17,-1.43,949.37
0.806,-0.85,0.08,0.39,-0.49,1.01,-0.44,0.43,1.17,-1.43,949.37
0.806,-0.85,0.08,0.39,-0.81,-0.29,-0.16,0.43,1.17,-1.43,949.37
0.815,-0.85,0.08,0.39,-0.81,-0.29,-0.16,0.38,1.71,-1.60,949.37
0.861,-0.85,0.08,0.39,-0.81,-0.29,-0.16,0.38,1.71,-1.60,949.30
0.87,-1.12,-0.06,0.06,-0.81,-0.29,-0.16,0.38,1.71,-1.60,949.30
0.87,-1.12,-0.06,0.06,1.78,0.29,2.90,0.38,1.71,-1.60,949.30
0.879,-1.12,-0.06,0.06,1.78,0.29,2.90,-0.13,-0.12,-1.14,949.30
0.928,-1.12,-0.06,0.06,1.78,0.29,2.90,-0.13,-0.12,-1.14,949.30
0.932,-0.96,-0.14,0.21,1.78,0.29,2.90,-0.13,-0.12,-1.14,949.30
0.932,-0.96,-0.14,0.21,0.25,0.57,1.63,-0.13,-0.12,-1.14,949.30
0.942,-0.96,-0.14,0.21,0.25,0.57,1.63,-0.62,-0.23,-0.59,949.30
0.995,-0.96,-0.14,0.21,0.25,0.57,1.63,-0.62,-0.23,-0.59,949.22
0.996,-1.03,-0.15,0.42,0.25,0.57,1.63,-0.62,-0.23,-0.59,949.22
0.996,-1.03,-0.15,0.42,0.93,0.33,-0.59,-0.62,-0.23,-0.59,949.22
1.005,-1.03,-0.15,0.42,0.93,0.33,-0.59,-0.61,0.25,-0.23,949.22
1.059,-0.90,-0.10,0.26,0.93,0.33,-0.59,-0.61,0.25,-0.23,949.22
1.06,-0.90,-0.10,0.26,-0.33,-0.43,0.76,-0.61,0.25,-0.23,949.22
1.061,-0.90,-0.10,0.26,-0.33,-0.43,0.76,-0.61,0.25,-0.23,949.22
1.069,-0.90,-0.10,0.26,-0.33,-0.43,0.76,-0.46,0.13,-0.25,949.22
1.123,-0.96,-0.12,0.32,-0.33,-0.43,0.76,-0.46,0.13,-0.25,949.22
1.123,-0.96,-0.12,0.32,0.33,-0.46,0.36,-0.46,0.13,-0.25,949.22
1.128,-0.96,-0.12,0.32,0.33,-0.46,0.36,-0.46,0.13,-0.25,949.22
1.132,-0.96,-0.12,0.32,0.33,-0.46,0.36,-0.49,-0.12,-0.25,949.22
1.186,-0.91,-0.25,0.19,0.33,-0.46,0.36,-0.49,-0.12,-0.25,949.22
1.186,-0.91,-0.25,0.19,-0.18,0.50,1.48,-0.49,-0.12,-0.25,949.22
1.194,-0.91,-0.25,0.19,-0.18,0.50,1.48,-0.49,-0.12,-0.25,949.18
1.195,-0.91,-0.25,0.19,-0.18,0.50,1.48,-0.61,-0.07,-0.40,949.18
1.249,-0.98,-0.34,0.11,-0.18,0.50,1.48,-0.61,-0.07,-0.40,949.18
1.25,-0.98,-0.34,0.11,0.69,1.01,2.50,-0.61,-0.07,-0.40,949.18
1.26,-0.98,-0.34,0.11,0.69,1.01,2.50,-1.04,-0.65,-0.36,949.18
1.261,-0.98,-0.34,0.11,0.69,1.01,2.50,-1.04,-0.65,-0.36,949.18
1.313,-0.80,-0.48,0.05,0.69,1.01,2.50,-1.04,-0.65,-0.36,949.18
1.313,-0.80,-0.48,0.05,-0.98,1.91,3.02,-1.04,-0.65,-0.36,949.18
1.322,-0.80,-0.48,0.05,-0.98,1.91,3.02,-1.62,-0.14,-0.22,949.18
1.328,-0.80,-0.48,0.05,-0.98,1.91,3.02,-1.62,-0.14,-0.22,949.22
1.376,-0.85,-0.54,0.18,-0.98,1.91,3.02,-1.62,-0.14,-0.22,949.22
1.376,-0.85,-0.54,0.18,-0.51,1.89,1.04,-1.62,-0.14,-0.22,949.22
1.385,-0.85,-0.54,0.18,-0.51,1.89,1.04,-2.23,0.41,-0.44,949.22
1.394,-0.85,-0.54,0.18,-0.51,1.89,1.04,-2.23,0.41,-0.44,949.22
1.439,-0.72,-0.59,0.22,-0.51,1.89,1.04,-2.23,0.41,-0.44,949.22
1.44,-0.72,-0.59,0.22,-1.57,1.62,0.22,-2.23,0.41,-0.44,949.22
1.449,-0.72,-0.59,0.22,-1.57,1.62,0.22,-2.65,-0.38,-0.60,949.22
1.461,-0.72,-0.59,0.22,-1.57,1.62,0.22,-2.65,-0.38,-0.60,949.26
1.503,-0.65,-0.54,0.28,-1.57,1.62,0.22,-2.65,-0.38,-0.60,949.26
1.504,-0.65,-0.54,0.28,-2.02,0.40,-1.07,-2.65,-0.38,-0.60,949.26
1.513,-0.65,-0.54,0.28,-2.02,0.40,-1.07,-2.35,-0.10,-0.84,949.26
1.529,-0.65,-0.54,0.28,-2.02,0.40,-1.07,-2.35,-0.10,-0.84,949.26
1.568,-0.65,-0.54,0.28,-0.93,0.34,-1.17,-2.35,-0.10,-0.84,949.26
1.569,-0.72,-0.61,0.26,-0.93,0.34,-1.17,-2.35,-0.10,-0.84,949.26
1.578,-0.72,-0.61,0.26,-0.93,0.34,-1.17,-1.97,-0.74,-0.95,949.26
1.597,-0.72,-0.61,0.26,-0.93,0.34,-1.17,-1.97,-0.74,-0.95,949.34
1.63,-0.78,-0.75,0.21,-0.93,0.34,-1.17,-1.97,-0.74,-0.95,949.34
1.632,-0.78,-0.75,0.21,0.06,1.12,-0.85,-1.97,-0.74,-0.95,949.34
1.639,-0.78,-0.75,0.21,0.06,1.12,-0.85,-1.86,-1.15,-0.92,949.34
1.662,-0.78,-0.75,0.21,0.06,1.12,-0.85,-1.86,-1.15,-0.92,949.34
1.696,-0.64,-0.75,0.23,0.06,1.12,-0.85,-1.86,-1.15,-0.92,949.34
1.697,-0.64,-0.75,0.23,-0.87,0.61,-1.41,-1.86,-1.15,-0.92,949.34
1.702,-0.64,-0.75,0.23,-0.87,0.61,-1.41,-1.61,-0.34,-0.92,949.34
1.728,-0.64,-0.75,0.23,-0.87,0.61,-1.41,-1.61,-0.34,-0.92,949.34
1.756,-0.70,-0.82,0.25,-0.87,0.61,-1.41,-1.61,-0.34,-0.92,949.34
1.757,-0.70,-0.82,0.25,0.16,0.75,-2.27,-1.61,-0.34,-0.92,949.34
1.766,-0.70,-0.82,0.25,0.16,0.75,-2.27,-1.14,0.22,-1.08,949.34
1.795,-0.70,-0.82,0.25,0.16,0.75,-2.27,-1.14,0.22,-1.08,949.42
1.82,-0.76,-0.93,0.12,0.16,0.75,-2.27,-1.14,0.22,-1.08,949.42
1.821,-0.76,-0.93,0.12,1.13,1.46,-1.19,-1.14,0.22,-1.08,949.42
1.83,-0.76,-0.93,0.12,1.13,1.46,-1.19,-0.65,-0.46,-0.80,949.42
1.861,-0.76,-0.93,0.12,1.13,1.46,-1.19,-0.65,-0.46,-0.80,949.42
1.883,-0.82,-0.92,0.01,1.13,1.46,-1.19,-0.65,-0.46,-0.80,949.42
1.885,-0.82,-0.92,0.01,1.99,1.25,-0.06,-0.65,-0.46,-0.80,949.42
1.892,-0.82,-0.92,0.01,1.99,1.25,-0.06,-0.32,-0.72,-0.35,949.42
1.928,-0.82,-0.92,0.01,1.99,1.25,-0.06,-0.32,-0.72,-0.35,949.47
1.946,-0.86,-0.89,-0.08,1.99,1.25,-0.06,-0.32,-0.72,-0.35,949.47
1.947,-0.86,-0.89,-0.08,2.28,0.93,1.17,-0.32,-0.72,-0.35,949.47
1.962,-0.86,-0.89,-0.08,2.28,0.93,1.17,-0.02,-0.97,0.19,949.47
1.995,-0.86,-0.89,-0.08,2.28,0.93,1.17,-0.02,-0.97,0.19,949.47
2.009,-0.94,-0.83,-0.16,2.28,0.93,1.17,-0.02,-0.97,0.19,949.47
2.01,-0.94,-0.83,-0.16,2.84,0.58,2.25,-0.02,-0.97,0.19,949.47
2.02,-0.94,-0.83,-0.16,2.84,0.58,2.25,-0.15,-1.01,0.58,949.47
2.062,-0.94,-0.83,-0.16,2.84,0.58,2.25,-0.15,-1.01,0.58,949.48
2.074,-0.85,-0.70,-0.04,2.84,0.58,2.25,-0.15,-1.01,0.58,949.48
2.076,-0.85,-0.70,-0.04,1.67,-0.40,1.26,-0.15,-1.01,0.58,949.48
2.082,-0.85,-0.70,-0.04,1.67,-0.40,1.26,-0.12,-0.66,0.80,949.48
2.129,-0.85,-0.70,-0.04,1.67,-0.40,1.26,-0.12,-0.66,0.80,949.48
2.136,-0.03,-0.55,0.32,1.67,-0.40,1.26,-0.12,-0.66,0.80,949.48
2.137,-0.03,-0.55,0.32,-6.31,-1.91,-2.04,-0.12,-0.66,0.80,949.48
2.146,-0.03,-0.55,0.32,-6.31,-1.91,-2.04,0.09,0.16,-0.29,949.48
2.196,-0.03,-0.55,0.32,-6.31,-1.91,-2.04,0.09,0.16,-0.29,949.48
2.2,-0.03,-0.55,0.32,0.89,-0.98,-0.02,0.09,0.16,-0.29,949.48
2.201,-0.76,-0.65,0.06,0.89,-0.98,-0.02,0.09,0.16,-0.29,949.48
2.21,-0.76,-0.65,0.06,0.89,-0.98,-0.02,0.25,1.23,-0.29,949.48
2.27,-0.76,-0.65,0.06,1.61,-0.63,1.90,0.25,1.23,-0.29,949.48
2.272,-0.76,-0.65,0.06,1.61,-0.63,1.90,0.25,1.23,-0.29,949.41
2.273,-0.83,-0.68,-0.09,1.61,-0.63,1.90,0.25,1.23,-0.29,949.41
2.274,-0.83,-0.68,-0.09,1.61,-0.63,1.90,-0.18,-1.89,0.24,949.41
2.327,-0.66,-0.72,0.08,1.61,-0.63,1.90,-0.18,-1.89,0.24,949.41
2.329,-0.66,-0.72,0.08,-0.06,-0.16,0.89,-0.18,-1.89,0.24,949.41
2.33,-0.66,-0.72,0.08,-0.06,-0.16,0.89,-0.18,-1.89,0.24,949.41
2.336,-0.66,-0.72,0.08,-0.06,-0.16,0.89,-0.06,-1.18,0.33,949.41
2.39,-0.62,-0.54,0.12,-0.06,-0.16,0.89,-0.06,-1.18,0.33,949.41
2.392,-0.62,-0.54,0.12,-0.53,-1.84,0.67,-0.06,-1.18,0.33,949.41
2.395,-0.62,-0.54,0.12,-0.53,-1.84,0.67,-0.06,-1.18,0.33,949.41
2.4,-0.62,-0.54,0.12,-0.53,-1.84,0.67,-0.01,-0.26,0.09,949.41
2.456,-0.60,-0.58,0.26,-0.53,-1.84,0.67,-0.01,-0.26,0.09,949.41
2.458,-0.60,-0.58,0.26,-0.67,-1.49,-0.85,-0.01,-0.26,0.09,949.41
2.462,-0.60,-0.58,0.26,-0.67,-1.49,-0.85,-0.01,-0.26,0.09,949.41
2.465,-0.60,-0.58,0.26,-0.67,-1.49,-0.85,-0.07,0.48,-0.14,949.41
2.517,-0.60,-0.58,0.26,-0.63,-0.94,-1.79,-0.07,0.48,-0.14,949.41
2.518,-0.60,-0.65,0.31,-0.63,-0.94,-1.79,-0.07,0.48,-0.14,949.41
2.527,-0.60,-0.65,0.31,-0.63,-0.94,-1.79,0.17,1.30,-0.56,949.41
2.529,-0.60,-0.65,0.31,-0.63,-0.94,-1.79,0.17,1.30,-0.56,949.39
2.58,-0.74,-0.64,0.24,-0.63,-0.94,-1.79,0.17,1.30,-0.56,949.39
2.582,-0.74,-0.64,0.24,0.90,-1.30,-1.61,0.17,1.30,-0.56,949.39
2.589,-0.74,-0.64,0.24,0.90,-1.30,-1.61,0.44,1.66,-0.54,949.39
2.595,-0.74,-0.64,0.24,0.90,-1.30,-1.61,0.44,1.66,-0.54,949.39
2.649,-0.69,-0.62,0.13,0.90,-1.30,-1.61,0.44,1.66,-0.54,949.39
2.651,-0.69,-0.62,0.13,0.62,-1.58,-0.55,0.44,1.66,-0.54,949.39
2.653,-0.69,-0.62,0.13,0.62,-1.58,-0.55,0.76,0.64,-0.26,949.39
2.664,-0.69,-0.62,0.13,0.62,-1.58,-0.55,0.76,0.64,-0.26,949.48
2.707,-0.76,-0.88,0.03,0.62,-1.58,-0.55,0.76,0.64,-0.26,949.48
2.708,-0.76,-0.88,0.03,1.27,0.96,0.66,0.76,0.64,-0.26,949.48
2.715,-0.76,-0.88,0.03,1.27,0.96,0.66,0.44,-0.05,-0.05,949.48
2.731,-0.76,-0.88,0.03,1.27,0.96,0.66,0.44,-0.05,-0.05,949.48
2.77,-0.76,-0.88,0.01,1.27,0.96,0.66,0.44,-0.05,-0.05,949.48
2.772,-0.76,-0.88,0.01,1.45,0.91,1.07,0.44,-0.05,-0.05,949.48
2.779,-0.76,-0.88,0.01,1.45,0.91,1.07,-0.16,-0.76,-0.23,949.48
2.798,-0.76,-0.88,0.01,1.45,0.91,1.07,-0.16,-0.76,-0.23,949.48
2.833,-0.67,-0.75,0.03,1.45,0.91,1.07,-0.16,-0.76,-0.23,949.48
2.834,-0.67,-0.75,0.03,0.70,-0.54,1.07,-0.16,-0.76,-0.23,949.48
2.842,-0.67,-0.75,0.03,0.70,-0.54,1.07,-0.18,-0.66,-0.22,949.48
2.863,-0.67,-0.75,0.03,0.70,-0.54,1.07,-0.18,-0.66,-0.22,949.66
2.896,-0.64,-0.80,0.01,0.70,-0.54,1.07,-0.18,-0.66,-0.22,949.66
2.898,-0.64,-0.80,0.01,0.52,-0.15,1.19,-0.18,-0.66,-0.22,949.66
2.905,-0.64,-0.80,0.01,0.52,-0.15,1.19,-0.22,-0.06,-0.21,949.66
2.931,-0.64,-0.80,0.01,0.52,-0.15,1.19,-0.22,-0.06,-0.21,949.66
2.96,-0.64,-0.81,0.01,0.52,-0.15,1.19,-0.22,-0.06,-0.21,949.66
2.961,-0.64,-0.81,0.01,0.59,-0.11,1.19,-0.22,-0.06,-0.21,949.66
2.969,-0.64,-0.81,0.01,0.59,-0.11,1.19,-0.02,-0.04,-0.20,949.66
2.995,-0.64,-0.81,0.01,0.59,-0.11,1.19,-0.02,-0.04,-0.20,949.80
3.023,-0.82,-0.90,0.03,0.59,-0.11,1.19,-0.02,-0.04,-0.20,949.80
3.024,-0.82,-0.90,0.03,2.44,0.78,1.08,-0.02,-0.04,-0.20,949.80
3.034,-0.82,-0.90,0.03,2.44,0.78,1.08,0.23,-0.03,-0.05,949.80
3.063,-0.82,-0.90,0.03,2.44,0.78,1.08,0.23,-0.03,-0.05,949.80
3.086,-1.29,-0.95,-0.02,2.44,0.78,1.08,0.23,-0.03,-0.05,949.80
3.088,-1.29,-0.95,-0.02,6.74,1.46,1.57,0.23,-0.03,-0.05,949.80
3.095,-1.29,-0.95,-0.02,6.74,1.46,1.57,0.55,0.77,0.69,949.80
3.129,-1.29,-0.95,-0.02,6.74,1.46,1.57,0.55,0.77,0.69,949.87
3.149,-1.51,-1.33,0.13,6.74,1.46,1.57,0.55,0.77,0.69,949.87
3.15,-1.51,-1.33,0.13,8.17,5.86,0.31,0.55,0.77,0.69,949.87
3.162,-1.51,-1.33,0.13,8.17,5.86,0.31,0.99,0.69,1.75,949.87
3.195,-1.51,-1.33,0.13,8.17,5.86,0.31,0.99,0.69,1.75,949.87
3.213,-1.53,-1.64,0.16,8.17,5.86,0.31,0.99,0.69,1.75,949.87
3.214,-1.53,-1.64,0.16,7.19,10.28,0.30,0.99,0.69,1.75,949.87
3.222,-1.53,-1.64,0.16,7.19,10.28,0.30,1.45,0.38,3.07,949.87
3.262,-1.53,-1.64,0.16,7.19,10.28,0.30,1.45,0.38,3.07,949.87
3.276,-1.38,-1.72,0.21,7.19,10.28,0.30,1.45,0.38,3.07,949.87
3.277,-1.38,-1.72,0.21,4.43,13.54,-0.33,1.45,0.38,3.07,949.87
3.285,-1.38,-1.72,0.21,4.43,13.54,-0.33,1.73,1.31,4.47,949.87
3.329,-1.38,-1.72,0.21,4.43,13.54,-0.33,1.73,1.31,4.47,949.93
3.339,-1.03,-1.56,0.29,4.43,13.54,-0.33,1.73,1.31,4.47,949.93
3.339,-1.03,-1.56,0.29,0.30,15.25,-1.69,1.73,1.31,4.47,949.93
3.348,-1.03,-1.56,0.29,0.30,15.25,-1.69,1.63,1.60,5.48,949.93
3.396,-1.03,-1.56,0.29,0.30,15.25,-1.69,1.63,1.60,5.48,949.93
3.402,-0.44,-1.17,0.22,0.30,15.25,-1.69,1.63,1.60,5.48,949.93
3.403,-0.44,-1.17,0.22,-4.85,15.03,-2.18,1.63,1.60,5.48,949.93
3.412,-0.44,-1.17,0.22,-4.85,15.03,-2.18,1.03,1.54,5.97,949.93
3.462,-0.44,-1.17,0.22,-4.85,15.03,-2.18,1.03,1.54,5.97,949.96
3.466,0.29,-0.66,0.24,-4.85,15.03,-2.18,1.03,1.54,5.97,949.96
3.466,0.29,-0.66,0.24,-10.13,13.01,-3.38,1.03,1.54,5.97,949.96
3.477,0.29,-0.66,0.24,-10.13,13.01,-3.38,0.23,1.66,5.45,949.96
3.529,0.29,-0.66,0.24,-10.13,13.01,-3.38,0.23,1.66,5.45,949.96
3.531,0.49,-0.28,0.21,-10.13,13.01,-3.38,0.23,1.66,5.45,949.96
3.532,0.49,-0.28,0.21,-9.86,11.02,-3.50,0.23,1.66,5.45,949.96
3.539,0.49,-0.28,0.21,-9.86,11.02,-3.50,-0.08,0.94,4.16,949.96
3.593,0.90,0.37,0.27,-9.86,11.02,-3.50,-0.08,0.94,4.16,949.96
3.595,0.90,0.37,0.27,-12.19,5.35,-4.22,-0.08,0.94,4.16,949.96
3.597,0.90,0.37,0.27,-12.19,5.35,-4.22,-0.08,0.94,4.16,949.98
3.602,0.90,0.37,0.27,-12.19,5.35,-4.22,-0.03,1.09,2.16,949.98
3.656,0.52,0.91,0.12,-12.19,5.35,-4.22,-0.03,1.09,2.16,949.98
3.658,0.52,0.91,0.12,-8.20,0.18,-2.95,-0.03,1.09,2.16,949.98
3.671,0.52,0.91,0.12,-8.20,0.18,-2.95,-0.03,1.09,2.16,949.98
3.673,0.52,0.91,0.12,-8.20,0.18,-2.95,0.04,0.41,-0.08,949.98
3.72,0.15,1.25,-0.08,-8.20,0.18,-2.95,0.04,0.41,-0.08,949.98
3.722,0.15,1.25,-0.08,-5.17,-3.35,-0.77,0.04,0.41,-0.08,949.98
3.729,0.15,1.25,-0.08,-5.17,-3.35,-0.77,0.04,0.41,-0.08,949.98
3.73,0.15,1.25,-0.08,-5.17,-3.35,-0.77,-0.23,-0.78,-0.95,949.98
3.783,-0.30,1.24,-0.24,-5.17,-3.35,-0.77,-0.23,-0.78,-0.95,949.98
3.784,-0.30,1.24,-0.24,-1.47,-3.46,1.34,-0.23,-0.78,-0.95,949.98
3.791,-0.30,1.24,-0.24,-1.47,-3.46,1.34,-0.63,-1.10,-1.22,949.98
3.795,-0.30,1.24,-0.24,-1.47,-3.46,1.34,-0.63,-1.10,-1.22,949.95
3.846,-0.54,1.11,-0.25,-1.47,-3.46,1.34,-0.63,-1.10,-1.22,949.95
3.847,-0.54,1.11,-0.25,0.17,-2.48,2.30,-0.63,-1.10,-1.22,949.95
3.855,-0.54,1.11,-0.25,0.17,-2.48,2.30,-1.00,-1.01,-1.11,949.95
3.862,-0.54,1.11,-0.25,0.17,-2.48,2.30,-1.00,-1.01,-1.11,949.95
3.909,-0.83,0.92,-0.13,0.17,-2.48,2.30,-1.00,-1.01,-1.11,949.95
3.911,-0.83,0.92,-0.13,2.56,-1.01,1.94,-1.00,-1.01,-1.11,949.95
3.919,-0.83,0.92,-0.13,2.56,-1.01,1.94,-1.06,-0.89,-0.98,949.95
3.929,-0.83,0.92,-0.13,2.56,-1.01,1.94,-1.06,-0.89,-0.98,949.87
3.973,-0.88,0.86,-0.06,2.56,-1.01,1.94,-1.06,-0.89,-0.98,949.87
3.975,-0.88,0.86,-0.06,2.67,-0.72,1.83,-1.06,-0.89,-0.98,949.87
3.982,-0.88,0.86,-0.06,2.67,-0.72,1.83,-0.75,-0.37,-0.57,949.87
3.995,-0.88,0.86,-0.06,2.67,-0.72,1.83,-0.75,-0.37,-0.57,949.87
4.036,-0.87,0.80,0.13,2.67,-0.72,1.83,-0.75,-0.37,-0.57,949.87
4.037,-0.87,0.80,0.13,2.57,-0.26,0.25,-0.75,-0.37,-0.57,949.87
4.045,-0.87,0.80,0.13,2.57,-0.26,0.25,-0.34,-0.01,-0.05,949.87
4.062,-0.87,0.80,0.13,2.57,-0.26,0.25,-0.34,-0.01,-0.05,949.82
4.1,-0.82,0.80,0.11,2.57,-0.26,0.25,-0.34,-0.01,-0.05,949.82
4.101,-0.82,0.80,0.11,2.16,-0.13,0.28,-0.34,-0.01,-0.05,949.82
4.108,-0.82,0.80,0.11,2.16,-0.13,0.28,0.10,0.64,0.46,949.82
4.136,-0.82,0.80,0.11,2.16,-0.13,0.28,0.10,0.64,0.46,949.82
4.162,-0.75,0.79,0.03,2.16,-0.13,0.28,0.10,0.64,0.46,949.82
4.164,-0.75,0.79,0.03,1.82,0.32,0.71,0.10,0.64,0.46,949.82
4.171,-0.75,0.79,0.03,1.82,0.32,0.71,0.15,0.74,0.89,949.82
4.195,-0.75,0.79,0.03,1.82,0.32,0.71,0.15,0.74,0.89,949.78
4.225,-0.60,0.78,-0.05,1.82,0.32,0.71,0.15,0.74,0.89,949.78
4.227,-0.60,0.78,-0.05,0.82,0.73,1.18,0.15,0.74,0.89,949.78
4.235,-0.60,0.78,-0.05,0.82,0.73,1.18,0.21,0.52,0.96,949.78
4.262,-0.60,0.78,-0.05,0.82,0.73,1.18,0.21,0.52,0.96,949.78
4.289,-0.54,0.83,-0.10,0.82,0.73,1.18,0.21,0.52,0.96,949.78
4.29,-0.54,0.83,-0.10,0.78,0.52,1.39,0.21,0.52,0.96,949.78
4.3,-0.54,0.83,-0.10,0.78,0.52,1.39,-0.00,0.96,1.18,949.78
4.329,-0.54,0.83,-0.10,0.78,0.52,1.39,-0.00,0.96,1.18,949.78
4.352,-0.42,0.93,-0.05,0.78,0.52,1.39,-0.00,0.96,1.18,949.78
4.353,-0.42,0.93,-0.05,0.30,-0.11,0.57,-0.00,0.96,1.18,949.78
4.361,-0.42,0.93,-0.05,0.30,-0.11,0.57,0.05,0.88,1.24,949.78
4.396,-0.42,0.93,-0.05,0.30,-0.11,0.57,0.05,0.88,1.24,949.82
4.416,-0.29,0.93,-0.10,0.30,-0.11,0.57,0.05,0.88,1.24,949.82
4.418,-0.29,0.93,-0.10,-0.17,0.17,0.91,0.05,0.88,1.24,949.82
4.425,-0.29,0.93,-0.10,-0.17,0.17,0.91,0.15,0.50,1.33,949.82
4.463,-0.29,0.93,-0.10,-0.17,0.17,0.91,0.15,0.50,1.33,949.82
4.478,-0.29,0.97,-0.09,-0.17,0.17,0.91,0.15,0.50,1.33,949.82
4.479,-0.29,0.97,-0.09,0.59,-0.04,0.59,0.15,0.50,1.33,949.82
4.489,-0.29,0.97,-0.09,0.59,-0.04,0.59,0.18,0.83,1.26,949.82
4.529,-0.29,0.97,-0.09,0.59,-0.04,0.59,0.18,0.83,1.26,949.86
4.542,-0.11,0.97,-0.12,0.59,-0.04,0.59,0.18,0.83,1.26,949.86
4.543,-0.11,0.97,-0.12,-0.51,0.14,0.61,0.18,0.83,1.26,949.86
4.552,-0.11,0.97,-0.12,-0.51,0.14,0.61,0.50,0.51,0.87,949.86
4.596,-0.11,0.97,-0.12,-0.51,0.14,0.61,0.50,0.51,0.87,949.86
4.605,-0.04,1.17,-0.17,-0.51,0.14,0.61,0.50,0.51,0.87,949.86
4.606,-0.04,1.17,-0.17,-0.83,-1.81,0.62,0.50,0.51,0.87,949.86
4.615,-0.04,1.17,-0.17,-0.83,-1.81,0.62,0.74,0.92,0.48,949.86
4.664,-0.04,1.17,-0.17,-0.83,-1.81,0.62,0.74,0.92,0.48,949.84
4.668,0.04,1.52,-0.40,-0.83,-1.81,0.62,0.74,0.92,0.48,949.84
4.669,0.04,1.52,-0.40,-1.38,-5.35,2.09,0.74,0.92,0.48,949.84
4.678,0.04,1.52,-0.40,-1.38,-5.35,2.09,1.26,0.77,0.25,949.84
4.728,0.04,1.52,-0.40,-1.38,-5.35,2.09,1.26,0.77,0.25,949.84
4.731,0.09,2.06,-0.82,-1.38,-5.35,2.09,1.26,0.77,0.25,949.84
4.732,0.09,2.06,-0.82,-1.42,-10.87,5.05,1.26,0.77,0.25,949.84
4.741,0.09,2.06,-0.82,-1.42,-10.87,5.05,1.92,0.45,0.86,949.84
4.798,0.45,2.14,-1.10,-1.42,-10.87,5.05,1.92,0.45,0.86,949.84
4.8,0.45,2.14,-1.10,-4.13,-12.04,6.99,1.92,0.45,0.86,949.84
4.801,0.45,2.14,-1.10,-4.13,-12.04,6.99,1.92,0.45,0.86,949.84
4.805,0.45,2.14,-1.10,-4.13,-12.04,6.99,1.05,-0.45,1.38,949.84
4.858,1.10,0.57,-0.83,-4.13,-12.04,6.99,1.05,-0.45,1.38,949.84
4.859,1.10,0.57,-0.83,-10.83,3.67,5.14,1.05,-0.45,1.38,949.84
4.862,1.10,0.57,-0.83,-10.83,3.67,5.14,1.05,-0.45,1.38,949.91
4.868,1.10,0.57,-0.83,-10.83,3.67,5.14,-2.11,-1.18,-0.86,949.91
4.921,1.55,-1.35,0.59,-10.83,3.67,5.14,-2.11,-1.18,-0.86,949.91
4.922,1.55,-1.35,0.59,-17.26,22.70,-6.91,-2.11,-1.18,-0.86,949.91
4.932,1.55,-1.35,0.59,-17.26,22.70,-6.91,-2.11,-1.18,-0.86,949.91
4.932,1.55,-1.35,0.59,-17.26,22.70,-6.91,-2.98,-1.10,-3.80,949.91
4.985,0.44,-1.82,0.56,-17.26,22.70,-6.91,-2.98,-1.10,-3.80,949.91
4.986,0.44,-1.82,0.56,-9.53,26.18,-5.57,-2.98,-1.10,-3.80,949.91
4.994,0.44,-1.82,0.56,-9.53,26.18,-5.57,-1.58,0.65,-5.56,949.91
4.995,0.44,-1.82,0.56,-9.53,26.18,-5.57,-1.58,0.65,-5.56,949.79
5.048,-0.30,-1.39,0.51,-9.53,26.18,-5.57,-1.58,0.65,-5.56,949.79
5.049,-0.30,-1.39,0.51,-4.69,19.81,-4.83,-1.58,0.65,-5.56,949.79
5.058,-0.30,-1.39,0.51,-4.69,19.81,-4.83,-0.47,0.08,-4.80,949.79
5.061,-0.30,-1.39,0.51,-4.69,19.81,-4.83,-0.47,0.08,-4.80,949.79
5.112,-1.11,-0.97,0.27,-4.69,19.81,-4.83,-0.47,0.08,-4.80,949.79
5.112,-1.11,-0.97,0.27,2.08,13.81,-2.24,-0.47,0.08,-4.80,949.79
5.121,-1.11,-0.97,0.27,2.08,13.81,-2.24,0.24,-0.46,-3.29,949.79
5.128,-1.11,-0.97,0.27,2.08,13.81,-2.24,0.24,-0.46,-3.29,949.64
5.175,-1.66,-0.36,0.10,2.08,13.81,-2.24,0.24,-0.46,-3.29,949.64
5.175,-1.66,-0.36,0.10,6.84,6.44,-0.99,0.24,-0.46,-3.29,949.64
5.184,-1.66,-0.36,0.10,6.84,6.44,-0.99,0.99,0.61,-2.32,949.64
5.195,-1.66,-0.36,0.10,6.84,6.44,-0.99,0.99,0.61,-2.32,949.64
5.238,-2.45,0.01,-0.45,6.84,6.44,-0.99,0.99,0.61,-2.32,949.64
5.239,-2.45,0.01,-0.45,14.31,1.32,4.91,0.99,0.61,-2.32,949.64
5.248,-2.45,0.01,-0.45,14.31,1.32,4.91,1.25,-1.98,-2.52,949.64
5.261,-2.45,0.01,-0.45,14.31,1.32,4.91,1.25,-1.98,-2.52,949.64
5.302,-2.45,-0.17,-0.21,14.31,1.32,4.91,1.25,-1.98,-2.52,949.64
5.302,-2.45,-0.17,-0.21,14.24,1.25,3.01,1.25,-1.98,-2.52,949.64
5.311,-2.45,-0.17,-0.21,14.24,1.25,3.01,0.43,-0.39,-3.24,949.64
5.328,-2.45,-0.17,-0.21,14.24,1.25,3.01,0.43,-0.39,-3.24,949.53
5.365,-1.81,-0.94,0.24,14.24,1.25,3.01,0.43,-0.39,-3.24,949.53
5.365,-1.81,-0.94,0.24,8.72,5.86,-0.31,0.43,-0.39,-3.24,949.53
5.374,-1.81,-0.94,0.24,8.72,5.86,-0.31,-1.31,-2.20,-5.28,949.53
5.395,-1.81,-0.94,0.24,8.72,5.86,-0.31,-1.31,-2.20,-5.28,949.53
5.428,-1.21,-1.04,0.19,8.72,5.86,-0.31,-1.31,-2.20,-5.28,949.53
5.429,-1.21,-1.04,0.19,4.37,3.86,-0.35,-1.31,-2.20,-5.28,949.53
5.438,-1.21,-1.04,0.19,4.37,3.86,-0.35,-3.40,-0.12,-4.44,949.53
5.462,-1.21,-1.04,0.19,4.37,3.86,-0.35,-3.40,-0.12,-4.44,949.41
5.491,-0.68,-0.77,-0.15,4.37,3.86,-0.35,-3.40,-0.12,-4.44,949.41
5.492,-0.68,-0.77,-0.15,0.83,-0.40,2.23,-3.40,-0.12,-4.44,949.41
5.501,-0.68,-0.77,-0.15,0.83,-0.40,2.23,-3.70,-4.08,-3.38,949.41
5.529,-0.68,-0.77,-0.15,0.83,-0.40,2.23,-3.70,-4.08,-3.38,949.41
5.555,-0.35,-0.48,-0.26,0.83,-0.40,2.23,-3.70,-4.08,-3.38,949.41
5.555,-0.35,-0.48,-0.26,-0.67,-4.33,2.98,-3.70,-4.08,-3.38,949.41
5.564,-0.35,-0.48,-0.26,-0.67,-4.33,2.98,-3.14,-4.72,-2.67,949.41
5.595,-0.35,-0.48,-0.26,-0.67,-4.33,2.98,-3.14,-4.72,-2.67,949.36
5.618,-0.92,-1.19,0.07,-0.67,-4.33,2.98,-3.14,-4.72,-2.67,949.36
5.618,-0.92,-1.19,0.07,5.62,2.37,-0.86,-3.14,-4.72,-2.67,949.36
5.628,-0.92,-1.19,0.07,5.62,2.37,-0.86,-2.19,-2.96,-0.53,949.36
5.663,-0.92,-1.19,0.07,5.62,2.37,-0.86,-2.19,-2.96,-0.53,949.36
5.682,-1.10,-0.89,0.58,5.62,2.37,-0.86,-2.19,-2.96,-0.53,949.36
5.682,-1.10,-0.89,0.58,6.96,-0.36,-6.42,-2.19,-2.96,-0.53,949.36
5.691,-1.10,-0.89,0.58,6.96,-0.36,-6.42,-1.23,-1.09,0.77,949.36
5.729,-1.10,-0.89,0.58,6.96,-0.36,-6.42,-1.23,-1.09,0.77,949.50
5.744,-0.97,-0.73,0.69,6.96,-0.36,-6.42,-1.23,-1.09,0.77,949.50
5.745,-0.97,-0.73,0.69,4.49,-1.38,-6.31,-1.23,-1.09,0.77,949.50
5.754,-0.97,-0.73,0.69,4.49,-1.38,-6.31,0.67,-4.24,2.48,949.50
5.795,-0.97,-0.73,0.69,4.49,-1.38,-6.31,0.67,-4.24,2.48,949.50
5.808,-0.74,-0.21,1.12,4.49,-1.38,-6.31,0.67,-4.24,2.48,949.50
5.808,-0.74,-0.21,1.12,0.12,-4.50,-9.00,0.67,-4.24,2.48,949.50
5.818,-0.74,-0.21,1.12,0.12,-4.50,-9.00,3.51,0.32,4.85,949.50
5.862,-0.74,-0.21,1.12,0.12,-4.50,-9.00,3.51,0.32,4.85,949.50
5.871,-0.69,-0.79,0.96,0.12,-4.50,-9.00,3.51,0.32,4.85,949.50
5.872,-0.69,-0.79,0.96,-2.36,4.96,-6.89,3.51,0.32,4.85,949.50
5.881,-0.69,-0.79,0.96,-2.36,4.96,-6.89,4.79,1.80,6.19,949.50
5.929,-0.69,-0.79,0.96,-2.36,4.96,-6.89,4.79,1.80,6.19,949.71
5.935,-1.21,-0.30,0.91,-2.36,4.96,-6.89,4.79,1.80,6.19,949.71
5.935,-1.21,-0.30,0.91,2.25,3.89,-6.78,4.79,1.80,6.19,949.71
5.945,-1.21,-0.30,0.91,2.25,3.89,-6.78,4.11,0.73,4.37,949.71
5.995,-1.21,-0.30,0.91,2.25,3.89,-6.78,4.11,0.73,4.37,949.71
5.998,-1.17,-0.37,0.38,2.25,3.89,-6.78,4.11,0.73,4.37,949.71
5.998,-1.17,-0.37,0.38,1.89,5.69,-2.69,4.11,0.73,4.37,949.71
6.008,-1.17,-0.37,0.38,1.89,5.69,-2.69,2.58,1.25,0.47,949.71
6.062,-0.41,-0.87,-0.35,1.89,5.69,-2.69,2.58,1.25,0.47,949.71
6.062,-0.41,-0.87,-0.35,-5.68,8.96,5.13,2.58,1.25,0.47,949.71
6.062,-0.41,-0.87,-0.35,-5.68,8.96,5.13,2.58,1.25,0.47,949.58
6.071,-0.41,-0.87,-0.35,-5.68,8.96,5.13,1.04,-1.85,-3.68,949.58
6.125,0.73,-0.82,-0.73,-5.68,8.96,5.13,1.04,-1.85,-3.68,949.58
6.128,0.73,-0.82,-0.73,-16.31,4.92,9.22,1.04,-1.85,-3.68,949.58
6.129,0.73,-0.82,-0.73,-16.31,4.92,9.22,1.04,-1.85,-3.68,949.58
6.135,0.73,-0.82,-0.73,-16.31,4.92,9.22,-1.83,-0.47,-5.95,949.58
6.189,0.73,-0.82,-0.73,-8.65,8.35,6.00,-1.83,-0.47,-5.95,949.58
6.192,0.14,-1.52,-0.46,-8.65,8.35,6.00,-1.83,-0.47,-5.95,949.58
6.196,0.14,-1.52,-0.46,-8.65,8.35,6.00,-1.83,-0.47,-5.95,949.44
6.198,0.14,-1.52,-0.46,-8.65,8.35,6.00,-3.33,-0.67,-5.51,949.44
6.253,-0.89,-1.23,-0.29,-8.65,8.35,6.00,-3.33,-0.67,-5.51,949.44
6.255,-0.89,-1.23,-0.29,3.44,3.67,3.34,-3.33,-0.67,-5.51,949.44
6.261,-0.89,-1.23,-0.29,3.44,3.67,3.34,-2.24,-1.22,-3.80,949.44
6.262,-0.89,-1.23,-0.29,3.44,3.67,3.34,-2.24,-1.22,-3.80,949.44
6.315,-0.89,-1.03,0.12,3.44,3.67,3.34,-2.24,-1.22,-3.80,949.44
6.316,-0.89,-1.03,0.12,4.98,0.93,-1.30,-2.24,-1.22,-3.80,949.44
6.324,-0.89,-1.03,0.12,4.98,0.93,-1.30,-2.40,-2.26,-2.53,949.44
6.328,-0.89,-1.03,0.12,4.98,0.93,-1.30,-2.40,-2.26,-2.53,949.44
6.378,-1.60,-0.99,0.43,4.98,0.93,-1.30,-2.40,-2.26,-2.53,949.44
6.378,-1.60,-0.99,0.43,12.59,0.39,-4.97,-2.40,-2.26,-2.53,949.44
6.388,-1.60,-0.99,0.43,12.59,0.39,-4.97,-1.83,-3.72,-0.67,949.44
6.395,-1.60,-0.99,0.43,12.59,0.39,-4.97,-1.83,-3.72,-0.67,949.41
6.441,-2.09,-0.37,1.24,12.59,0.39,-4.97,-1.83,-3.72,-0.67,949.41
6.442,-2.09,-0.37,1.24,15.96,-5.14,-11.71,-1.83,-3.72,-0.67,949.41
6.451,-2.09,-0.37,1.24,15.96,-5.14,-11.71,1.95,-2.34,3.21,949.41
6.462,-2.09,-0.37,1.24,15.96,-5.14,-11.71,1.95,-2.34,3.21,949.41
6.505,-1.60,-0.69,1.25,15.96,-5.14,-11.71,1.95,-2.34,3.21,949.41
6.505,-1.60,-0.69,1.25,8.34,0.41,-10.29,1.95,-2.34,3.21,949.41
6.514,-1.60,-0.69,1.25,8.34,0.41,-10.29,3.83,1.37,6.02,949.41
6.529,-1.60,-0.69,1.25,8.34,0.41,-10.29,3.83,1.37,6.02,949.71
6.568,-2.15,-1.62,1.29,8.34,0.41,-10.29,3.83,1.37,6.02,949.71
6.568,-2.15,-1.62,1.29,11.42,13.72,-11.82,3.83,1.37,6.02,949.71
6.577,-2.15,-1.62,1.29,11.42,13.72,-11.82,3.07,3.60,7.14,949.71
6.595,-2.15,-1.62,1.29,11.42,13.72,-11.82,3.07,3.60,7.14,949.71
6.631,-0.98,-1.13,0.97,11.42,13.72,-11.82,3.07,3.60,7.14,949.71
6.632,-0.98,-1.13,0.97,-0.22,11.19,-8.63,3.07,3.60,7.14,949.71
6.641,-0.98,-1.13,0.97,-0.22,11.19,-8.63,2.42,-0.31,1.66,949.71
6.662,-0.98,-1.13,0.97,-0.22,11.19,-8.63,2.42,-0.31,1.66,949.64
6.694,-0.23,-1.21,-0.29,-0.22,11.19,-8.63,2.42,-0.31,1.66,949.64
6.695,-0.23,-1.21,-0.29,-7.39,10.44,4.40,2.42,-0.31,1.66,949.64
6.704,-0.23,-1.21,-0.29,-7.39,10.44,4.40,2.33,-1.43,-3.15,949.64
6.729,-0.23,-1.21,-0.29,-7.39,10.44,4.40,2.33,-1.43,-3.15,949.64
6.758,0.94,-0.72,-0.69,-7.39,10.44,4.40,2.33,-1.43,-3.15,949.64
6.758,0.94,-0.72,-0.69,-17.90,3.45,9.88,2.33,-1.43,-3.15,949.64
6.767,0.94,-0.72,-0.69,-17.90,3.45,9.88,0.15,-2.03,-3.98,949.64
6.796,0.94,-0.72,-0.69,-17.90,3.45,9.88,0.15,-2.03,-3.98,949.47
6.821,0.18,-0.95,-0.49,-17.90,3.45,9.88,0.15,-2.03,-3.98,949.47
6.822,0.18,-0.95,-0.49,-8.91,3.02,7.58,0.15,-2.03,-3.98,949.47
6.83,0.18,-0.95,-0.49,-8.91,3.02,7.58,-1.38,0.22,-5.15,949.47
6.862,0.18,-0.95,-0.49,-8.91,3.02,7.58,-1.38,0.22,-5.15,949.47
6.884,-0.73,-1.00,-0.69,-8.91,3.02,7.58,-1.38,0.22,-5.15,949.47
6.885,-0.73,-1.00,-0.69,2.13,1.51,8.60,-1.38,0.22,-5.15,949.47
6.894,-0.73,-1.00,-0.69,2.13,1.51,8.60,-2.16,-0.71,-4.17,949.47
6.93,-0.73,-1.00,-0.69,2.13,1.51,8.60,-2.16,-0.71,-4.17,949.47
6.948,-1.31,-0.84,-0.36,2.13,1.51,8.60,-2.16,-0.71,-4.17,949.47
6.948,-1.31,-0.84,-0.36,9.50,-0.99,4.70,-2.16,-0.71,-4.17,949.47
6.957,-1.31,-0.84,-0.36,9.50,-0.99,4.70,-2.86,-4.08,-2.03,949.47
6.995,-1.31,-0.84,-0.36,9.50,-0.99,4.70,-2.86,-4.08,-2.03,949.50
7.011,-2.00,-1.00,1.10,9.50,-0.99,4.70,-2.86,-4.08,-2.03,949.50
7.012,-2.00,-1.00,1.10,15.99,0.63,-10.14,-2.86,-4.08,-2.03,949.50
7.021,-2.00,-1.00,1.10,15.99,0.63,-10.14,-1.05,-2.24,1.69,949.50
7.062,-2.00,-1.00,1.10,15.99,0.63,-10.14,-1.05,-2.24,1.69,949.50
7.074,-1.24,-0.19,1.51,15.99,0.63,-10.14,-1.05,-2.24,1.69,949.50
7.075,-1.24,-0.19,1.51,6.58,-6.00,-12.67,-1.05,-2.24,1.69,949.50
7.084,-1.24,-0.19,1.51,6.58,-6.00,-12.67,2.73,-0.90,4.43,949.50
7.129,-1.24,-0.19,1.51,6.58,-6.00,-12.67,2.73,-0.90,4.43,949.83
7.138,-0.65,-0.75,1.22,6.58,-6.00,-12.67,2.73,-0.90,4.43,949.83
7.139,-0.65,-0.75,1.22,-1.37,2.60,-8.02,2.73,-0.90,4.43,949.83
7.147,-0.65,-0.75,1.22,-1.37,2.60,-8.02,4.47,-0.14,5.52,949.83
7.196,-0.65,-0.75,1.22,-1.37,2.60,-8.02,4.47,-0.14,5.52,949.83
7.201,-1.25,-1.03,1.20,-1.37,2.60,-8.02,4.47,-0.14,5.52,949.83
7.202,-1.25,-1.03,1.20,3.15,9.25,-8.07,4.47,-0.14,5.52,949.83
7.21,-1.25,-1.03,1.20,3.15,9.25,-8.07,4.06,1.80,4.43,949.83
7.262,-1.25,-1.03,1.20,3.15,9.25,-8.07,4.06,1.80,4.43,949.93
7.264,-0.79,-1.06,0.85,3.15,9.25,-8.07,4.06,1.80,4.43,949.93
7.264,-0.79,-1.06,0.85,-1.54,9.95,-4.97,4.06,1.80,4.43,949.93
7.274,-0.79,-1.06,0.85,-1.54,9.95,-4.97,1.98,0.55,-1.56,949.93
7.328,-0.58,-1.35,-1.02,-1.54,9.95,-4.97,1.98,0.55,-1.56,949.93
7.329,-0.58,-1.35,-1.02,-2.59,10.44,14.70,1.98,0.55,-1.56,949.93
7.329,-0.58,-1.35,-1.02,-2.59,10.44,14.70,1.98,0.55,-1.56,949.93
7.337,-0.58,-1.35,-1.02,-2.59,10.44,14.70,-0.37,-4.13,-4.81,949.93
7.391,-0.30,-0.73,-0.17,-2.59,10.44,14.70,-0.37,-4.13,-4.81,949.93
7.392,-0.30,-0.73,-0.17,-3.72,1.18,5.96,-0.37,-4.13,-4.81,949.93
7.395,-0.30,-0.73,-0.17,-3.72,1.18,5.96,-0.37,-4.13,-4.81,949.93
7.4,-0.30,-0.73,-0.17,-3.72,1.18,5.96,-3.84,0.19,-4.16,949.93
7.454,-1.15,-1.04,-0.02,-3.72,1.18,5.96,-3.84,0.19,-4.16,949.93
7.455,-1.15,-1.04,-0.02,6.68,2.07,3.49,-3.84,0.19,-4.16,949.93
7.462,-1.15,-1.04,-0.02,6.68,2.07,3.49,-3.84,0.19,-4.16,949.63
7.464,-1.15,-1.04,-0.02,6.68,2.07,3.49,-3.17,-1.69,-3.32,949.63
7.518,-1.43,-0.58,0.42,6.68,2.07,3.49,-3.17,-1.69,-3.32,949.63
7.518,-1.43,-0.58,0.42,10.14,-3.16,-2.02,-3.17,-1.69,-3.32,949.63
7.527,-1.43,-0.58,0.42,10.14,-3.16,-2.02,-2.17,-0.73,-0.58,949.63
7.529,-1.43,-0.58,0.42,10.14,-3.16,-2.02,-2.17,-0.73,-0.58,949.63
7.581,-1.42,-0.34,0.98,10.14,-3.16,-2.02,-2.17,-0.73,-0.58,949.63
7.582,-1.42,-0.34,0.98,9.32,-5.13,-7.40,-2.17,-0.73,-0.58,949.63
7.591,-1.42,-0.34,0.98,9.32,-5.13,-7.40,0.17,-1.34,2.18,949.63
7.596,-1.42,-0.34,0.98,9.32,-5.13,-7.40,0.17,-1.34,2.18,949.68
7.644,-0.41,-0.00,1.09,9.32,-5.13,-7.40,0.17,-1.34,2.18,949.68
7.645,-0.41,-0.00,1.09,-1.89,-7.11,-7.16,0.17,-1.34,2.18,949.68
7.654,-0.41,-0.00,1.09,-1.89,-7.11,-7.16,2.34,-0.21,3.28,949.68
7.662,-0.41,-0.00,1.09,-1.89,-7.11,-7.16,2.34,-0.21,3.28,949.68
7.708,-0.17,-0.37,1.07,-1.89,-7.11,-7.16,2.34,-0.21,3.28,949.68
7.708,-0.17,-0.37,1.07,-5.77,-1.06,-5.95,2.34,-0.21,3.28,949.68
7.717,-0.17,-0.37,1.07,-5.77,-1.06,-5.95,3.68,0.36,3.62,949.68
7.729,-0.17,-0.37,1.07,-5.77,-1.06,-5.95,3.68,0.36,3.62,949.91
7.772,-0.43,-0.67,0.92,-5.77,-1.06,-5.95,3.68,0.36,3.62,949.91
7.773,-0.43,-0.67,0.92,-4.56,5.12,-4.61,3.68,0.36,3.62,949.91
7.781,-0.43,-0.67,0.92,-4.56,5.12,-4.61,4.57,2.10,3.95,949.91
7.796,-0.43,-0.67,0.92,-4.56,5.12,-4.61,4.57,2.10,3.95,949.91
7.835,-0.77,-1.13,0.92,-4.56,5.12,-4.61,4.57,2.10,3.95,949.91
7.836,-0.77,-1.13,0.92,-1.67,11.54,-5.46,4.57,2.10,3.95,949.91
7.844,-0.77,-1.13,0.92,-1.67,11.54,-5.46,3.67,1.50,0.37,949.91
7.863,-0.77,-1.13,0.92,-1.67,11.54,-5.46,3.67,1.50,0.37,949.91
7.898,-1.44,-1.50,-0.33,-1.67,11.54,-5.46,3.67,1.50,0.37,949.91
7.9,-1.44,-1.50,-0.33,5.10,13.05,6.83,3.67,1.50,0.37,949.91
7.908,-1.44,-1.50,-0.33,5.10,13.05,6.83,0.66,-1.47,-5.15,949.91
7.93,-1.44,-1.50,-0.33,5.10,13.05,6.83,0.66,-1.47,-5.15,949.80
7.963,-1.02,-1.04,-0.53,5.10,13.05,6.83,0.66,-1.47,-5.15,949.80
7.964,-1.02,-1.04,-0.53,3.02,5.02,9.98,0.66,-1.47,-5.15,949.80
7.977,-1.02,-1.04,-0.53,3.02,5.02,9.98,-3.46,-2.95,-4.66,949.80
7.996,-1.02,-1.04,-0.53,3.02,5.02,9.98,-3.46,-2.95,-4.66,949.80
8.025,-1.11,-0.94,-0.11,3.02,5.02,9.98,-3.46,-2.95,-4.66,949.80
8.026,-1.11,-0.94,-0.11,5.38,1.66,4.25,-3.46,-2.95,-4.66,949.80
8.034,-1.11,-0.94,-0.11,5.38,1.66,4.25,-3.31,0.64,-3.84,949.80
8.063,-1.11,-0.94,-0.11,5.38,1.66,4.25,-3.31,0.64,-3.84,949.58
8.089,-1.31,-0.44,-0.05,5.38,1.66,4.25,-3.31,0.64,-3.84,949.58
8.09,-1.31,-0.44,-0.05,8.55,-4.28,2.79,-3.31,0.64,-3.84,949.58
8.098,-1.31,-0.44,-0.05,8.55,-4.28,2.79,-2.66,-1.79,-1.02,949.58
8.132,-1.31,-0.44,-0.05,8.55,-4.28,2.79,-2.66,-1.79,-1.02,949.58
8.151,-1.43,-0.54,0.72,8.55,-4.28,2.79,-2.66,-1.79,-1.02,949.58
8.152,-1.43,-0.54,0.72,9.21,-3.25,-5.78,-2.66,-1.79,-1.02,949.58
8.161,-1.43,-0.54,0.72,9.21,-3.25,-5.78,-1.29,-0.24,1.32,949.58
8.196,-1.43,-0.54,0.72,9.21,-3.25,-5.78,-1.29,-0.24,1.32,949.64
8.215,-0.63,-0.25,1.18,9.21,-3.25,-5.78,-1.29,-0.24,1.32,949.64
8.216,-0.63,-0.25,1.18,0.36,-5.13,-9.11,-1.29,-0.24,1.32,949.64
8.229,-0.63,-0.25,1.18,0.36,-5.13,-9.11,1.23,-1.59,2.96,949.64
8.263,-0.63,-0.25,1.18,0.36,-5.13,-9.11,1.23,-1.59,2.96,949.64
8.278,-0.18,-0.25,0.92,0.36,-5.13,-9.11,1.23,-1.59,2.96,949.64
8.28,-0.18,-0.25,0.92,-5.61,-3.06,-5.48,1.23,-1.59,2.96,949.64
8.288,-0.18,-0.25,0.92,-5.61,-3.06,-5.48,2.98,-0.07,3.83,949.64
8.33,-0.18,-0.25,0.92,-5.61,-3.06,-5.48,2.98,-0.07,3.83,949.77
8.341,-0.25,-0.47,0.58,-5.61,-3.06,-5.48,2.98,-0.07,3.83,949.77
8.343,-0.25,-0.47,0.58,-6.20,2.12,-1.67,2.98,-0.07,3.83,949.77
8.351,-0.25,-0.47,0.58,-6.20,2.12,-1.67,3.76,1.00,4.17,949.77
8.397,-0.25,-0.47,0.58,-6.20,2.12,-1.67,3.76,1.00,4.17,949.77
8.405,-0.57,-1.01,0.77,-6.20,2.12,-1.67,3.76,1.00,4.17,949.77
8.406,-0.57,-1.01,0.77,-3.60,9.86,-3.97,3.76,1.00,4.17,949.77
8.414,-0.57,-1.01,0.77,-3.60,9.86,-3.97,4.17,1.31,1.82,949.77
8.464,-0.57,-1.01,0.77,-3.60,9.86,-3.97,4.17,1.31,1.82,949.77
8.468,-1.22,-0.94,0.12,-3.60,9.86,-3.97,4.17,1.31,1.82,949.77
8.469,-1.22,-0.94,0.12,2.87,8.49,2.53,4.17,1.31,1.82,949.77
8.483,-1.22,-0.94,0.12,2.87,8.49,2.53,0.64,-0.86,-3.32,949.77
8.53,-1.22,-0.94,0.12,2.87,8.49,2.53,0.64,-0.86,-3.32,949.61
8.531,-1.73,-1.33,-0.74,2.87,8.49,2.53,0.64,-0.86,-3.32,949.61
8.531,-1.73,-1.33,-0.74,9.54,8.50,11.92,0.64,-0.86,-3.32,949.61
8.541,-1.73,-1.33,-0.74,9.54,8.50,11.92,-3.51,-3.51,-5.53,949.61
8.596,-1.09,-0.59,0.03,9.54,8.50,11.92,-3.51,-3.51,-5.53,949.61
8.597,-1.09,-0.59,0.03,4.85,-1.47,3.04,-3.51,-3.51,-5.53,949.61
8.599,-1.09,-0.59,0.03,4.85,-1.47,3.04,-3.51,-3.51,-5.53,949.61
8.606,-1.09,-0.59,0.03,4.85,-1.47,3.04,-4.06,0.40,-3.59,949.61
8.659,-1.28,-0.75,0.29,4.85,-1.47,3.04,-4.06,0.40,-3.59,949.61
8.66,-1.28,-0.75,0.29,8.43,-1.29,-0.18,-4.06,0.40,-3.59,949.61
8.663,-1.28,-0.75,0.29,8.43,-1.29,-0.18,-4.06,0.40,-3.59,949.53
8.667,-1.28,-0.75,0.29,8.43,-1.29,-0.18,-3.01,-4.37,-1.34,949.53
8.722,-1.13,-0.42,1.09,8.43,-1.29,-0.18,-3.01,-4.37,-1.34,949.53
8.724,-1.13,-0.42,1.09,6.45,-4.30,-8.50,-3.01,-4.37,-1.34,949.53
8.729,-1.13,-0.42,1.09,6.45,-4.30,-8.50,-3.01,-4.37,-1.34,949.53
8.73,-1.13,-0.42,1.09,6.45,-4.30,-8.50,-0.33,0.39,1.49,949.53
8.786,-0.67,-0.20,1.00,6.45,-4.30,-8.50,-0.33,0.39,1.49,949.53
8.787,-0.67,-0.20,1.00,0.83,-5.41,-6.47,-0.33,0.39,1.49,949.53
8.795,-0.67,-0.20,1.00,0.83,-5.41,-6.47,1.78,-1.28,2.94,949.53
8.796,-0.67,-0.20,1.00,0.83,-5.41,-6.47,1.78,-1.28,2.94,949.73
8.85,-0.14,-0.15,0.97,0.83,-5.41,-6.47,1.78,-1.28,2.94,949.73
8.851,-0.14,-0.15,0.97,-5.82,-3.65,-4.97,1.78,-1.28,2.94,949.73
8.868,-0.14,-0.15,0.97,-5.82,-3.65,-4.97,3.41,0.06,3.61,949.73
8.869,-0.14,-0.15,0.97,-5.82,-3.65,-4.97,3.41,0.06,3.61,949.73
8.911,-0.10,-0.36,0.69,-5.82,-3.65,-4.97,3.41,0.06,3.61,949.73
8.912,-0.10,-0.36,0.69,-7.46,1.52,-2.00,3.41,0.06,3.61,949.73
8.921,-0.10,-0.36,0.69,-7.46,1.52,-2.00,3.95,1.67,4.07,949.73
8.93,-0.10,-0.36,0.69,-7.46,1.52,-2.00,3.95,1.67,4.07,949.73
8.975,-0.25,-0.70,0.86,-7.46,1.52,-2.00,3.95,1.67,4.07,949.73
8.977,-0.25,-0.70,0.86,-6.56,7.61,-4.37,3.95,1.67,4.07,949.73
8.984,-0.25,-0.70,0.86,-6.56,7.61,-4.37,4.33,1.32,2.03,949.73
8.996,-0.25,-0.70,0.86,-6.56,7.61,-4.37,4.33,1.32,2.03,949.79
9.039,-0.25,-0.70,0.86,1.07,9.33,1.50,4.33,1.32,2.03,949.79
9.041,-1.03,-0.89,0.25,1.07,9.33,1.50,4.33,1.32,2.03,949.79
9.048,-1.03,-0.89,0.25,1.07,9.33,1.50,1.61,-0.71,-2.68,949.79
9.063,-1.03,-0.89,0.25,1.07,9.33,1.50,1.61,-0.71,-2.68,949.79
9.102,-1.03,-0.89,0.25,10.16,11.28,11.14,1.61,-0.71,-2.68,949.79
9.104,-1.83,-1.51,-0.63,10.16,11.28,11.14,1.61,-0.71,-2.68,949.79
9.111,-1.83,-1.51,-0.63,10.16,11.28,11.14,-3.65,-3.48,-6.32,949.79
9.13,-1.83,-1.51,-0.63,10.16,11.28,11.14,-3.65,-3.48,-6.32,949.63
9.165,-1.15,-1.03,0.11,10.16,11.28,11.14,-3.65,-3.48,-6.32,949.63
9.166,-1.15,-1.03,0.11,5.79,3.12,3.33,-3.65,-3.48,-6.32,949.63
9.174,-1.15,-1.03,0.11,5.79,3.12,3.33,-5.27,-1.81,-3.54,949.63
9.196,-1.15,-1.03,0.11,5.79,3.12,3.33,-5.27,-1.81,-3.54,949.63
9.228,-1.49,-0.93,0.45,5.79,3.12,3.33,-5.27,-1.81,-3.54,949.63
9.229,-1.49,-0.93,0.45,10.97,0.39,-1.49,-5.27,-1.81,-3.54,949.63
9.237,-1.49,-0.93,0.45,10.97,0.39,-1.49,-4.06,-4.20,-1.74,949.63
9.264,-1.49,-0.93,0.45,10.97,0.39,-1.49,-4.06,-4.20,-1.74,949.69
9.291,-0.79,-0.58,1.49,10.97,0.39,-1.49,-4.06,-4.20,-1.74,949.69
9.292,-0.79,-0.58,1.49,3.76,-2.98,-12.16,-4.06,-4.20,-1.74,949.69
9.3,-0.79,-0.58,1.49,3.76,-2.98,-12.16,-0.62,0.44,1.42,949.69
9.33,-0.79,-0.58,1.49,3.76,-2.98,-12.16,-0.62,0.44,1.42,949.69
9.354,-0.54,-0.01,1.12,3.76,-2.98,-12.16,-0.62,0.44,1.42,949.69
9.354,-0.54,-0.01,1.12,0.34,-7.71,-7.45,-0.62,0.44,1.42,949.69
9.364,-0.54,-0.01,1.12,0.34,-7.71,-7.45,1.86,-1.09,2.49,949.69
9.396,-0.54,-0.01,1.12,0.34,-7.71,-7.45,1.86,-1.09,2.49,949.69
9.417,0.08,0.08,1.22,0.34,-7.71,-7.45,1.86,-1.09,2.49,949.69
9.418,0.08,0.08,1.22,-7.24,-6.82,-7.44,1.86,-1.09,2.49,949.69
9.427,0.08,0.08,1.22,-7.24,-6.82,-7.44,3.47,1.32,2.84,949.69
9.463,0.08,0.08,1.22,-7.24,-6.82,-7.44,3.47,1.32,2.84,949.82
9.481,-0.18,-0.23,0.46,-7.24,-6.82,-7.44,3.47,1.32,2.84,949.82
9.483,-0.18,-0.23,0.46,-6.23,-1.07,0.29,3.47,1.32,2.84,949.82
9.491,-0.18,-0.23,0.46,-6.23,-1.07,0.29,3.84,1.94,3.61,949.82
9.533,-0.18,-0.23,0.46,-6.23,-1.07,0.29,3.84,1.94,3.61,949.82
9.551,-0.21,-0.57,0.76,-6.23,-1.07,0.29,3.84,1.94,3.61,949.82
9.552,-0.21,-0.57,0.76,-6.78,5.10,-2.99,3.84,1.94,3.61,949.82
9.554,-0.21,-0.57,0.76,-6.78,5.10,-2.99,4.38,0.96,2.30,949.82
9.597,-0.21,-0.57,0.76,-6.78,5.10,-2.99,4.38,0.96,2.30,949.81
9.608,-1.06,-1.18,0.47,-6.78,5.10,-2.99,4.38,0.96,2.30,949.81
9.611,-1.06,-1.18,0.47,1.68,11.39,-0.06,4.38,0.96,2.30,949.81
9.617,-1.06,-1.18,0.47,1.68,11.39,-0.06,2.31,-0.45,-2.23,949.81
9.669,-1.06,-1.18,0.47,1.68,11.39,-0.06,2.31,-0.45,-2.23,949.81
9.671,-1.97,-1.80,-0.15,1.68,11.39,-0.06,2.31,-0.45,-2.23,949.81
9.673,-1.97,-1.80,-0.15,11.52,13.99,6.34,2.31,-0.45,-2.23,949.81
9.695,-1.97,-1.80,-0.15,11.52,13.99,6.34,-2.24,-1.95,-6.21,949.81
9.73,-1.97,-1.80,-0.15,11.52,13.99,6.34,-2.24,-1.95,-6.21,949.71
9.734,-1.58,-1.03,-0.23,11.52,13.99,6.34,-2.24,-1.95,-6.21,949.71
9.734,-1.58,-1.03,-0.23,10.15,3.21,7.09,-2.24,-1.95,-6.21,949.71
9.744,-1.58,-1.03,-0.23,10.15,3.21,7.09,-4.58,-2.72,-3.16,949.71
9.797,-1.58,-1.03,-0.23,10.15,3.21,7.09,-4.58,-2.72,-3.16,949.71
9.802,-1.58,-1.03,-0.23,9.46,-0.28,-1.41,-4.58,-2.72,-3.16,949.71
9.804,-1.39,-0.81,0.51,9.46,-0.28,-1.41,-4.58,-2.72,-3.16,949.71
9.821,-1.39,-0.81,0.51,9.46,-0.28,-1.41,-3.37,-3.30,-0.82,949.71
9.861,-0.53,-0.23,1.18,9.46,-0.28,-1.41,-3.37,-3.30,-0.82,949.71
9.862,-0.53,-0.23,1.18,0.70,-5.80,-7.93,-3.37,-3.30,-0.82,949.71
9.864,-0.53,-0.23,1.18,0.70,-5.80,-7.93,-3.37,-3.30,-0.82,949.81
9.871,-0.53,-0.23,1.18,0.70,-5.80,-7.93,-0.41,-0.24,1.90,949.81
9.925,-0.52,-0.08,0.97,0.70,-5.80,-7.93,-0.41,-0.24,1.90,949.81
9.927,-0.52,-0.08,0.97,-0.55,-6.26,-5.44,-0.41,-0.24,1.90,949.81
9.93,-0.52,-0.08,0.97,-0.55,-6.26,-5.44,-0.41,-0.24,1.90,949.81
9.933,-0.52,-0.08,0.97,-0.55,-6.26,-5.44,1.41,-0.44,2.60,949.81
9.989,0.31,0.14,0.93,-0.55,-6.26,-5.44,1.41,-0.44,2.60,949.81
9.99,0.31,0.14,0.93,-9.90,-6.54,-4.14,1.41,-0.44,2.60,949.81
9.997,0.31,0.14,0.93,-9.90,-6.54,-4.14,1.41,-0.44,2.60,949.81
9.998,0.31,0.14,0.93,-9.90,-6.54,-4.14,2.96,1.03,2.65,949.81
10.052,0.31,0.14,0.93,-7.52,-2.00,0.80,2.96,1.03,2.65,949.81
10.054,-0.06,-0.08,0.42,-7.52,-2.00,0.80,2.96,1.03,2.65,949.81
10.06,-0.06,-0.08,0.42,-7.52,-2.00,0.80,3.22,1.45,2.90,949.81
10.064,-0.06,-0.08,0.42,-7.52,-2.00,0.80,3.22,1.45,2.90,949.84
10.115,-0.05,-0.33,0.57,-7.52,-2.00,0.80,3.22,1.45,2.90,949.84
10.117,-0.05,-0.33,0.57,-8.10,2.63,-0.76,3.22,1.45,2.90,949.84
10.124,-0.05,-0.33,0.57,-8.10,2.63,-0.76,3.81,0.74,1.62,949.84
10.13,-0.05,-0.33,0.57,-8.10,2.63,-0.76,3.81,0.74,1.62,949.84
10.178,-1.37,-1.19,0.71,-8.10,2.63,-0.76,3.81,0.74,1.62,949.84
10.179,-1.37,-1.19,0.71,4.95,11.17,-1.91,3.81,0.74,1.62,949.84
10.187,-1.37,-1.19,0.71,4.95,11.17,-1.91,2.38,-0.42,-2.55,949.84
10.196,-1.37,-1.19,0.71,4.95,11.17,-1.91,2.38,-0.42,-2.55,949.82
10.241,-2.20,-1.74,0.11,4.95,11.17,-1.91,2.38,-0.42,-2.55,949.82
10.243,-2.20,-1.74,0.11,13.69,13.78,3.88,2.38,-0.42,-2.55,949.82
10.25,-2.20,-1.74,0.11,13.69,13.78,3.88,-2.52,-0.63,-4.83,949.82
10.263,-2.20,-1.74,0.11,13.69,13.78,3.88,-2.52,-0.63,-4.83,949.82
10.304,-1.76,-0.85,-0.39,13.69,13.78,3.88,-2.52,-0.63,-4.83,949.82
10.306,-1.76,-0.85,-0.39,11.68,1.77,8.73,-2.52,-0.63,-4.83,949.82
10.314,-1.76,-0.85,-0.39,11.68,1.77,8.73,-4.86,-4.50,-3.65,949.82
10.331,-1.76,-0.85,-0.39,11.68,1.77,8.73,-4.86,-4.50,-3.65,949.65
10.368,-0.69,-0.73,0.56,11.68,1.77,8.73,-4.86,-4.50,-3.65,949.65
10.37,-0.69,-0.73,0.56,2.95,-1.38,-2.25,-4.86,-4.50,-3.65,949.65
10.377,-0.69,-0.73,0.56,2.95,-1.38,-2.25,-4.62,-0.91,-1.77,949.65
10.398,-0.69,-0.73,0.56,2.95,-1.38,-2.25,-4.62,-0.91,-1.77,949.65
10.434,-1.35,-0.67,1.01,2.95,-1.38,-2.25,-4.62,-0.91,-1.77,949.65
10.435,-1.35,-0.67,1.01,9.24,-2.12,-7.52,-4.62,-0.91,-1.77,949.65
10.45,-1.35,-0.67,1.01,9.24,-2.12,-7.52,-1.33,-1.95,1.36,949.65
10.463,-1.35,-0.67,1.01,9.24,-2.12,-7.52,-1.33,-1.95,1.36,949.65
10.495,-0.43,-0.32,1.33,9.24,-2.12,-7.52,-1.33,-1.95,1.36,949.65
10.496,-0.43,-0.32,1.33,-0.98,-4.71,-9.90,-1.33,-1.95,1.36,949.65
10.503,-0.43,-0.32,1.33,-0.98,-4.71,-9.90,1.75,0.63,2.71,949.65
10.53,-0.43,-0.32,1.33,-0.98,-4.71,-9.90,1.75,0.63,2.71,949.76
10.557,0.08,0.11,1.04,-0.98,-4.71,-9.90,1.75,0.63,2.71,949.76
10.558,0.08,0.11,1.04,-7.49,-7.09,-5.98,1.75,0.63,2.71,949.76
10.57,0.08,0.11,1.04,-7.49,-7.09,-5.98,3.01,0.19,3.01,949.76
10.597,0.08,0.11,1.04,-7.49,-7.09,-5.98,3.01,0.19,3.01,949.76
10.621,0.33,-0.09,0.51,-7.49,-7.09,-5.98,3.01,0.19,3.01,949.76
10.623,0.33,-0.09,0.51,-11.17,-2.91,-0.52,3.01,0.19,3.01,949.76
10.631,0.33,-0.09,0.51,-11.17,-2.91,-0.52,3.29,1.91,2.78,949.76
10.664,0.33,-0.09,0.51,-11.17,-2.91,-0.52,3.29,1.91,2.78,949.78
10.684,0.21,-0.43,0.47,-11.17,-2.91,-0.52,3.29,1.91,2.78,949.78
10.685,0.21,-0.43,0.47,-10.80,2.56,-0.22,3.29,1.91,2.78,949.78
10.702,0.21,-0.43,0.47,-10.80,2.56,-0.22,4.02,0.85,1.84,949.78
10.73,0.21,-0.43,0.47,-10.80,2.56,-0.22,4.02,0.85,1.84,949.78
10.748,-0.63,-0.89,0.26,-10.80,2.56,-0.22,4.02,0.85,1.84,949.78
10.749,-0.63,-0.89,0.26,-2.51,8.15,2.04,4.02,0.85,1.84,949.78
10.756,-0.63,-0.89,0.26,-2.51,8.15,2.04,3.39,0.11,-0.83,949.78
10.797,-0.63,-0.89,0.26,-2.51,8.15,2.04,3.39,0.11,-0.83,949.70
10.811,-2.38,-1.75,-0.27,-2.51,8.15,2.04,3.39,0.11,-0.83,949.70
10.813,-2.38,-1.75,-0.27,14.89,14.79,7.22,3.39,0.11,-0.83,949.70
10.82,-2.38,-1.75,-0.27,14.89,14.79,7.22,-1.94,-0.68,-3.74,949.70
10.864,-2.38,-1.75,-0.27,14.89,14.79,7.22,-1.94,-0.68,-3.74,949.70
10.874,-1.98,-1.56,0.14,14.89,14.79,7.22,-1.94,-0.68,-3.74,949.70
10.875,-1.98,-1.56,0.14,12.96,9.04,2.87,-1.94,-0.68,-3.74,949.70
10.883,-1.98,-1.56,0.14,12.96,9.04,2.87,-5.24,-2.89,-4.77,949.70
10.933,-1.98,-1.56,0.14,12.96,9.04,2.87,-5.24,-2.89,-4.77,949.70
10.937,-0.65,-0.82,0.50,12.96,9.04,2.87,-5.24,-2.89,-4.77,949.70
10.938,-0.65,-0.82,0.50,2.21,-0.32,-1.82,-5.24,-2.89,-4.77,949.70
10.954,-0.65,-0.82,0.50,2.21,-0.32,-1.82,-4.55,-2.09,-2.76,949.70
10.997,-0.65,-0.82,0.50,2.21,-0.32,-1.82,-4.55,-2.09,-2.76,949.53
11.001,-1.72,-0.84,0.49,2.21,-0.32,-1.82,-4.55,-2.09,-2.76,949.53
11.002,-1.72,-0.84,0.49,12.78,-0.53,-2.85,-4.55,-2.09,-2.76,949.53
11.012,-1.72,-0.84,0.49,12.78,-0.53,-2.85,-1.75,-1.53,0.91,949.53
11.064,-1.72,-0.84,0.49,12.78,-0.53,-2.85,-1.75,-1.53,0.91,949.53
11.065,-0.71,-0.47,1.36,12.78,-0.53,-2.85,-1.75,-1.53,0.91,949.53
11.066,-0.71,-0.47,1.36,1.72,-3.49,-11.13,-1.75,-1.53,0.91,949.53
11.073,-0.71,-0.47,1.36,1.72,-3.49,-11.13,0.59,0.53,2.76,949.53
11.127,-0.16,0.33,1.17,1.72,-3.49,-11.13,0.59,0.53,2.76,949.53
11.129,-0.16,0.33,1.17,-5.34,-9.83,-8.97,0.59,0.53,2.76,949.53
11.13,-0.16,0.33,1.17,-5.34,-9.83,-8.97,0.59,0.53,2.76,949.69
11.136,-0.16,0.33,1.17,-5.34,-9.83,-8.97,1.91,0.73,3.07,949.69
11.191,0.14,-0.08,0.79,-5.34,-9.83,-8.97,1.91,0.73,3.07,949.69
11.192,0.14,-0.08,0.79,-9.58,-3.78,-4.73,1.91,0.73,3.07,949.69
11.2,0.14,-0.08,0.79,-9.58,-3.78,-4.73,1.91,0.73,3.07,949.69
11.201,0.14,-0.08,0.79,-9.58,-3.78,-4.73,2.64,1.48,3.54,949.69
11.255,0.04,-0.44,0.86,-9.58,-3.78,-4.73,2.64,1.48,3.54,949.69
11.256,0.04,-0.44,0.86,-9.78,2.43,-6.24,2.64,1.48,3.54,949.69
11.264,0.04,-0.44,0.86,-9.78,2.43,-6.24,2.64,1.48,3.54,949.63
11.265,0.04,-0.44,0.86,-9.78,2.43,-6.24,3.89,1.80,3.51,949.63
11.324,-0.47,-0.86,0.14,-9.78,2.43,-6.24,3.89,1.80,3.51,949.63
11.326,-0.47,-0.86,0.14,-4.73,8.42,1.65,3.89,1.80,3.51,949.63
11.35,-0.47,-0.86,0.14,-4.73,8.42,1.65,5.00,-1.15,1.29,949.63
11.352,-0.47,-0.86,0.14,-4.73,8.42,1.65,5.00,-1.15,1.29,949.63
11.38,-2.20,-1.06,-0.26,-4.73,8.42,1.65,5.00,-1.15,1.29,949.63
11.381,-2.20,-1.06,-0.26,12.30,10.20,5.96,5.00,-1.15,1.29,949.63
11.39,-2.20,-1.06,-0.26,12.30,10.20,5.96,1.05,-1.17,-2.23,949.63
11.397,-2.20,-1.06,-0.26,12.30,10.20,5.96,1.05,-1.17,-2.23,949.54
11.444,-1.44,-1.13,-0.32,12.30,10.20,5.96,1.05,-1.17,-2.23,949.54
11.446,-1.44,-1.13,-0.32,6.66,6.99,8.16,1.05,-1.17,-2.23,949.54
11.453,-1.44,-1.13,-0.32,6.66,6.99,8.16,-4.03,-4.18,-5.72,949.54
11.464,-1.44,-1.13,-0.32,6.66,6.99,8.16,-4.03,-4.18,-5.72,949.54
11.507,-0.60,-0.98,-0.18,6.66,6.99,8.16,-4.03,-4.18,-5.72,949.54
11.509,-0.60,-0.98,-0.18,0.81,2.06,5.77,-4.03,-4.18,-5.72,949.54
11.517,-0.60,-0.98,-0.18,0.81,2.06,5.77,-5.66,-1.63,-4.02,949.54
11.53,-0.60,-0.98,-0.18,0.81,2.06,5.77,-5.66,-1.63,-4.02,949.54
11.57,-1.98,-1.32,0.44,0.81,2.06,5.77,-5.66,-1.63,-4.02,949.54
11.571,-1.98,-1.32,0.44,15.67,4.07,-2.18,-5.66,-1.63,-4.02,949.54
11.581,-1.98,-1.32,0.44,15.67,4.07,-2.18,-3.78,-3.14,-0.60,949.54
11.597,-1.98,-1.32,0.44,15.67,4.07,-2.18,-3.78,-3.14,-0.60,949.56
11.634,-1.02,-0.53,1.59,15.67,4.07,-2.18,-3.78,-3.14,-0.60,949.56
11.636,-1.02,-0.53,1.59,5.12,-3.15,-13.52,-3.78,-3.14,-0.60,949.56
11.643,-1.02,-0.53,1.59,5.12,-3.15,-13.52,0.32,0.14,2.23,949.56
11.664,-1.02,-0.53,1.59,5.12,-3.15,-13.52,0.32,0.14,2.23,949.56
11.706,-0.34,0.06,1.05,5.12,-3.15,-13.52,0.32,0.14,2.23,949.56
11.709,-0.34,0.06,1.05,-3.11,-7.59,-7.52,0.32,0.14,2.23,949.56
11.71,-0.34,0.06,1.05,-3.11,-7.59,-7.52,2.10,0.49,3.10,949.56
11.731,-0.34,0.06,1.05,-3.11,-7.59,-7.52,2.10,0.49,3.10,949.71
11.76,0.33,-0.03,0.90,-3.11,-7.59,-7.52,2.10,0.49,3.10,949.71
11.761,0.33,-0.03,0.90,-10.68,-4.87,-4.86,2.10,0.49,3.10,949.71
11.769,0.33,-0.03,0.90,-10.68,-4.87,-4.86,2.97,0.26,2.94,949.71
11.797,0.33,-0.03,0.90,-10.68,-4.87,-4.86,2.97,0.26,2.94,949.71
11.824,0.13,-0.38,0.66,-10.68,-4.87,-4.86,2.97,0.26,2.94,949.71
11.826,0.13,-0.38,0.66,-10.08,0.93,-2.85,2.97,0.26,2.94,949.71
11.841,0.13,-0.38,0.66,-10.08,0.93,-2.85,3.81,2.69,3.01,949.71
11.863,0.13,-0.38,0.66,-10.08,0.93,-2.85,3.81,2.69,3.01,949.67
11.887,-0.38,-0.78,0.20,-10.08,0.93,-2.85,3.81,2.69,3.01,949.67
11.887,-0.38,-0.78,0.20,-5.51,7.13,1.54,3.81,2.69,3.01,949.67
11.897,-0.38,-0.78,0.20,-5.51,7.13,1.54,4.55,0.37,1.54,949.67
11.931,-0.38,-0.78,0.20,-5.51,7.13,1.54,4.55,0.37,1.54,949.67
11.951,-0.38,-0.78,0.20,4.78,10.59,5.46,4.55,0.37,1.54,949.67
11.952,-1.44,-1.17,-0.23,4.78,10.59,5.46,4.55,0.37,1.54,949.67
11.96,-1.44,-1.17,-0.23,4.78,10.59,5.46,1.21,0.58,-2.48,949.67
11.997,-1.44,-1.17,-0.23,4.78,10.59,5.46,1.21,0.58,-2.48,949.67
12.013,-2.00,-1.67,-0.56,4.78,10.59,5.46,1.21,0.58,-2.48,949.67
12.014,-2.00,-1.67,-0.56,12.00,11.57,9.60,1.21,0.58,-2.48,949.67
12.023,-2.00,-1.67,-0.56,12.00,11.57,9.60,-4.04,-3.94,-6.23,949.67
12.064,-2.00,-1.67,-0.56,12.00,11.57,9.60,-4.04,-3.94,-6.23,949.47
12.077,-1.20,-1.07,-0.03,12.00,11.57,9.60,-4.04,-3.94,-6.23,949.47
12.078,-1.20,-1.07,-0.03,6.78,2.55,3.55,-4.04,-3.94,-6.23,949.47
12.087,-1.20,-1.07,-0.03,6.78,2.55,3.55,-4.92,-2.70,-4.03,949.47
12.131,-1.20,-1.07,-0.03,6.78,2.55,3.55,-4.92,-2.70,-4.03,949.47
12.14,-1.51,-1.07,0.80,6.78,2.55,3.55,-4.92,-2.70,-4.03,949.47
12.141,-1.51,-1.07,0.80,10.89,1.68,-5.75,-4.92,-2.70,-4.03,949.47
12.15,-1.51,-1.07,0.80,10.89,1.68,-5.75,-2.43,-1.72,-0.29,949.47
12.197,-1.51,-1.07,0.80,10.89,1.68,-5.75,-2.43,-1.72,-0.29,949.54
12.203,-1.04,-0.46,1.19,10.89,1.68,-5.75,-2.43,-1.72,-0.29,949.54
12.204,-1.04,-0.46,1.19,5.32,-3.66,-9.13,-2.43,-1.72,-0.29,949.54
12.213,-1.04,-0.46,1.19,5.32,-3.66,-9.13,0.78,-1.06,2.19,949.54
12.269,-1.04,-0.46,1.19,5.32,-3.66,-9.13,0.78,-1.06,2.19,949.54
12.271,-0.21,0.07,0.90,5.32,-3.66,-9.13,0.78,-1.06,2.19,949.54
12.271,-0.21,0.07,0.90,-4.24,-7.49,-5.26,0.78,-1.06,2.19,949.54
12.276,-0.21,0.07,0.90,-4.24,-7.49,-5.26,2.45,0.39,2.88,949.54
12.33,0.34,0.22,0.69,-4.24,-7.49,-5.26,2.45,0.39,2.88,949.54
12.332,0.34,0.22,0.69,-10.89,-7.12,-2.61,2.45,0.39,2.88,949.54
12.333,0.34,0.22,0.69,-10.89,-7.12,-2.61,2.45,0.39,2.88,949.63
12.339,0.34,0.22,0.69,-10.89,-7.12,-2.61,2.57,1.54,2.96,949.63
12.394,0.24,-0.22,0.56,-10.89,-7.12,-2.61,2.57,1.54,2.96,949.63
12.395,0.24,-0.22,0.56,-11.04,-0.57,-1.64,2.57,1.54,2.96,949.63
12.399,0.24,-0.22,0.56,-11.04,-0.57,-1.64,2.57,1.54,2.96,949.63
12.403,0.24,-0.22,0.56,-11.04,-0.57,-1.64,3.02,1.23,2.66,949.63
12.457,-0.18,-0.69,0.34,-11.04,-0.57,-1.64,3.02,1.23,2.66,949.63
12.458,-0.18,-0.69,0.34,-6.98,5.57,1.08,3.02,1.23,2.66,949.63
12.464,-0.18,-0.69,0.34,-6.98,5.57,1.08,3.02,1.23,2.66,949.63
12.468,-0.18,-0.69,0.34,-6.98,5.57,1.08,3.89,-0.06,0.60,949.63
12.52,-2.30,-1.45,0.14,-6.98,5.57,1.08,3.89,-0.06,0.60,949.63
12.522,-2.30,-1.45,0.14,13.75,12.69,2.99,3.89,-0.06,0.60,949.63
12.531,-2.30,-1.45,0.14,13.75,12.69,2.99,1.11,0.12,-2.47,949.63
12.532,-2.30,-1.45,0.14,13.75,12.69,2.99,1.11,0.12,-2.47,949.64
12.584,-2.08,-1.36,-0.50,13.75,12.69,2.99,1.11,0.12,-2.47,949.64
12.586,-2.08,-1.36,-0.50,13.19,8.34,9.48,1.11,0.12,-2.47,949.64
12.593,-2.08,-1.36,-0.50,13.19,8.34,9.48,-4.01,-2.98,-5.33,949.64
12.598,-2.08,-1.36,-0.50,13.19,8.34,9.48,-4.01,-2.98,-5.33,949.64
12.647,-0.80,-0.83,-0.15,13.19,8.34,9.48,-4.01,-2.98,-5.33,949.64
12.648,-0.80,-0.83,-0.15,3.61,0.19,5.57,-4.01,-2.98,-5.33,949.64
12.656,-0.80,-0.83,-0.15,3.61,0.19,5.57,-5.24,-3.70,-3.26,949.64
12.665,-0.80,-0.83,-0.15,3.61,0.19,5.57,-5.24,-3.70,-3.26,949.52
12.71,-1.42,-1.03,0.89,3.61,0.19,5.57,-5.24,-3.70,-3.26,949.52
12.712,-1.42,-1.03,0.89,10.23,1.24,-6.31,-5.24,-3.70,-3.26,949.52
12.72,-1.42,-1.03,0.89,10.23,1.24,-6.31,-2.51,-0.43,0.03,949.52
12.732,-1.42,-1.03,0.89,10.23,1.24,-6.31,-2.51,-0.43,0.03,949.52
12.774,-0.91,-0.70,1.09,10.23,1.24,-6.31,-2.51,-0.43,0.03,949.52
12.776,-0.91,-0.70,1.09,3.98,-1.32,-8.19,-2.51,-0.43,0.03,949.52
12.796,-0.91,-0.70,1.09,3.98,-1.32,-8.19,0.59,-0.05,2.42,949.52
12.798,-0.91,-0.70,1.09,3.98,-1.32,-8.19,0.59,-0.05,2.42,949.68
12.837,-0.39,0.08,0.90,3.98,-1.32,-8.19,0.59,-0.05,2.42,949.68
12.838,-0.39,0.08,0.90,-2.69,-7.49,-5.57,0.59,-0.05,2.42,949.68
12.846,-0.39,0.08,0.90,-2.69,-7.49,-5.57,2.19,0.41,3.33,949.68
12.864,-0.39,0.08,0.90,-2.69,-7.49,-5.57,2.19,0.41,3.33,949.68
12.9,0.24,0.12,0.73,-2.69,-7.49,-5.57,2.19,0.41,3.33,949.68
12.901,0.24,0.12,0.73,-10.08,-5.83,-3.03,2.19,0.41,3.33,949.68
12.909,0.24,0.12,0.73,-10.08,-5.83,-3.03,2.59,0.51,3.36,949.68
12.933,0.24,0.12,0.73,-10.08,-5.83,-3.03,2.59,0.51,3.36,949.75
12.964,0.26,-0.27,0.58,-10.08,-5.83,-3.03,2.59,0.51,3.36,949.75
12.965,0.26,-0.27,0.58,-11.50,0.44,-2.03,2.59,0.51,3.36,949.75
12.973,0.26,-0.27,0.58,-11.50,0.44,-2.03,3.18,2.41,3.04,949.75
12.998,0.26,-0.27,0.58,-11.50,0.44,-2.03,3.18,2.41,3.04,949.75
13.027,-0.25,-0.34,0.09,-11.50,0.44,-2.03,3.18,2.41,3.04,949.75
13.028,-0.25,-0.34,0.09,-6.63,2.97,3.07,3.18,2.41,3.04,949.75
13.041,-0.25,-0.34,0.09,-6.63,2.97,3.07,3.60,-0.60,1.09,949.75
13.065,-0.25,-0.34,0.09,-6.63,2.97,3.07,3.60,-0.60,1.09,949.75
13.09,-1.87,-1.16,-0.00,-6.63,2.97,3.07,3.60,-0.60,1.09,949.75
13.091,-1.87,-1.16,-0.00,9.42,10.26,4.07,3.60,-0.60,1.09,949.75
13.099,-1.87,-1.16,-0.00,9.42,10.26,4.07,0.81,-0.62,-3.05,949.75
13.131,-1.87,-1.16,-0.00,9.42,10.26,4.07,0.81,-0.62,-3.05,949.71
13.154,-2.12,-1.90,-0.33,9.42,10.26,4.07,0.81,-0.62,-3.05,949.71
13.155,-2.12,-1.90,-0.33,13.66,13.44,7.69,0.81,-0.62,-3.05,949.71
13.164,-2.12,-1.90,-0.33,13.66,13.44,7.69,-4.76,-2.46,-6.19,949.71
13.198,-2.12,-1.90,-0.33,13.66,13.44,7.69,-4.76,-2.46,-6.19,949.71
13.217,-1.34,-1.09,0.36,13.66,13.44,7.69,-4.76,-2.46,-6.19,949.71
13.219,-1.34,-1.09,0.36,8.76,2.40,-0.24,-4.76,-2.46,-6.19,949.71
13.226,-1.34,-1.09,0.36,8.76,2.40,-0.24,-5.53,-3.94,-3.51,949.71
13.265,-1.34,-1.09,0.36,8.76,2.40,-0.24,-5.53,-3.94,-3.51,949.60
13.28,-1.42,-0.98,0.88,8.76,2.40,-0.24,-5.53,-3.94,-3.51,949.60
13.285,-1.42,-0.98,0.88,10.25,0.68,-6.69,-5.53,-3.94,-3.51,949.60
13.292,-1.42,-0.98,0.88,10.25,0.68,-6.69,-2.39,-1.60,0.01,949.60
13.331,-1.42,-0.98,0.88,10.25,0.68,-6.69,-2.39,-1.60,0.01,949.60
13.343,-0.68,-0.30,1.00,10.25,0.68,-6.69,-2.39,-1.60,0.01,949.60
13.345,-0.68,-0.30,1.00,1.98,-5.40,-7.38,-2.39,-1.60,0.01,949.60
13.353,-0.68,-0.30,1.00,1.98,-5.40,-7.38,0.75,-0.77,2.15,949.60
13.398,-0.68,-0.30,1.00,1.98,-5.40,-7.38,0.75,-0.77,2.15,949.73
13.407,-0.03,-0.18,1.11,1.98,-5.40,-7.38,0.75,-0.77,2.15,949.73
13.408,-0.03,-0.18,1.11,-5.59,-5.49,-7.63,0.75,-0.77,2.15,949.73
13.424,-0.03,-0.18,1.11,-5.59,-5.49,-7.63,2.30,0.96,2.58,949.73
13.464,-0.03,-0.18,1.11,-5.59,-5.49,-7.63,2.30,0.96,2.58,949.73
13.47,-0.04,0.10,0.56,-5.59,-5.49,-7.63,2.30,0.96,2.58,949.73
13.47,-0.04,0.10,0.56,-7.11,-6.38,-1.93,2.30,0.96,2.58,949.73
13.479,-0.04,0.10,0.56,-7.11,-6.38,-1.93,2.53,1.69,2.99,949.73
13.531,-0.04,0.10,0.56,-7.11,-6.38,-1.93,2.53,1.69,2.99,949.73
13.533,0.33,-0.09,0.75,-7.11,-6.38,-1.93,2.53,1.69,2.99,949.73
13.533,0.33,-0.09,0.75,-11.96,-2.40,-4.11,2.53,1.69,2.99,949.73
13.542,0.33,-0.09,0.75,-11.96,-2.40,-4.11,3.19,2.33,2.71,949.73
13.598,0.15,-0.33,0.09,-11.96,-2.40,-4.11,3.19,2.33,2.71,949.73
13.6,0.15,-0.33,0.09,-10.61,1.61,2.49,3.19,2.33,2.71,949.73
13.601,0.15,-0.33,0.09,-10.61,1.61,2.49,3.19,2.33,2.71,949.68
13.606,0.15,-0.33,0.09,-10.61,1.61,2.49,3.59,0.18,1.46,949.68
13.66,-1.59,-1.01,-0.08,-10.61,1.61,2.49,3.59,0.18,1.46,949.68
13.662,-1.59,-1.01,-0.08,6.50,8.49,4.48,3.59,0.18,1.46,949.68
13.664,-1.59,-1.01,-0.08,6.50,8.49,4.48,3.59,0.18,1.46,949.68
13.669,-1.59,-1.01,-0.08,6.50,8.49,4.48,1.97,-0.16,-1.64,949.68
13.724,-2.16,-2.13,-0.19,6.50,8.49,4.48,1.97,-0.16,-1.64,949.68
13.725,-2.16,-2.13,-0.19,13.61,16.08,6.16,1.97,-0.16,-1.64,949.68
13.732,-2.16,-2.13,-0.19,13.61,16.08,6.16,1.97,-0.16,-1.64,949.52
13.733,-2.16,-2.13,-0.19,13.61,16.08,6.16,-3.73,-2.66,-5.94,949.52
13.787,-1.74,-1.37,-0.16,13.61,16.08,6.16,-3.73,-2.66,-5.94,949.52
13.789,-1.74,-1.37,-0.16,12.18,5.45,4.87,-3.73,-2.66,-5.94,949.52
13.796,-1.74,-1.37,-0.16,12.18,5.45,4.87,-5.05,-4.15,-3.70,949.52
13.797,-1.74,-1.37,-0.16,12.18,5.45,4.87,-5.05,-4.15,-3.70,949.52
13.85,-1.27,-0.89,0.99,12.18,5.45,4.87,-5.05,-4.15,-3.70,949.52
13.851,-1.27,-0.89,0.99,8.82,-0.06,-6.90,-5.05,-4.15,-3.70,949.52
13.859,-1.27,-0.89,0.99,8.82,-0.06,-6.90,-1.80,-2.59,0.07,949.52
13.863,-1.27,-0.89,0.99,8.82,-0.06,-6.90,-1.80,-2.59,0.07,949.62
13.914,-0.84,-0.38,1.02,8.82,-0.06,-6.90,-1.80,-2.59,0.07,949.62
13.915,-0.84,-0.38,1.02,3.25,-4.26,-6.82,-1.80,-2.59,0.07,949.62
13.923,-0.84,-0.38,1.02,3.25,-4.26,-6.82,0.72,0.16,2.36,949.62
13.93,-0.84,-0.38,1.02,3.25,-4.26,-6.82,0.72,0.16,2.36,949.62
13.977,-0.07,0.06,0.88,3.25,-4.26,-6.82,0.72,0.16,2.36,949.62
13.978,-0.07,0.06,0.88,-5.70,-7.30,-5.17,0.72,0.16,2.36,949.62
13.986,-0.07,0.06,0.88,-5.70,-7.30,-5.17,1.78,0.91,2.70,949.62
13.997,-0.07,0.06,0.88,-5.70,-7.30,-5.17,1.78,0.91,2.70,949.74
14.047,0.59,-0.02,0.57,-5.70,-7.30,-5.17,1.78,0.91,2.70,949.74
14.049,0.59,-0.02,0.57,-13.06,-4.99,-1.34,1.78,0.91,2.70,949.74
14.05,0.59,-0.02,0.57,-13.06,-4.99,-1.34,2.31,0.90,2.29,949.74
14.076,0.59,-0.02,0.57,-13.06,-4.99,-1.34,2.31,0.90,2.29,949.74
14.103,0.71,-0.27,0.53,-13.06,-4.99,-1.34,2.31,0.90,2.29,949.74
14.104,0.71,-0.27,0.53,-15.65,-0.91,-2.08,2.31,0.90,2.29,949.74
14.113,0.71,-0.27,0.53,-15.65,-0.91,-2.08,2.82,4.08,1.87,949.74
14.131,0.71,-0.27,0.53,-15.65,-0.91,-2.08,2.82,4.08,1.87,949.74
14.167,0.08,-0.49,0.05,-15.65,-0.91,-2.08,2.82,4.08,1.87,949.74
14.168,0.08,-0.49,0.05,-9.98,2.25,2.24,2.82,4.08,1.87,949.74
14.181,0.08,-0.49,0.05,-9.98,2.25,2.24,3.63,0.96,0.54,949.74
14.216,0.08,-0.49,0.05,-9.98,2.25,2.24,3.63,0.96,0.54,949.63
14.23,-1.75,-0.81,-0.47,-9.98,2.25,2.24,3.63,0.96,0.54,949.63
14.231,-1.75,-0.81,-0.47,8.11,5.58,7.92,3.63,0.96,0.54,949.63
14.24,-1.75,-0.81,-0.47,8.11,5.58,7.92,1.86,-0.88,-1.44,949.63
14.265,-1.75,-0.81,-0.47,8.11,5.58,7.92,1.86,-0.88,-1.44,949.63
14.294,-2.79,-1.90,-0.12,8.11,5.58,7.92,1.86,-0.88,-1.44,949.63
14.296,-2.79,-1.90,-0.12,19.69,13.38,4.54,1.86,-0.88,-1.44,949.63
14.306,-2.79,-1.90,-0.12,19.69,13.38,4.54,-3.55,-1.25,-5.05,949.63
14.331,-2.79,-1.90,-0.12,19.69,13.38,4.54,-3.55,-1.25,-5.05,949.44
14.357,-2.28,-1.47,-0.07,19.69,13.38,4.54,-3.55,-1.25,-5.05,949.44
14.359,-2.28,-1.47,-0.07,17.44,6.36,3.58,-3.55,-1.25,-5.05,949.44
14.366,-2.28,-1.47,-0.07,17.44,6.36,3.58,-4.18,-5.78,-3.66,949.44
14.398,-2.28,-1.47,-0.07,17.44,6.36,3.58,-4.18,-5.78,-3.66,949.44
14.42,-0.58,-0.46,1.03,17.44,6.36,3.58,-4.18,-5.78,-3.66,949.44
14.421,-0.58,-0.46,1.03,1.52,-4.06,-7.56,-4.18,-5.78,-3.66,949.44
14.429,-0.58,-0.46,1.03,1.52,-4.06,-7.56,-1.55,0.09,0.22,949.44
14.464,-0.58,-0.46,1.03,1.52,-4.06,-7.56,-1.55,0.09,0.22,949.56
14.483,-0.97,-0.56,0.49,1.52,-4.06,-7.56,-1.55,0.09,0.22,949.56
14.484,-0.97,-0.56,0.49,4.49,-2.36,-1.57,-1.55,0.09,0.22,949.56
14.496,-0.97,-0.56,0.49,4.49,-2.36,-1.57,0.70,-2.76,2.54,949.56
14.531,-0.97,-0.56,0.49,4.49,-2.36,-1.57,0.70,-2.76,2.54,949.56
14.546,0.37,-0.03,0.83,4.49,-2.36,-1.57,0.70,-2.76,2.54,949.56
14.547,0.37,-0.03,0.83,-9.44,-6.24,-3.46,0.70,-2.76,2.54,949.56
14.555,0.37,-0.03,0.83,-9.44,-6.24,-3.46,2.37,-0.78,2.31,949.56
14.598,0.37,-0.03,0.83,-9.44,-6.24,-3.46,2.37,-0.78,2.31,949.56
14.61,0.46,0.16,0.17,-9.44,-6.24,-3.46,2.37,-0.78,2.31,949.56
14.61,0.46,0.16,0.17,-11.50,-6.63,3.26,2.37,-0.78,2.31,949.56
14.619,0.46,0.16,0.17,-11.50,-6.63,3.26,2.11,1.89,1.58,949.56
14.665,0.46,0.16,0.17,-11.50,-6.63,3.26,2.11,1.89,1.58,949.62
14.682,0.91,-0.14,0.35,-11.50,-6.63,3.26,2.11,1.89,1.58,949.62
14.683,0.91,-0.14,0.35,-16.60,-2.85,1.11,2.11,1.89,1.58,949.62
14.684,0.91,-0.14,0.35,-16.60,-2.85,1.11,2.25,1.92,0.21,949.62
14.731,0.91,-0.14,0.35,-16.60,-2.85,1.11,2.25,1.92,0.21,949.62
14.736,0.21,-0.21,-0.31,-16.60,-2.85,1.11,2.25,1.92,0.21,949.62
14.737,0.21,-0.21,-0.31,-9.93,-2.07,7.46,2.25,1.92,0.21,949.62
14.746,0.21,-0.21,-0.31,-9.93,-2.07,7.46,2.09,0.89,-1.16,949.62
14.798,0.21,-0.21,-0.31,-9.93,-2.07,7.46,2.09,0.89,-1.16,949.60
14.799,-2.49,-1.05,0.12,-9.93,-2.07,7.46,2.09,0.89,-1.16,949.60
14.799,-2.49,-1.05,0.12,16.85,6.03,3.62,2.09,0.89,-1.16,949.60
14.809,-2.49,-1.05,0.12,16.85,6.03,3.62,0.83,-0.22,-1.20,949.60
14.863,-2.49,-1.05,0.12,21.75,17.81,-5.89,0.83,-0.22,-1.20,949.60
14.865,-2.98,-2.39,0.95,21.75,17.81,-5.89,0.83,-0.22,-1.20,949.60
14.866,-2.98,-2.39,0.95,21.75,17.81,-5.89,0.83,-0.22,-1.20,949.60
14.879,-2.98,-2.39,0.95,21.75,17.81,-5.89,-1.56,3.02,-2.45,949.60
14.927,-1.23,-0.60,-0.89,21.75,17.81,-5.89,-1.56,3.02,-2.45,949.60
14.928,-1.23,-0.60,-0.89,6.23,-1.62,11.27,-1.56,3.02,-2.45,949.60
14.931,-1.23,-0.60,-0.89,6.23,-1.62,11.27,-1.56,3.02,-2.45,949.43
14.937,-1.23,-0.60,-0.89,6.23,-1.62,11.27,-2.66,-2.67,-3.58,949.43
14.99,-1.13,-0.90,0.03,6.23,-1.62,11.27,-2.66,-2.67,-3.58,949.43
14.992,-1.13,-0.90,0.03,6.69,0.41,2.54,-2.66,-2.67,-3.58,949.43
14.998,-1.13,-0.90,0.03,6.69,0.41,2.54,-2.66,-2.67,-3.58,949.43
14.999,-1.13,-0.90,0.03,6.69,0.41,2.54,-2.38,-5.86,-0.16,949.43
15.054,-1.13,-0.90,0.03,-4.59,-5.94,-6.11,-2.38,-5.86,-0.16,949.43
15.056,-0.05,-0.20,0.92,-4.59,-5.94,-6.11,-2.38,-5.86,-0.16,949.43
15.062,-0.05,-0.20,0.92,-4.59,-5.94,-6.11,0.23,3.45,2.07,949.43
15.064,-0.05,-0.20,0.92,-4.59,-5.94,-6.11,0.23,3.45,2.07,949.43
15.117,-1.55,-0.28,0.93,-4.59,-5.94,-6.11,0.23,3.45,2.07,949.43
15.118,-1.55,-0.28,0.93,7.72,-3.71,-8.15,0.23,3.45,2.07,949.43
15.142,-1.55,-0.28,0.93,7.72,-3.71,-8.15,1.53,3.34,3.45,949.43
15.143,-1.55,-0.28,0.93,7.72,-3.71,-8.15,1.53,3.34,3.45,949.64
15.181,1.60,0.35,-0.88,7.72,-3.71,-8.15,1.53,3.34,3.45,949.64
15.183,1.60,0.35,-0.88,-21.27,-8.76,14.87,1.53,3.34,3.45,949.64
15.189,1.60,0.35,-0.88,-21.27,-8.76,14.87,1.27,-12.62,0.78,949.64
15.197,1.60,0.35,-0.88,-21.27,-8.76,14.87,1.27,-12.62,0.78,949.64
15.243,2.40,-0.16,-0.01,-21.27,-8.76,14.87,1.27,-12.62,0.78,949.64
15.245,2.40,-0.16,-0.01,-28.97,-4.11,6.09,1.27,-12.62,0.78,949.64
15.252,2.40,-0.16,-0.01,-28.97,-4.11,6.09,0.72,5.88,-2.50,949.64
15.264,2.40,-0.16,-0.01,-28.97,-4.11,6.09,0.72,5.88,-2.50,949.70
15.314,-1.16,-0.72,-0.53,-28.97,-4.11,6.09,0.72,5.88,-2.50,949.70
15.315,-1.16,-0.72,-0.53,4.72,0.71,8.97,0.72,5.88,-2.50,949.70
15.316,-1.16,-0.72,-0.53,4.72,0.71,8.97,1.05,5.31,-2.23,949.70
15.339,-1.16,-0.72,-0.53,4.72,0.71,8.97,1.05,5.31,-2.23,949.70
15.37,-1.61,-1.94,-0.10,4.72,0.71,8.97,1.05,5.31,-2.23,949.70
15.371,-1.61,-1.94,-0.10,9.22,12.61,4.60,1.05,5.31,-2.23,949.70
15.38,-1.61,-1.94,-0.10,9.22,12.61,4.60,0.45,1.62,-0.46,949.70
15.398,-1.61,-1.94,-0.10,9.22,12.61,4.60,0.45,1.62,-0.46,949.47
15.434,-2.03,-2.48,0.28,9.22,12.61,4.60,0.45,1.62,-0.46,949.47
15.436,-2.03,-2.48,0.28,14.00,16.91,0.13,0.45,1.62,-0.46,949.47
15.443,-2.03,-2.48,0.28,14.00,16.91,0.13,-0.48,0.46,-2.74,949.47
15.465,-2.03,-2.48,0.28,14.00,16.91,0.13,-0.48,0.46,-2.74,949.47
15.496,-1.52,-1.43,0.25,14.00,16.91,0.13,-0.48,0.46,-2.74,949.47
15.497,-1.52,-1.43,0.25,10.28,5.81,0.44,-0.48,0.46,-2.74,949.47
15.506,-1.52,-1.43,0.25,10.28,5.81,0.44,-0.78,-1.50,-1.52,949.47
15.531,-1.52,-1.43,0.25,10.28,5.81,0.44,-0.78,-1.50,-1.52,949.41
15.562,-0.58,0.14,0.08,10.28,5.81,0.44,-0.78,-1.50,-1.52,949.41
15.564,-0.58,0.14,0.08,1.39,-9.77,2.24,-0.78,-1.50,-1.52,949.41
15.569,-0.58,0.14,0.08,1.39,-9.77,2.24,-0.02,-0.32,-0.42,949.41
15.599,-0.58,0.14,0.08,1.39,-9.77,2.24,-0.02,-0.32,-0.42,949.41
15.624,-0.48,0.01,0.11,1.39,-9.77,2.24,-0.02,-0.32,-0.42,949.41
15.625,-0.48,0.01,0.11,0.50,-8.52,1.79,-0.02,-0.32,-0.42,949.41
15.632,-0.48,0.01,0.11,0.50,-8.52,1.79,-0.08,0.24,-0.25,949.41
15.665,-0.48,0.01,0.11,0.50,-8.52,1.79,-0.08,0.24,-0.25,949.41
15.686,-0.30,-0.16,0.20,0.50,-8.52,1.79,-0.08,0.24,-0.25,949.41
15.687,-0.30,-0.16,0.20,-1.34,-6.84,1.02,-0.08,0.24,-0.25,949.41
15.699,-0.30,-0.16,0.20,-1.34,-6.84,1.02,0.30,0.02,0.33,949.41
15.732,-0.30,-0.16,0.20,-1.34,-6.84,1.02,0.30,0.02,0.33,949.44
15.749,-0.37,-0.62,0.21,-1.34,-6.84,1.02,0.30,0.02,0.33,949.44
15.751,-0.37,-0.62,0.21,-0.98,-2.06,1.21,0.30,0.02,0.33,949.44
15.759,-0.37,-0.62,0.21,-0.98,-2.06,1.21,0.56,0.38,0.49,949.44
15.798,-0.37,-0.62,0.21,-0.98,-2.06,1.21,0.56,0.38,0.49,949.44
15.813,-0.61,-1.42,0.24,-0.98,-2.06,1.21,0.56,0.38,0.49,949.44
15.814,-0.61,-1.42,0.24,1.22,5.81,0.72,0.56,0.38,0.49,949.44
15.831,-0.61,-1.42,0.24,1.22,5.81,0.72,-0.03,0.76,-0.18,949.44
15.865,-0.61,-1.42,0.24,1.22,5.81,0.72,-0.03,0.76,-0.18,949.50
15.876,-0.61,-1.42,0.24,3.44,5.03,1.49,-0.03,0.76,-0.18,949.50
15.877,-0.82,-1.36,0.12,3.44,5.03,1.49,-0.03,0.76,-0.18,949.50
15.885,-0.82,-1.36,0.12,3.44,5.03,1.49,-0.51,0.16,-0.50,949.50
15.931,-0.82,-1.36,0.12,3.44,5.03,1.49,-0.51,0.16,-0.50,949.50
15.94,-0.60,-0.96,0.06,3.44,5.03,1.49,-0.51,0.16,-0.50,949.50
15.941,-0.60,-0.96,0.06,1.46,0.98,2.01,-0.51,0.16,-0.50,949.50
15.95,-0.60,-0.96,0.06,1.46,0.98,2.01,-0.35,0.01,-0.16,949.50
15.999,-0.60,-0.96,0.06,1.46,0.98,2.01,-0.35,0.01,-0.16,949.56
16.003,-0.60,-0.96,0.06,0.18,-2.39,3.32,-0.35,0.01,-0.16,949.56
16.004,-0.48,-0.62,-0.10,0.18,-2.39,3.32,-0.35,0.01,-0.16,949.56
16.015,-0.48,-0.62,-0.10,0.18,-2.39,3.32,-0.44,-0.14,0.07,949.56
16.066,-0.48,-0.62,-0.10,0.18,-2.39,3.32,-0.44,-0.14,0.07,949.56
16.067,-0.46,-0.81,-0.05,0.18,-2.39,3.32,-0.44,-0.14,0.07,949.56
16.069,-0.46,-0.81,-0.05,0.17,-0.66,2.60,-0.44,-0.14,0.07,949.56
16.076,-0.46,-0.81,-0.05,0.17,-0.66,2.60,-0.73,-0.51,-0.19,949.56
16.13,-0.48,-0.92,0.01,0.17,-0.66,2.60,-0.73,-0.51,-0.19,949.56
16.131,-0.48,-0.92,0.01,0.60,0.20,1.62,-0.73,-0.51,-0.19,949.56
16.132,-0.48,-0.92,0.01,0.60,0.20,1.62,-0.73,-0.51,-0.19,949.56
16.14,-0.48,-0.92,0.01,0.60,0.20,1.62,-0.93,-0.38,-0.38,949.56
16.194,-0.61,-0.97,0.18,0.60,0.20,1.62,-0.93,-0.38,-0.38,949.56
16.196,-0.61,-0.97,0.18,2.03,0.48,-0.57,-0.93,-0.38,-0.38,949.56
16.198,-0.61,-0.97,0.18,2.03,0.48,-0.57,-0.93,-0.38,-0.38,949.62
16.203,-0.61,-0.97,0.18,2.03,0.48,-0.57,-0.90,-0.19,-0.33,949.62
16.257,-0.59,-0.80,0.25,2.03,0.48,-0.57,-0.90,-0.19,-0.33,949.62
16.258,-0.59,-0.80,0.25,2.00,-1.27,-1.59,-0.90,-0.19,-0.33,949.62
16.265,-0.59,-0.80,0.25,2.00,-1.27,-1.59,-0.90,-0.19,-0.33,949.62
16.267,-0.59,-0.80,0.25,2.00,-1.27,-1.59,-0.69,-0.33,-0.27,949.62
16.321,-0.60,-0.67,0.25,2.00,-1.27,-1.59,-0.69,-0.33,-0.27,949.62
16.324,-0.60,-0.67,0.25,2.24,-2.63,-1.82,-0.69,-0.33,-0.27,949.62
16.329,-0.60,-0.67,0.25,2.24,-2.63,-1.82,-0.55,-0.15,-0.27,949.62
16.331,-0.60,-0.67,0.25,2.24,-2.63,-1.82,-0.55,-0.15,-0.27,949.66
16.386,-0.65,-0.72,0.29,2.24,-2.63,-1.82,-0.55,-0.15,-0.27,949.66
16.388,-0.65,-0.72,0.29,2.84,-2.16,-2.39,-0.55,-0.15,-0.27,949.66
16.423,-0.65,-0.72,0.29,2.84,-2.16,-2.39,-0.19,-0.26,-0.13,949.66
16.425,-0.65,-0.72,0.29,2.84,-2.16,-2.39,-0.19,-0.26,-0.13,949.66
16.446,-0.64,-0.90,0.24,2.84,-2.16,-2.39,-0.19,-0.26,-0.13,949.66
16.447,-0.64,-0.90,0.24,2.85,-0.43,-1.83,-0.19,-0.26,-0.13,949.66
16.455,-0.64,-0.90,0.24,2.85,-0.43,-1.83,0.23,0.17,-0.13,949.66
16.465,-0.64,-0.90,0.24,2.85,-0.43,-1.83,0.23,0.17,-0.13,949.70
16.517,-0.59,-0.89,0.04,2.85,-0.43,-1.83,0.23,0.17,-0.13,949.70
16.518,-0.59,-0.89,0.04,2.39,-0.53,0.34,0.23,0.17,-0.13,949.70
16.521,-0.59,-0.89,0.04,2.39,-0.53,0.34,0.28,-0.12,-0.04,949.70
16.543,-0.59,-0.89,0.04,2.39,-0.53,0.34,0.28,-0.12,-0.04,949.70
16.572,-0.57,-1.08,-0.03,2.39,-0.53,0.34,0.28,-0.12,-0.04,949.70
16.573,-0.57,-1.08,-0.03,2.20,1.30,1.17,0.28,-0.12,-0.04,949.70
16.582,-0.57,-1.08,-0.03,2.20,1.30,1.17,0.16,-0.03,-0.10,949.70
16.598,-0.57,-1.08,-0.03,2.20,1.30,1.17,0.16,-0.03,-0.10,949.70
16.637,-0.37,-0.85,-0.21,2.20,1.30,1.17,0.16,-0.03,-0.10,949.70
16.639,-0.37,-0.85,-0.21,0.21,-0.92,3.12,0.16,-0.03,-0.10,949.70
16.652,-0.37,-0.85,-0.21,0.21,-0.92,3.12,0.37,0.04,0.03,949.70
16.687,-0.37,-0.85,-0.21,0.21,-0.92,3.12,0.37,0.04,0.03,949.78
16.701,-0.35,-1.12,-0.53,0.21,-0.92,3.12,0.37,0.04,0.03,949.78
16.701,-0.35,-1.12,-0.53,-0.03,1.79,6.14,0.37,0.04,0.03,949.78
16.709,-0.35,-1.12,-0.53,-0.03,1.79,6.14,-0.20,0.46,-0.00,949.78
16.732,-0.35,-1.12,-0.53,-0.03,1.79,6.14,-0.20,0.46,-0.00,949.78
16.763,-0.25,-0.86,-0.84,-0.03,1.79,6.14,-0.20,0.46,-0.00,949.78
16.765,-0.25,-0.86,-0.84,-0.90,-0.83,8.63,-0.20,0.46,-0.00,949.78
16.772,-0.25,-0.86,-0.84,-0.90,-0.83,8.63,-1.67,-1.53,-0.10,949.78
16.799,-0.25,-0.86,-0.84,-0.90,-0.83,8.63,-1.67,-1.53,-0.10,949.78
16.828,-0.25,-0.86,-0.84,2.63,1.72,6.91,-1.67,-1.53,-0.10,949.78
16.829,-0.61,-1.12,-0.77,2.63,1.72,6.91,-1.67,-1.53,-0.10,949.78
16.836,-0.61,-1.12,-0.77,2.63,1.72,6.91,-2.60,-2.49,0.13,949.78
16.866,-0.61,-1.12,-0.77,2.63,1.72,6.91,-2.60,-2.49,0.13,949.78
16.89,-0.61,-1.12,-0.77,0.57,1.64,-1.60,-2.60,-2.49,0.13,949.78
16.892,-0.44,-1.09,0.03,0.57,1.64,-1.60,-2.60,-2.49,0.13,949.78
16.899,-0.44,-1.09,0.03,0.57,1.64,-1.60,-1.54,-2.55,0.38,949.78
16.934,-0.44,-1.09,0.03,0.57,1.64,-1.60,-1.54,-2.55,0.38,949.97
16.959,-0.44,-1.09,0.03,-9.18,-0.89,-3.55,-1.54,-2.55,0.38,949.97
16.961,0.52,-0.82,0.25,-9.18,-0.89,-3.55,-1.54,-2.55,0.38,949.97
16.964,0.52,-0.82,0.25,-9.18,-0.89,-3.55,-0.72,-0.94,0.26,949.97
16.998,0.52,-0.82,0.25,-9.18,-0.89,-3.55,-0.72,-0.94,0.26,949.97
17.016,-0.41,-0.91,0.50,-9.18,-0.89,-3.55,-0.72,-0.94,0.26,949.97
17.018,-0.41,-0.91,0.50,0.09,0.00,-6.33,-0.72,-0.94,0.26,949.97
17.025,-0.41,-0.91,0.50,0.09,0.00,-6.33,0.99,2.02,0.22,949.97
17.069,-0.41,-0.91,0.50,0.09,0.00,-6.33,0.99,2.02,0.22,949.87
17.1,-0.41,-0.91,0.50,-0.24,-1.63,-3.52,0.99,2.02,0.22,949.87
17.102,-0.39,-0.75,0.30,-0.24,-1.63,-3.52,0.99,2.02,0.22,949.87
17.102,-0.39,-0.75,0.30,-0.24,-1.63,-3.52,1.59,0.42,0.21,949.87
17.132,-0.39,-0.75,0.30,-0.24,-1.63,-3.52,1.59,0.42,0.21,949.87
17.142,-0.52,-0.86,0.10,-0.24,-1.63,-3.52,1.59,0.42,0.21,949.87
17.143,-0.52,-0.86,0.10,1.04,-0.59,-0.82,1.59,0.42,0.21,949.87
17.152,-0.52,-0.86,0.10,1.04,-0.59,-0.82,1.69,0.84,-0.06,949.87
17.204,-0.52,-0.86,0.10,1.04,-0.59,-0.82,1.69,0.84,-0.06,949.87
17.206,-0.73,-0.99,-0.16,1.04,-0.59,-0.82,1.69,0.84,-0.06,949.87
17.207,-0.73,-0.99,-0.16,3.06,0.74,2.46,1.69,0.84,-0.06,949.87
17.236,-0.73,-0.99,-0.16,3.06,0.74,2.46,1.50,0.14,0.05,949.87
17.265,-0.73,-0.99,-0.16,3.06,0.74,2.46,1.50,0.14,0.05,949.82
17.269,-0.66,-0.84,-0.23,3.06,0.74,2.46,1.50,0.14,0.05,949.82
17.27,-0.66,-0.84,-0.23,2.34,-0.59,3.95,1.50,0.14,0.05,949.82
17.28,-0.66,-0.84,-0.23,2.34,-0.59,3.95,1.28,0.26,0.08,949.82
17.332,-0.66,-0.84,-0.23,2.34,-0.59,3.95,1.28,0.26,0.08,949.82
17.334,-0.65,-0.78,-0.27,2.34,-0.59,3.95,1.28,0.26,0.08,949.82
17.334,-0.65,-0.78,-0.27,2.10,-1.05,4.70,1.28,0.26,0.08,949.82
17.343,-0.65,-0.78,-0.27,2.10,-1.05,4.70,0.81,0.32,0.07,949.82
17.396,-0.43,-0.76,-0.12,2.10,-1.05,4.70,0.81,0.32,0.07,949.82
17.398,-0.43,-0.76,-0.12,-0.05,-1.18,3.44,0.81,0.32,0.07,949.82
17.399,-0.43,-0.76,-0.12,-0.05,-1.18,3.44,0.81,0.32,0.07,949.81
17.406,-0.43,-0.76,-0.12,-0.05,-1.18,3.44,0.36,0.22,-0.09,949.81
17.46,-0.52,-0.80,-0.04,-0.05,-1.18,3.44,0.36,0.22,-0.09,949.81
17.462,-0.52,-0.80,-0.04,0.91,-0.91,2.59,0.36,0.22,-0.09,949.81
17.465,-0.52,-0.80,-0.04,0.91,-0.91,2.59,0.36,0.22,-0.09,949.81
17.469,-0.52,-0.80,-0.04,0.91,-0.91,2.59,0.12,0.44,-0.30,949.81
17.524,-0.57,-1.02,0.04,0.91,-0.91,2.59,0.12,0.44,-0.30,949.81
17.526,-0.57,-1.02,0.04,1.61,1.17,1.69,0.12,0.44,-0.30,949.81
17.532,-0.57,-1.02,0.04,1.61,1.17,1.69,0.12,0.44,-0.30,949.80
17.533,-0.57,-1.02,0.04,1.61,1.17,1.69,-0.02,0.34,-0.38,949.80
17.587,-0.45,-0.96,0.02,1.61,1.17,1.69,-0.02,0.34,-0.38,949.80
17.588,-0.45,-0.96,0.02,0.49,0.61,1.88,-0.02,0.34,-0.38,949.80
17.607,-0.45,-0.96,0.02,0.49,0.61,1.88,0.11,-0.07,-0.07,949.80
17.608,-0.45,-0.96,0.02,0.49,0.61,1.88,0.11,-0.07,-0.07,949.80
17.652,-0.48,-0.92,0.05,0.49,0.61,1.88,0.11,-0.07,-0.07,949.80
17.653,-0.48,-0.92,0.05,0.84,0.19,1.65,0.11,-0.07,-0.07,949.80
17.66,-0.48,-0.92,0.05,0.84,0.19,1.65,-0.13,-0.60,-0.11,949.80
17.667,-0.48,-0.92,0.05,0.84,0.19,1.65,-0.13,-0.60,-0.11,949.80
17.713,-0.41,-0.74,0.08,0.84,0.19,1.65,-0.13,-0.60,-0.11,949.80
17.715,-0.41,-0.74,0.08,0.39,-1.72,1.35,-0.13,-0.60,-0.11,949.80
17.724,-0.41,-0.74,0.08,0.39,-1.72,1.35,-0.30,-0.46,-0.20,949.80
17.732,-0.41,-0.74,0.08,0.39,-1.72,1.35,-0.30,-0.46,-0.20,949.81
17.777,-0.47,-0.90,0.09,0.39,-1.72,1.35,-0.30,-0.46,-0.20,949.81
17.779,-0.47,-0.90,0.09,1.05,-0.24,1.07,-0.30,-0.46,-0.20,949.81
17.786,-0.47,-0.90,0.09,1.05,-0.24,1.07,-0.39,-0.15,-0.18,949.81
17.801,-0.47,-0.90,0.09,1.05,-0.24,1.07,-0.39,-0.15,-0.18,949.81
17.839,-0.54,-0.97,0.05,1.05,-0.24,1.07,-0.39,-0.15,-0.18,949.81
17.841,-0.54,-0.97,0.05,1.86,0.37,1.31,-0.39,-0.15,-0.18,949.81
17.849,-0.54,-0.97,0.05,1.86,0.37,1.31,-0.41,-0.50,-0.06,949.81
17.868,-0.54,-0.97,0.05,1.86,0.37,1.31,-0.41,-0.50,-0.06,949.83
17.903,-0.62,-0.93,-0.04,1.86,0.37,1.31,-0.41,-0.50,-0.06,949.83
17.905,-0.62,-0.93,-0.04,2.65,0.03,2.10,-0.41,-0.50,-0.06,949.83
17.914,-0.62,-0.93,-0.04,2.65,0.03,2.10,-0.47,-0.64,0.20,949.83
17.935,-0.62,-0.93,-0.04,2.65,0.03,2.10,-0.47,-0.64,0.20,949.83
17.966,-0.62,-0.93,-0.04,3.42,0.11,2.92,-0.47,-0.64,0.20,949.83
17.968,-0.72,-0.94,-0.14,3.42,0.11,2.92,-0.47,-0.64,0.20,949.83
17.975,-0.72,-0.94,-0.14,3.42,0.11,2.92,-0.75,-1.28,0.53,949.83
18.0,-0.72,-0.94,-0.14,3.42,0.11,2.92,-0.75,-1.28,0.53,949.87
18.031,-0.88,-0.89,-0.31,3.42,0.11,2.92,-0.75,-1.28,0.53,949.87
18.032,-0.88,-0.89,-0.31,4.65,-0.26,4.32,-0.75,-1.28,0.53,949.87
18.039,-0.88,-0.89,-0.31,4.65,-0.26,4.32,-1.29,-1.96,1.09,949.87
18.071,-0.88,-0.89,-0.31,4.65,-0.26,4.32,-1.29,-1.96,1.09,949.87
18.093,-0.89,-1.10,-0.11,4.65,-0.26,4.32,-1.29,-1.96,1.09,949.87
18.094,-0.89,-1.10,-0.11,4.04,2.13,2.20,-1.29,-1.96,1.09,949.87
18.102,-0.89,-1.10,-0.11,4.04,2.13,2.20,-1.51,-2.67,1.78,949.87
18.134,-0.89,-1.10,-0.11,4.04,2.13,2.20,-1.51,-2.67,1.78,949.97
18.172,-0.65,-1.24,0.36,4.04,2.13,2.20,-1.51,-2.67,1.78,949.97
18.173,-0.65,-1.24,0.36,0.72,4.11,-2.34,-1.51,-2.67,1.78,949.97
18.174,-0.65,-1.24,0.36,0.72,4.11,-2.34,-0.85,-1.54,2.02,949.97
18.199,-0.65,-1.24,0.36,0.72,4.11,-2.34,-0.85,-1.54,2.02,949.97
18.22,-0.65,-1.24,0.36,1.35,3.04,-6.97,-0.85,-1.54,2.02,949.97
18.22,-0.82,-1.04,0.85,1.35,3.04,-6.97,-0.85,-1.54,2.02,949.97
18.228,-0.82,-1.04,0.85,1.35,3.04,-6.97,0.57,-0.04,2.34,949.97
18.266,-0.82,-1.04,0.85,1.35,3.04,-6.97,0.57,-0.04,2.34,949.97
18.283,-0.82,-1.04,0.85,3.17,1.62,-9.77,0.57,-0.04,2.34,949.97
18.285,-1.12,-0.74,1.22,3.17,1.62,-9.77,0.57,-0.04,2.34,949.97
18.292,-1.12,-0.74,1.22,3.17,1.62,-9.77,2.41,0.04,3.03,949.97
18.332,-1.12,-0.74,1.22,3.17,1.62,-9.77,2.41,0.04,3.03,950.10
18.346,-1.12,-0.74,1.22,-1.50,2.35,-11.12,2.41,0.04,3.03,950.10
18.347,-0.73,-0.57,1.48,-1.50,2.35,-11.12,2.41,0.04,3.03,950.10
18.355,-0.73,-0.57,1.48,-1.50,2.35,-11.12,4.17,-0.44,3.32,950.10
18.399,-0.73,-0.57,1.48,-1.50,2.35,-11.12,4.17,-0.44,3.32,950.10
18.409,-0.03,-0.32,0.95,-1.50,2.35,-11.12,4.17,-0.44,3.32,950.10
18.41,-0.03,-0.32,0.95,-8.50,2.68,-4.86,4.17,-0.44,3.32,950.10
18.419,-0.03,-0.32,0.95,-8.50,2.68,-4.86,4.90,-1.09,2.46,950.10
18.466,-0.03,-0.32,0.95,-8.50,2.68,-4.86,4.90,-1.09,2.46,949.95
18.473,0.82,-0.37,0.42,-8.50,2.68,-4.86,4.90,-1.09,2.46,949.95
18.476,0.82,-0.37,0.42,-16.56,4.83,0.76,4.90,-1.09,2.46,949.95
18.485,0.82,-0.37,0.42,-16.56,4.83,0.76,4.23,-0.57,-0.02,949.95
18.534,0.82,-0.37,0.42,-16.56,4.83,0.76,4.23,-0.57,-0.02,949.95
18.536,0.49,-1.21,-0.15,-16.56,4.83,0.76,4.23,-0.57,-0.02,949.95
18.537,0.49,-1.21,-0.15,-13.56,13.08,5.92,4.23,-0.57,-0.02,949.95
18.546,0.49,-1.21,-0.15,-13.56,13.08,5.92,3.67,0.28,-2.32,949.95
18.6,0.49,-1.21,-0.15,-13.56,13.08,5.92,3.67,0.28,-2.32,949.73
18.602,-0.62,-1.13,-0.58,-13.56,13.08,5.92,3.67,0.28,-2.32,949.73
18.602,-0.62,-1.13,-0.58,-2.80,11.71,9.98,3.67,0.28,-2.32,949.73
18.609,-0.62,-1.13,-0.58,-2.80,11.71,9.98,2.11,-0.15,-2.05,949.73
18.663,-2.21,-0.72,-0.36,-2.80,11.71,9.98,2.11,-0.15,-2.05,949.73
18.665,-2.21,-0.72,-0.36,12.73,7.25,7.81,2.11,-0.15,-2.05,949.73
18.666,-2.21,-0.72,-0.36,12.73,7.25,7.81,2.11,-0.15,-2.05,949.73
18.673,-2.21,-0.72,-0.36,12.73,7.25,7.81,1.62,-0.21,-1.40,949.73
18.726,-2.31,-0.56,-0.11,12.73,7.25,7.81,1.62,-0.21,-1.40,949.73
18.728,-2.31,-0.56,-0.11,13.55,4.92,4.96,1.62,-0.21,-1.40,949.73
18.732,-2.31,-0.56,-0.11,13.55,4.92,4.96,1.62,-0.21,-1.40,949.73
18.735,-2.31,-0.56,-0.11,13.55,4.92,4.96,0.93,1.36,-2.16,949.73
18.789,-1.53,-1.05,-0.05,13.55,4.92,4.96,0.93,1.36,-2.16,949.73
18.792,-1.53,-1.05,-0.05,6.15,6.99,3.56,0.93,1.36,-2.16,949.73
18.799,-1.53,-1.05,-0.05,6.15,6.99,3.56,0.93,1.36,-2.16,949.59
18.8,-1.53,-1.05,-0.05,6.15,6.99,3.56,-1.85,-0.13,-5.13,949.59
18.857,-1.00,-1.28,-0.32,6.15,6.99,3.56,-1.85,-0.13,-5.13,949.59
18.858,-1.00,-1.28,-0.32,3.24,5.81,6.39,-1.85,-0.13,-5.13,949.59
18.888,-1.00,-1.28,-0.32,3.24,5.81,6.39,-4.69,-3.44,-4.58,949.59
18.89,-1.00,-1.28,-0.32,3.24,5.81,6.39,-4.69,-3.44,-4.58,949.59
18.916,-0.51,-0.68,0.25,3.24,5.81,6.39,-4.69,-3.44,-4.58,949.59
18.918,-0.51,-0.68,0.25,0.03,-1.68,-0.63,-4.69,-3.44,-4.58,949.59
18.925,-0.51,-0.68,0.25,0.03,-1.68,-0.63,-4.49,-1.93,-2.01,949.59
18.933,-0.51,-0.68,0.25,0.03,-1.68,-0.63,-4.49,-1.93,-2.01,949.44
18.98,-0.67,-0.47,0.22,0.03,-1.68,-0.63,-4.49,-1.93,-2.01,949.44
18.982,-0.67,-0.47,0.22,2.66,-4.44,-1.66,-4.49,-1.93,-2.01,949.44
18.989,-0.67,-0.47,0.22,2.66,-4.44,-1.66,-2.56,-1.41,-1.63,949.44
18.999,-0.67,-0.47,0.22,2.66,-4.44,-1.66,-2.56,-1.41,-1.63,949.44
19.045,-0.66,-1.12,0.33,2.66,-4.44,-1.66,-2.56,-1.41,-1.63,949.44
19.047,-0.66,-1.12,0.33,2.93,1.75,-3.37,-2.56,-1.41,-1.63,949.44
19.052,-0.66,-1.12,0.33,2.93,1.75,-3.37,-2.57,-3.94,-0.26,949.44
19.066,-0.66,-1.12,0.33,2.93,1.75,-3.37,-2.57,-3.94,-0.26,949.44
19.106,-0.57,-0.64,1.20,2.93,1.75,-3.37,-2.57,-3.94,-0.26,949.44
19.107,-0.57,-0.64,1.20,1.56,-2.72,-12.04,-2.57,-3.94,-0.26,949.44
19.127,-0.57,-0.64,1.20,1.56,-2.72,-12.04,-0.93,-1.57,0.91,949.44
19.132,-0.57,-0.64,1.20,1.56,-2.72,-12.04,-0.93,-1.57,0.91,949.44
19.169,-0.79,-0.03,1.26,1.56,-2.72,-12.04,-0.93,-1.57,0.91,949.44
19.169,-0.79,-0.03,1.26,2.72,-8.20,-12.53,-0.93,-1.57,0.91,949.44
19.178,-0.79,-0.03,1.26,2.72,-8.20,-12.53,1.34,1.11,2.27,949.44
19.199,-0.79,-0.03,1.26,2.72,-8.20,-12.53,1.34,1.11,2.27,949.44
19.239,-0.44,0.21,0.79,2.72,-8.20,-12.53,1.34,1.11,2.27,949.44
19.241,-0.44,0.21,0.79,-2.37,-9.07,-6.08,1.34,1.11,2.27,949.44
19.243,-0.44,0.21,0.79,-2.37,-9.07,-6.08,3.33,-1.13,3.59,949.44
19.266,-0.44,0.21,0.79,-2.37,-9.07,-6.08,3.33,-1.13,3.59,949.59
19.295,-0.19,-0.65,0.78,-2.37,-9.07,-6.08,3.33,-1.13,3.59,949.59
19.295,-0.19,-0.65,0.78,-6.24,1.72,-4.25,3.33,-1.13,3.59,949.59
19.305,-0.19,-0.65,0.78,-6.24,1.72,-4.25,4.09,-0.10,3.92,949.59
19.332,-0.19,-0.65,0.78,-6.24,1.72,-4.25,4.09,-0.10,3.92,949.59
19.36,-0.19,-0.65,0.78,1.73,8.36,-5.61,4.09,-0.10,3.92,949.59
19.361,-1.11,-1.05,0.91,1.73,8.36,-5.61,4.09,-0.10,3.92,949.59
19.373,-1.11,-1.05,0.91,1.73,8.36,-5.61,4.56,2.04,2.42,949.59
19.399,-1.11,-1.05,0.91,1.73,8.36,-5.61,4.56,2.04,2.42,949.80
19.423,-1.64,-1.73,0.06,1.73,8.36,-5.61,4.56,2.04,2.42,949.80
19.424,-1.64,-1.73,0.06,6.91,14.40,2.07,4.56,2.04,2.42,949.80
19.432,-1.64,-1.73,0.06,6.91,14.40,2.07,1.92,1.40,-3.25,949.80
19.465,-1.64,-1.73,0.06,6.91,14.40,2.07,1.92,1.40,-3.25,949.80
19.486,-1.46,-1.16,-1.02,6.91,14.40,2.07,1.92,1.40,-3.25,949.80
19.487,-1.46,-1.16,-1.02,6.96,5.78,13.67,1.92,1.40,-3.25,949.80
19.495,-1.46,-1.16,-1.02,6.96,5.78,13.67,-1.33,-3.50,-5.19,949.80
19.533,-1.46,-1.16,-1.02,6.96,5.78,13.67,-1.33,-3.50,-5.19,949.54
19.551,-1.46,-1.16,-1.02,0.51,-2.61,7.47,-1.33,-3.50,-5.19,949.54
19.552,-0.63,-0.50,-0.45,0.51,-2.61,7.47,-1.33,-3.50,-5.19,949.54
19.558,-0.63,-0.50,-0.45,0.51,-2.61,7.47,-2.91,-0.83,-3.04,949.54
19.599,-0.63,-0.50,-0.45,0.51,-2.61,7.47,-2.91,-0.83,-3.04,949.54
19.615,-0.63,-0.50,-0.45,4.68,-3.78,4.49,-2.91,-0.83,-3.04,949.54
19.617,-0.95,-0.47,-0.20,4.68,-3.78,4.49,-2.91,-0.83,-3.04,949.54
19.622,-0.95,-0.47,-0.20,4.68,-3.78,4.49,-1.40,-1.25,-1.15,949.54
19.666,-0.95,-0.47,-0.20,4.68,-3.78,4.49,-1.40,-1.25,-1.15,949.44
19.676,-1.10,-0.83,0.29,4.68,-3.78,4.49,-1.40,-1.25,-1.15,949.44
19.679,-1.10,-0.83,0.29,6.23,-0.34,-0.69,-1.40,-1.25,-1.15,949.44
19.686,-1.10,-0.83,0.29,6.23,-0.34,-0.69,-1.45,-1.71,0.80,949.44
19.732,-1.10,-0.83,0.29,6.23,-0.34,-0.69,-1.45,-1.71,0.80,949.44
19.739,-0.45,-0.20,1.08,6.23,-0.34,-0.69,-1.45,-1.71,0.80,949.44
19.74,-0.45,-0.20,1.08,-0.57,-6.17,-7.93,-1.45,-1.71,0.80,949.44
19.748,-0.45,-0.20,1.08,-0.57,-6.17,-7.93,0.11,-1.35,1.63,949.44
19.8,-0.45,-0.20,1.08,-0.57,-6.17,-7.93,0.11,-1.35,1.63,949.44
19.802,-0.40,0.05,0.92,-0.57,-6.17,-7.93,0.11,-1.35,1.63,949.44
19.803,-0.40,0.05,0.92,-2.37,-7.46,-5.84,0.11,-1.35,1.63,949.44
19.812,-0.40,0.05,0.92,-2.37,-7.46,-5.84,1.79,0.38,2.62,949.44
19.867,-0.21,-0.06,0.76,-2.37,-7.46,-5.84,1.79,0.38,2.62,949.44
19.869,-0.21,-0.06,0.76,-5.91,-4.13,-3.99,1.79,0.38,2.62,949.44
19.87,-0.21,-0.06,0.76,-5.91,-4.13,-3.99,1.79,0.38,2.62,949.56
19.875,-0.21,-0.06,0.76,-5.91,-4.13,-3.99,3.25,2.10,3.72,949.56
19.93,-0.96,-0.60,0.70,-5.91,-4.13,-3.99,3.25,2.10,3.72,949.56
19.931,-0.96,-0.60,0.70,0.44,4.09,-3.14,3.25,2.10,3.72,949.56
19.932,-0.96,-0.60,0.70,0.44,4.09,-3.14,3.25,2.10,3.72,949.56
19.939,-0.96,-0.60,0.70,0.44,4.09,-3.14,3.76,0.64,3.63,949.56
19.993,-1.53,-0.90,0.17,0.44,4.09,-3.14,3.76,0.64,3.63,949.56
19.996,-1.53,-0.90,0.17,5.84,7.69,1.84,3.76,0.64,3.63,949.56
19.999,-1.53,-0.90,0.17,5.84,7.69,1.84,3.76,0.64,3.63,949.66
20.002,-1.53,-0.90,0.17,5.84,7.69,1.84,1.49,0.22,-1.34,949.66
20.057,-1.40,-1.43,-0.63,5.84,7.69,1.84,1.49,0.22,-1.34,949.66
20.058,-1.40,-1.43,-0.63,6.21,9.41,10.58,1.49,0.22,-1.34,949.66
20.07,-1.40,-1.43,-0.63,6.21,9.41,10.58,-2.00,-2.78,-6.28,949.66
20.072,-1.40,-1.43,-0.63,6.21,9.41,10.58,-2.00,-2.78,-6.28,949.66
20.119,-1.02,-0.75,-0.58,6.21,9.41,10.58,-2.00,-2.78,-6.28,949.66
20.12,-1.02,-0.75,-0.58,4.17,0.12,9.00,-2.00,-2.78,-6.28,949.66
20.128,-1.02,-0.75,-0.58,4.17,0.12,9.00,-3.68,0.24,-3.59,949.66
20.133,-1.02,-0.75,-0.58,4.17,0.12,9.00,-3.68,0.24,-3.59,949.51
20.193,-1.32,-0.53,0.02,4.17,0.12,9.00,-3.68,0.24,-3.59,949.51
20.195,-1.32,-0.53,0.02,8.38,-3.31,1.96,-3.68,0.24,-3.59,949.51
20.196,-1.32,-0.53,0.02,8.38,-3.31,1.96,-2.26,-1.59,-1.36,949.51
20.223,-1.32,-0.53,0.02,8.38,-3.31,1.96,-2.26,-1.59,-1.36,949.51
20.245,-0.91,-0.67,0.76,8.38,-3.31,1.96,-2.26,-1.59,-1.36,949.51
20.246,-0.91,-0.67,0.76,4.08,-1.76,-5.33,-2.26,-1.59,-1.36,949.51
20.256,-0.91,-0.67,0.76,4.08,-1.76,-5.33,-1.24,-1.92,1.41,949.51
20.266,-0.91,-0.67,0.76,4.08,-1.76,-5.33,-1.24,-1.92,1.41,949.51
20.308,-0.47,-0.05,0.91,4.08,-1.76,-5.33,-1.24,-1.92,1.41,949.51
20.309,-0.47,-0.05,0.91,-0.99,-7.27,-6.46,-1.24,-1.92,1.41,949.51
20.327,-0.47,-0.05,0.91,-0.99,-7.27,-6.46,0.16,-0.86,1.69,949.51
20.332,-0.47,-0.05,0.91,-0.99,-7.27,-6.46,0.16,-0.86,1.69,949.60
20.372,-0.43,-0.13,0.84,-0.99,-7.27,-6.46,0.16,-0.86,1.69,949.60
20.374,-0.43,-0.13,0.84,-2.33,-5.46,-5.02,0.16,-0.86,1.69,949.60
20.381,-0.43,-0.13,0.84,-2.33,-5.46,-5.02,1.59,-0.84,2.45,949.60
20.399,-0.43,-0.13,0.84,-2.33,-5.46,-5.02,1.59,-0.84,2.45,949.60
20.443,0.10,-0.38,0.57,-2.33,-5.46,-5.02,1.59,-0.84,2.45,949.60
20.444,0.10,-0.38,0.57,-8.57,-0.96,-1.32,1.59,-0.84,2.45,949.60
20.446,0.10,-0.38,0.57,-8.57,-0.96,-1.32,3.35,0.81,3.18,949.60
20.472,0.10,-0.38,0.57,-8.57,-0.96,-1.32,3.35,0.81,3.18,949.77
20.499,-0.84,-0.82,0.68,-8.57,-0.96,-1.32,3.35,0.81,3.18,949.77
20.5,-0.84,-0.82,0.68,-0.53,6.18,-2.39,3.35,0.81,3.18,949.77
20.508,-0.84,-0.82,0.68,-0.53,6.18,-2.39,4.04,1.35,3.10,949.77
20.532,-0.84,-0.82,0.68,-0.53,6.18,-2.39,4.04,1.35,3.10,949.77
20.565,-0.84,-0.82,0.68,7.06,9.53,3.06,4.04,1.35,3.10,949.77
20.566,-1.63,-1.12,0.10,7.06,9.53,3.06,4.04,1.35,3.10,949.77
20.583,-1.63,-1.12,0.10,7.06,9.53,3.06,1.09,0.39,-1.81,949.77
20.611,-1.63,-1.12,0.10,7.06,9.53,3.06,1.09,0.39,-1.81,949.63
20.625,-1.82,-1.09,-0.88,7.06,9.53,3.06,1.09,0.39,-1.81,949.63
20.625,-1.82,-1.09,-0.88,10.49,5.68,13.01,1.09,0.39,-1.81,949.63
20.634,-1.82,-1.09,-0.88,10.49,5.68,13.01,-2.13,-2.72,-6.23,949.63
20.665,-1.82,-1.09,-0.88,10.49,5.68,13.01,-2.13,-2.72,-6.23,949.63
20.69,-0.74,-0.64,-0.18,10.49,5.68,13.01,-2.13,-2.72,-6.23,949.63
20.691,-0.74,-0.64,-0.18,2.24,-1.42,5.52,-2.13,-2.72,-6.23,949.63
20.698,-0.74,-0.64,-0.18,2.24,-1.42,5.52,-4.26,-0.76,-3.26,949.63
20.733,-0.74,-0.64,-0.18,2.24,-1.42,5.52,-4.26,-0.76,-3.26,949.63
20.754,-1.51,-0.75,0.44,2.24,-1.42,5.52,-4.26,-0.76,-3.26,949.63
20.755,-1.51,-0.75,0.44,10.61,-1.11,-1.39,-4.26,-0.76,-3.26,949.63
20.762,-1.51,-0.75,0.44,10.61,-1.11,-1.39,-1.85,-3.52,-0.26,949.63
20.799,-1.51,-0.75,0.44,10.61,-1.11,-1.39,-1.85,-3.52,-0.26,949.57
20.815,-0.21,-0.43,0.91,10.61,-1.11,-1.39,-1.85,-3.52,-0.26,949.57
20.816,-0.21,-0.43,0.91,-2.57,-3.96,-5.83,-1.85,-3.52,-0.26,949.57
20.825,-0.21,-0.43,0.91,-2.57,-3.96,-5.83,-0.23,0.03,1.48,949.57
20.866,-0.21,-0.43,0.91,-2.57,-3.96,-5.83,-0.23,0.03,1.48,949.57
20.881,-0.21,-0.43,0.91,1.35,-7.55,-4.51,-0.23,0.03,1.48,949.57
20.883,-0.73,0.03,0.80,1.35,-7.55,-4.51,-0.23,0.03,1.48,949.57
20.889,-0.73,0.03,0.80,1.35,-7.55,-4.51,1.16,-0.48,2.47,949.57
20.933,-0.73,0.03,0.80,1.35,-7.55,-4.51,1.16,-0.48,2.47,949.75
20.942,0.12,0.01,0.59,1.35,-7.55,-4.51,1.16,-0.48,2.47,949.75
20.943,0.12,0.01,0.59,-7.79,-5.61,-0.93,1.16,-0.48,2.47,949.75
20.951,0.12,0.01,0.59,-7.79,-5.61,-0.93,2.54,-1.02,2.89,949.75
21.0,0.12,0.01,0.59,-7.79,-5.61,-0.93,2.54,-1.02,2.89,949.75
21.005,0.22,-0.33,0.65,-7.79,-5.61,-0.93,2.54,-1.02,2.89,949.75
21.006,0.22,-0.33,0.65,-9.78,-0.22,-1.18,2.54,-1.02,2.89,949.75
21.015,0.22,-0.33,0.65,-9.78,-0.22,-1.18,3.23,1.80,2.47,949.75
21.067,0.22,-0.33,0.65,-9.78,-0.22,-1.18,3.23,1.80,2.47,949.87
21.069,-0.89,-0.55,0.46,-9.78,-0.22,-1.18,3.23,1.80,2.47,949.87
21.07,-0.89,-0.55,0.46,0.15,4.29,0.31,3.23,1.80,2.47,949.87
21.078,-0.89,-0.55,0.46,0.15,4.29,0.31,3.44,1.42,1.97,949.87
21.133,-2.19,-1.14,0.23,0.15,4.29,0.31,3.44,1.42,1.97,949.87
21.134,-2.19,-1.14,0.23,12.93,9.93,2.58,3.44,1.42,1.97,949.87
21.135,-2.19,-1.14,0.23,12.93,9.93,2.58,3.44,1.42,1.97,949.87
21.142,-2.19,-1.14,0.23,12.93,9.93,2.58,0.97,-0.49,-2.37,949.87
21.197,-2.04,-1.35,-0.03,12.93,9.93,2.58,0.97,-0.49,-2.37,949.87
21.199,-2.04,-1.35,-0.03,12.64,8.60,5.00,0.97,-0.49,-2.37,949.87
21.202,-2.04,-1.35,-0.03,12.64,8.60,5.00,0.97,-0.49,-2.37,949.62
21.205,-2.04,-1.35,-0.03,12.64,8.60,5.00,-2.44,-0.04,-5.70,949.62
21.264,-2.04,-1.35,-0.03,5.70,-6.07,5.94,-2.44,-0.04,-5.70,949.62
21.267,-1.17,-0.10,-0.22,5.70,-6.07,5.94,-2.44,-0.04,-5.70,949.62
21.269,-1.17,-0.10,-0.22,5.70,-6.07,5.94,-2.44,-0.04,-5.70,949.62
21.269,-1.17,-0.10,-0.22,5.70,-6.07,5.94,-2.99,-0.59,-3.47,949.62
21.322,-1.34,-0.74,-0.01,5.70,-6.07,5.94,-2.99,-0.59,-3.47,949.62
21.323,-1.34,-0.74,-0.01,8.34,-0.77,3.32,-2.99,-0.59,-3.47,949.62
21.331,-1.34,-0.74,-0.01,8.34,-0.77,3.32,-2.24,-3.76,-0.51,949.62
21.332,-1.34,-0.74,-0.01,8.34,-0.77,3.32,-2.24,-3.76,-0.51,949.62
21.399,0.03,-0.31,0.94,8.34,-0.77,3.32,-2.24,-3.76,-0.51,949.62
21.4,0.03,-0.31,0.94,-4.96,-4.88,-5.54,-2.24,-3.76,-0.51,949.62
21.402,0.03,-0.31,0.94,-4.96,-4.88,-5.54,-0.34,-0.57,1.13,949.62
21.402,0.03,-0.31,0.94,-4.96,-4.88,-5.54,-0.34,-0.57,1.13,949.55
21.45,-0.46,0.11,0.64,-4.96,-4.88,-5.54,-0.34,-0.57,1.13,949.55
21.451,-0.46,0.11,0.64,-1.12,-8.36,-2.52,-0.34,-0.57,1.13,949.55
21.462,-0.46,0.11,0.64,-1.12,-8.36,-2.52,0.75,-0.02,1.74,949.55
21.466,-0.46,0.11,0.64,-1.12,-8.36,-2.52,0.75,-0.02,1.74,949.55
21.512,-0.46,0.11,0.64,-5.78,-6.93,-0.56,0.75,-0.02,1.74,949.55
21.513,-0.06,0.10,0.52,-5.78,-6.93,-0.56,0.75,-0.02,1.74,949.55
21.54,-0.06,0.10,0.52,-5.78,-6.93,-0.56,1.71,-0.22,2.20,949.55
21.541,-0.06,0.10,0.52,-5.78,-6.93,-0.56,1.71,-0.22,2.20,949.67
21.575,-0.06,0.10,0.52,-5.45,-3.28,0.36,1.71,-0.22,2.20,949.67
21.578,-0.21,-0.11,0.44,-5.45,-3.28,0.36,1.71,-0.22,2.20,949.67
21.586,-0.21,-0.11,0.44,-5.45,-3.28,0.36,2.25,1.69,2.53,949.67
21.599,-0.21,-0.11,0.44,-5.45,-3.28,0.36,2.25,1.69,2.53,949.67
21.639,-0.21,-0.11,0.44,-1.84,0.50,0.65,2.25,1.69,2.53,949.67
21.64,-0.70,-0.26,0.37,-1.84,0.50,0.65,2.25,1.69,2.53,949.67
21.648,-0.70,-0.26,0.37,-1.84,0.50,0.65,3.03,1.51,2.81,949.67
21.666,-0.70,-0.26,0.37,-1.84,0.50,0.65,3.03,1.51,2.81,949.69
21.71,-1.52,-0.90,0.58,-1.84,0.50,0.65,3.03,1.51,2.81,949.69
21.711,-1.52,-0.90,0.58,6.11,7.60,-1.27,3.03,1.51,2.81,949.69
21.712,-1.52,-0.90,0.58,6.11,7.60,-1.27,1.48,0.14,-0.69,949.69
21.732,-1.52,-0.90,0.58,6.11,7.60,-1.27,1.48,0.14,-0.69,949.69
21.765,-1.52,-0.90,0.58,11.35,11.13,1.12,1.48,0.14,-0.69,949.69
21.767,-1.95,-1.57,0.34,11.35,11.13,1.12,1.48,0.14,-0.69,949.69
21.775,-1.95,-1.57,0.34,11.35,11.13,1.12,-2.65,-0.82,-5.80,949.69
21.799,-1.95,-1.57,0.34,11.35,11.13,1.12,-2.65,-0.82,-5.80,949.69
21.829,-1.59,-0.61,-0.45,11.35,11.13,1.12,-2.65,-0.82,-5.80,949.69
21.831,-1.59,-0.61,-0.45,10.00,-1.42,7.81,-2.65,-0.82,-5.80,949.69
21.84,-1.59,-0.61,-0.45,10.00,-1.42,7.81,-4.27,-2.00,-4.29,949.69
21.865,-1.59,-0.61,-0.45,10.00,-1.42,7.81,-4.27,-2.00,-4.29,949.54
21.892,-1.40,-0.77,0.49,10.00,-1.42,7.81,-4.27,-2.00,-4.29,949.54
21.893,-1.40,-0.77,0.49,9.57,-1.19,-2.87,-4.27,-2.00,-4.29,949.54
21.901,-1.40,-0.77,0.49,9.57,-1.19,-2.87,-2.57,-1.18,-1.72,949.54
21.933,-1.40,-0.77,0.49,9.57,-1.19,-2.87,-2.57,-1.18,-1.72,949.54
21.957,-0.56,-0.39,0.89,9.57,-1.19,-2.87,-2.57,-1.18,-1.72,949.54
21.958,-0.56,-0.39,0.89,0.86,-4.61,-6.44,-2.57,-1.18,-1.72,949.54
21.965,-0.56,-0.39,0.89,0.86,-4.61,-6.44,0.09,-0.60,1.53,949.54
21.999,-0.56,-0.39,0.89,0.86,-4.61,-6.44,0.09,-0.60,1.53,949.56
22.018,-0.55,-0.17,0.64,0.86,-4.61,-6.44,0.09,-0.60,1.53,949.56
22.019,-0.55,-0.17,0.64,0.01,-6.05,-3.23,0.09,-0.60,1.53,949.56
22.028,-0.55,-0.17,0.64,0.01,-6.05,-3.23,1.15,-1.28,2.05,949.56
22.067,-0.55,-0.17,0.64,0.01,-6.05,-3.23,1.15,-1.28,2.05,949.56
22.082,-0.55,-0.17,0.64,-6.90,-7.73,1.54,1.15,-1.28,2.05,949.56
22.084,0.07,0.13,0.28,-6.90,-7.73,1.54,1.15,-1.28,2.05,949.56
22.113,0.07,0.13,0.28,-6.90,-7.73,1.54,1.64,-0.97,2.41,949.56
22.133,0.07,0.13,0.28,-6.90,-7.73,1.54,1.64,-0.97,2.41,949.72
22.145,-0.06,-0.14,0.45,-6.90,-7.73,1.54,1.64,-0.97,2.41,949.72
22.147,-0.06,-0.14,0.45,-7.14,-3.46,-0.50,1.64,-0.97,2.41,949.72
22.154,-0.06,-0.14,0.45,-7.14,-3.46,-0.50,1.98,2.96,2.65,949.72
22.2,-0.06,-0.14,0.45,-7.14,-3.46,-0.50,1.98,2.96,2.65,949.72
22.226,-0.34,-0.27,0.38,-7.14,-3.46,-0.50,1.98,2.96,2.65,949.72
22.228,-0.34,-0.27,0.38,-5.48,-0.20,-0.37,1.98,2.96,2.65,949.72
22.229,-0.34,-0.27,0.38,-5.48,-0.20,-0.37,2.75,1.80,2.67,949.72
22.266,-0.34,-0.27,0.38,-5.48,-0.20,-0.37,2.75,1.80,2.67,949.72
22.271,-1.09,-0.58,0.30,-5.48,-0.20,-0.37,2.75,1.80,2.67,949.72
22.272,-1.09,-0.58,0.30,1.35,4.80,0.18,2.75,1.80,2.67,949.72
22.281,-1.09,-0.58,0.30,1.35,4.80,0.18,2.99,0.99,1.60,949.72
22.333,-1.09,-0.58,0.30,1.35,4.80,0.18,2.99,0.99,1.60,949.81
22.335,-1.09,-0.58,0.30,16.82,7.81,2.27,2.99,0.99,1.60,949.81
22.336,-2.66,-1.02,0.05,16.82,7.81,2.27,2.99,0.99,1.60,949.81
22.345,-2.66,-1.02,0.05,16.82,7.81,2.27,-0.25,-0.27,-3.84,949.81
22.398,-1.40,-0.87,-0.47,16.82,7.81,2.27,-0.25,-0.27,-3.84,949.81
22.401,-1.40,-0.87,-0.47,6.90,2.49,8.42,-0.25,-0.27,-3.84,949.81
22.402,-1.40,-0.87,-0.47,6.90,2.49,8.42,-0.25,-0.27,-3.84,949.81
22.408,-1.40,-0.87,-0.47,6.90,2.49,8.42,-2.88,-3.59,-5.97,949.81
22.463,-0.68,-0.70,0.15,6.90,2.49,8.42,-2.88,-3.59,-5.97,949.81
22.465,-0.68,-0.70,0.15,1.97,-1.30,1.60,-2.88,-3.59,-5.97,949.81
22.467,-0.68,-0.70,0.15,1.97,-1.30,1.60,-2.88,-3.59,-5.97,949.62
22.473,-0.68,-0.70,0.15,1.97,-1.30,1.60,-3.79,-2.36,-2.67,949.62
22.525,-1.10,-0.68,0.81,1.97,-1.30,1.60,-3.79,-2.36,-2.67,949.62
22.527,-1.10,-0.68,0.81,6.56,-1.76,-5.00,-3.79,-2.36,-2.67,949.62
22.533,-1.10,-0.68,0.81,6.56,-1.76,-5.00,-3.79,-2.36,-2.67,949.62
22.534,-1.10,-0.68,0.81,6.56,-1.76,-5.00,-0.88,-2.34,0.63,949.62
22.602,-1.10,-0.68,0.81,1.09,-6.17,-3.89,-0.88,-2.34,0.63,949.62
22.604,-0.63,-0.17,0.73,1.09,-6.17,-3.89,-0.88,-2.34,0.63,949.62
22.605,-0.63,-0.17,0.73,1.09,-6.17,-3.89,0.76,-0.67,1.88,949.62
22.606,-0.63,-0.17,0.73,1.09,-6.17,-3.89,0.76,-0.67,1.88,949.75
22.653,-0.00,0.33,0.56,1.09,-6.17,-3.89,0.76,-0.67,1.88,949.75
22.653,-0.00,0.33,0.56,-5.98,-9.88,-1.27,0.76,-0.67,1.88,949.75
22.667,-0.00,0.33,0.56,-5.98,-9.88,-1.27,1.97,-0.11,1.93,949.75
22.667,-0.00,0.33,0.56,-5.98,-9.88,-1.27,1.97,-0.11,1.93,949.75
22.716,-0.00,0.33,0.56,-8.97,-5.04,0.97,1.97,-0.11,1.93,949.75
22.718,0.21,-0.04,0.36,-8.97,-5.04,0.97,1.97,-0.11,1.93,949.75
22.735,0.21,-0.04,0.36,-8.97,-5.04,0.97,1.90,1.90,1.66,949.75
22.736,0.21,-0.04,0.36,-8.97,-5.04,0.97,1.90,1.90,1.66,949.77
22.781,0.21,-0.04,0.36,-7.57,-0.49,1.00,1.90,1.90,1.66,949.77
22.782,-0.04,-0.37,0.33,-7.57,-0.49,1.00,1.90,1.90,1.66,949.77
22.788,-0.04,-0.37,0.33,-7.57,-0.49,1.00,2.49,2.19,1.67,949.77
22.8,-0.04,-0.37,0.33,-7.57,-0.49,1.00,2.49,2.19,1.67,949.77
22.842,-1.49,-0.96,0.34,-7.57,-0.49,1.00,2.49,2.19,1.67,949.77
22.844,-1.49,-0.96,0.34,6.05,6.83,0.94,2.49,2.19,1.67,949.77
22.853,-1.49,-0.96,0.34,6.05,6.83,0.94,2.85,0.52,0.85,949.77
22.866,-1.49,-0.96,0.34,6.05,6.83,0.94,2.85,0.52,0.85,949.77
22.906,-2.73,-1.51,0.34,6.05,6.83,0.94,2.85,0.52,0.85,949.77
22.908,-2.73,-1.51,0.34,18.58,11.17,0.84,2.85,0.52,0.85,949.77
22.915,-2.73,-1.51,0.34,18.58,11.17,0.84,-0.95,-0.52,-2.84,949.77
22.934,-2.73,-1.51,0.34,18.58,11.17,0.84,-0.95,-0.52,-2.84,949.80
22.968,-1.52,-0.89,-0.03,18.58,11.17,0.84,-0.95,-0.52,-2.84,949.80
22.97,-1.52,-0.89,-0.03,8.48,2.31,4.24,-0.95,-0.52,-2.84,949.80
22.978,-1.52,-0.89,-0.03,8.48,2.31,4.24,-2.73,-0.68,-4.19,949.80
23.0,-1.52,-0.89,-0.03,8.48,2.31,4.24,-2.73,-0.68,-4.19,949.80
23.033,-0.65,-0.12,-0.25,8.48,2.31,4.24,-2.73,-0.68,-4.19,949.80
23.034,-0.65,-0.12,-0.25,1.38,-6.76,5.63,-2.73,-0.68,-4.19,949.80
23.042,-0.65,-0.12,-0.25,1.38,-6.76,5.63,-3.12,-2.38,-2.02,949.80
23.066,-0.65,-0.12,-0.25,1.38,-6.76,5.63,-3.12,-2.38,-2.02,949.69
23.095,-0.78,-0.74,0.51,1.38,-6.76,5.63,-3.12,-2.38,-2.02,949.69
23.096,-0.78,-0.74,0.51,2.90,-0.84,-1.96,-3.12,-2.38,-2.02,949.69
23.104,-0.78,-0.74,0.51,2.90,-0.84,-1.96,-1.03,-1.67,1.12,949.69
23.136,-0.78,-0.74,0.51,2.90,-0.84,-1.96,-1.03,-1.67,1.12,949.69
23.159,-0.39,-0.48,0.92,2.90,-0.84,-1.96,-1.03,-1.67,1.12,949.69
23.161,-0.39,-0.48,0.92,-1.85,-2.89,-6.06,-1.03,-1.67,1.12,949.69
23.168,-0.39,-0.48,0.92,-1.85,-2.89,-6.06,0.45,0.91,1.66,949.69
23.2,-0.39,-0.48,0.92,-1.85,-2.89,-6.06,0.45,0.91,1.66,949.77
23.221,-0.12,0.21,0.48,-1.85,-2.89,-6.06,0.45,0.91,1.66,949.77
23.222,-0.12,0.21,0.48,-5.37,-8.56,-1.09,0.45,0.91,1.66,949.77
23.231,-0.12,0.21,0.48,-5.37,-8.56,-1.09,1.42,-0.74,1.88,949.77
23.266,-0.12,0.21,0.48,-5.37,-8.56,-1.09,1.42,-0.74,1.88,949.77
23.285,-0.12,0.21,0.48,-9.59,-6.31,0.41,1.42,-0.74,1.88,949.77
23.287,0.21,0.10,0.33,-9.59,-6.31,0.41,1.42,-0.74,1.88,949.77
23.302,0.21,0.10,0.33,-9.59,-6.31,0.41,1.95,2.23,1.80,949.77
23.342,0.21,0.10,0.33,-9.59,-6.31,0.41,1.95,2.23,1.80,949.77
23.349,0.21,0.10,0.33,-4.89,-1.89,-0.26,1.95,2.23,1.80,949.77
23.35,-0.37,-0.19,0.38,-4.89,-1.89,-0.26,1.95,2.23,1.80,949.77
23.358,-0.37,-0.19,0.38,-4.89,-1.89,-0.26,2.66,1.27,2.16,949.77
23.399,-0.37,-0.19,0.38,-4.89,-1.89,-0.26,2.66,1.27,2.16,949.71
23.414,-0.37,-0.19,0.38,3.47,5.40,1.21,2.66,1.27,2.16,949.71
23.415,-1.26,-0.76,0.27,3.47,5.40,1.21,2.66,1.27,2.16,949.71
23.421,-1.26,-0.76,0.27,3.47,5.40,1.21,2.75,-0.09,1.03,949.71
23.467,-1.26,-0.76,0.27,3.47,5.40,1.21,2.75,-0.09,1.03,949.71
23.482,-2.29,-1.52,0.24,3.47,5.40,1.21,2.75,-0.09,1.03,949.71
23.483,-2.29,-1.52,0.24,14.13,11.40,1.69,2.75,-0.09,1.03,949.71
23.486,-2.29,-1.52,0.24,14.13,11.40,1.69,-1.18,-0.68,-3.48,949.71
23.533,-2.29,-1.52,0.24,14.13,11.40,1.69,-1.18,-0.68,-3.48,949.56
23.538,-1.77,-1.08,-0.33,14.13,11.40,1.69,-1.18,-0.68,-3.48,949.56
23.539,-1.77,-1.08,-0.33,11.32,3.95,7.43,-1.18,-0.68,-3.48,949.56
23.547,-1.77,-1.08,-0.33,11.32,3.95,7.43,-3.31,-3.00,-4.52,949.56
23.601,-1.77,-1.08,-0.33,11.32,3.95,7.43,-3.31,-3.00,-4.52,949.56
23.602,-1.77,-1.08,-0.33,2.82,-4.11,1.76,-3.31,-3.00,-4.52,949.56
23.602,-0.77,-0.41,0.13,2.82,-4.11,1.76,-3.31,-3.00,-4.52,949.56
23.618,-0.77,-0.41,0.13,2.82,-4.11,1.76,-2.91,0.00,-1.96,949.56
23.665,-1.03,-0.56,0.47,2.82,-4.11,1.76,-2.91,0.00,-1.96,949.56
23.667,-1.03,-0.56,0.47,5.34,-2.86,-2.12,-2.91,0.00,-1.96,949.56
23.668,-1.03,-0.56,0.47,5.34,-2.86,-2.12,-2.91,0.00,-1.96,949.53
23.674,-1.03,-0.56,0.47,5.34,-2.86,-2.12,-1.07,-0.71,0.89,949.53
23.729,-0.63,-0.21,0.79,5.34,-2.86,-2.12,-1.07,-0.71,0.89,949.53
23.73,-0.63,-0.21,0.79,0.48,-5.80,-5.80,-1.07,-0.71,0.89,949.53
23.733,-0.63,-0.21,0.79,0.48,-5.80,-5.80,-1.07,-0.71,0.89,949.53
23.738,-0.63,-0.21,0.79,0.48,-5.80,-5.80,-0.00,1.22,1.73,949.53
23.791,-0.25,0.09,0.62,0.48,-5.80,-5.80,-0.00,1.22,1.73,949.53
23.793,-0.25,0.09,0.62,-4.29,-7.50,-3.18,-0.00,1.22,1.73,949.53
23.8,-0.25,0.09,0.62,-4.29,-7.50,-3.18,-0.00,1.22,1.73,949.64
23.801,-0.25,0.09,0.62,-4.29,-7.50,-3.18,1.58,-1.26,2.49,949.64
23.855,0.15,-0.15,0.44,-4.29,-7.50,-3.18,1.58,-1.26,2.49,949.64
23.856,0.15,-0.15,0.44,-9.13,-3.54,-0.72,1.58,-1.26,2.49,949.64
23.886,0.15,-0.15,0.44,-9.13,-3.54,-0.72,2.24,0.87,2.62,949.64
23.887,0.15,-0.15,0.44,-9.13,-3.54,-0.72,2.24,0.87,2.62,949.64
23.918,-0.44,-0.43,0.42,-9.13,-3.54,-0.72,2.24,0.87,2.62,949.64
23.919,-0.44,-0.43,0.42,-4.39,1.27,-0.51,2.24,0.87,2.62,949.64
23.927,-0.44,-0.43,0.42,-4.39,1.27,-0.51,3.10,1.15,2.78,949.64
23.933,-0.44,-0.43,0.42,-4.39,1.27,-0.51,3.10,1.15,2.78,949.64
23.982,-0.44,-0.43,0.42,3.81,6.56,1.43,3.10,1.15,2.78,949.64
23.983,-1.30,-0.82,0.25,3.81,6.56,1.43,3.10,1.15,2.78,949.64
24.003,-1.30,-0.82,0.25,3.81,6.56,1.43,2.54,-0.14,0.57,949.64
24.004,-1.30,-0.82,0.25,3.81,6.56,1.43,2.54,-0.14,0.57,949.71
24.048,-1.30,-0.82,0.25,16.17,8.79,5.91,2.54,-0.14,0.57,949.71
24.05,-2.49,-1.24,-0.15,16.17,8.79,5.91,2.54,-0.14,0.57,949.71
24.054,-2.49,-1.24,-0.15,16.17,8.79,5.91,-1.48,-1.68,-4.11,949.71
24.07,-2.49,-1.24,-0.15,16.17,8.79,5.91,-1.48,-1.68,-4.11,949.71
24.107,-1.58,-0.80,-0.26,16.17,8.79,5.91,-1.48,-1.68,-4.11,949.71
24.109,-1.58,-0.80,-0.26,9.33,1.44,6.97,-1.48,-1.68,-4.11,949.71
24.118,-1.58,-0.80,-0.26,9.33,1.44,6.97,-3.62,-1.80,-3.80,949.71
24.133,-1.58,-0.80,-0.26,9.33,1.44,6.97,-3.62,-1.80,-3.80,949.54
24.173,-1.13,-0.42,0.04,9.33,1.44,6.97,-3.62,-1.80,-3.80,949.54
24.174,-1.13,-0.42,0.04,5.76,-3.63,2.80,-3.62,-1.80,-3.80,949.54
24.181,-1.13,-0.42,0.04,5.76,-3.63,2.80,-2.69,-1.00,-1.32,949.54
24.201,-1.13,-0.42,0.04,5.76,-3.63,2.80,-2.69,-1.00,-1.32,949.54
24.235,-1.13,-0.42,0.04,-1.68,-3.93,-4.50,-2.69,-1.00,-1.32,949.54
24.237,-0.38,-0.38,0.79,-1.68,-3.93,-4.50,-2.69,-1.00,-1.32,949.54
24.244,-0.38,-0.38,0.79,-1.68,-3.93,-4.50,-0.52,-0.34,1.18,949.54
24.268,-0.38,-0.38,0.79,-1.68,-3.93,-4.50,-0.52,-0.34,1.18,949.49
24.299,-0.38,-0.38,0.79,-2.21,-6.06,-2.67,-0.52,-0.34,1.18,949.49
24.3,-0.41,-0.10,0.58,-2.21,-6.06,-2.67,-0.52,-0.34,1.18,949.49
24.308,-0.41,-0.10,0.58,-2.21,-6.06,-2.67,0.43,-0.08,1.43,949.49
24.335,-0.41,-0.10,0.58,-2.21,-6.06,-2.67,0.43,-0.08,1.43,949.49
24.361,0.26,0.17,0.26,-2.21,-6.06,-2.67,0.43,-0.08,1.43,949.49
24.363,0.26,0.17,0.26,-9.08,-7.84,1.62,0.43,-0.08,1.43,949.49
24.371,0.26,0.17,0.26,-9.08,-7.84,1.62,1.01,-1.45,1.51,949.49
24.4,0.26,0.17,0.26,-9.08,-7.84,1.62,1.01,-1.45,1.51,949.49
24.426,0.14,-0.07,0.29,-9.08,-7.84,1.62,1.01,-1.45,1.51,949.49
24.428,0.14,-0.07,0.29,-8.47,-4.67,1.58,1.01,-1.45,1.51,949.49
24.434,0.14,-0.07,0.29,-8.47,-4.67,1.58,1.28,1.17,1.27,949.49
24.468,0.14,-0.07,0.29,-8.47,-4.67,1.58,1.28,1.17,1.27,949.60
24.488,-0.69,-0.34,0.45,-8.47,-4.67,1.58,1.28,1.17,1.27,949.60
24.489,-0.69,-0.34,0.45,-1.05,-0.80,0.02,1.28,1.17,1.27,949.60
24.498,-0.69,-0.34,0.45,-1.05,-0.80,0.02,2.10,0.77,1.51,949.60
24.534,-0.69,-0.34,0.45,-1.05,-0.80,0.02,2.10,0.77,1.51,949.60
24.563,-1.68,-1.40,0.55,-1.05,-0.80,0.02,2.10,0.77,1.51,949.60
24.564,-1.68,-1.40,0.55,8.44,9.83,-1.10,2.10,0.77,1.51,949.60
24.564,-1.68,-1.40,0.55,8.44,9.83,-1.10,0.96,1.13,-1.28,949.60
24.6,-1.68,-1.40,0.55,8.44,9.83,-1.10,0.96,1.13,-1.28,949.65
24.616,-2.60,-2.03,0.22,8.44,9.83,-1.10,0.96,1.13,-1.28,949.65
24.617,-2.60,-2.03,0.22,18.91,13.71,1.87,0.96,1.13,-1.28,949.65
24.624,-2.60,-2.03,0.22,18.91,13.71,1.87,-2.65,-1.47,-4.23,949.65
24.671,-2.60,-2.03,0.22,18.91,13.71,1.87,-2.65,-1.47,-4.23,949.65
24.702,-2.60,-2.03,0.22,8.06,-4.13,3.29,-2.65,-1.47,-4.23,949.65
24.703,-1.33,-0.40,-0.03,8.06,-4.13,3.29,-2.65,-1.47,-4.23,949.65
24.704,-1.33,-0.40,-0.03,8.06,-4.13,3.29,-2.63,-0.72,-2.57,949.65
24.733,-1.33,-0.40,-0.03,8.06,-4.13,3.29,-2.63,-0.72,-2.57,949.55
24.741,-0.98,-0.46,0.06,8.06,-4.13,3.29,-2.63,-0.72,-2.57,949.55
24.742,-0.98,-0.46,0.06,5.27,-4.16,1.51,-2.63,-0.72,-2.57,949.55
24.75,-0.98,-0.46,0.06,5.27,-4.16,1.51,-1.73,-0.85,-0.68,949.55
24.808,-0.98,-0.46,0.06,5.27,-4.16,1.51,-1.73,-0.85,-0.68,949.55
24.809,-0.58,-0.25,0.54,5.27,-4.16,1.51,-1.73,-0.85,-0.68,949.55
24.81,-0.58,-0.25,0.54,0.74,-5.92,-3.38,-1.73,-0.85,-0.68,949.55
24.814,-0.58,-0.25,0.54,0.74,-5.92,-3.38,-0.30,0.16,1.37,949.55
24.867,-0.58,-0.25,0.54,0.74,-5.92,-3.38,-0.30,0.16,1.37,949.55
24.868,-0.30,-0.05,0.59,0.74,-5.92,-3.38,-0.30,0.16,1.37,949.55
24.869,-0.30,-0.05,0.59,-2.83,-7.12,-3.35,-0.30,0.16,1.37,949.55
24.877,-0.30,-0.05,0.59,-2.83,-7.12,-3.35,0.86,-0.73,2.05,949.55
24.932,0.11,0.04,0.63,-2.83,-7.12,-3.35,0.86,-0.73,2.05,949.55
24.933,0.11,0.04,0.63,-8.03,-6.77,-3.28,0.86,-0.73,2.05,949.55
24.935,0.11,0.04,0.63,-8.03,-6.77,-3.28,0.86,-0.73,2.05,949.66
24.941,0.11,0.04,0.63,-8.03,-6.77,-3.28,1.77,1.17,2.40,949.66
24.996,-0.35,-0.30,0.41,-8.03,-6.77,-3.28,1.77,1.17,2.40,949.66
24.997,-0.35,-0.30,0.41,-4.63,-1.72,-0.89,1.77,1.17,2.40,949.66
25.003,-0.35,-0.30,0.41,-4.63,-1.72,-0.89,1.77,1.17,2.40,949.66
25.004,-0.35,-0.30,0.41,-4.63,-1.72,-0.89,2.19,0.89,3.01,949.66
25.058,-1.12,-0.69,0.45,-4.63,-1.72,-0.89,2.19,0.89,3.01,949.66
25.059,-1.12,-0.69,0.45,2.07,4.42,-0.88,2.19,0.89,3.01,949.66
25.067,-1.12,-0.69,0.45,2.07,4.42,-0.88,2.19,0.89,3.01,949.69
25.069,-1.12,-0.69,0.45,2.07,4.42,-0.88,3.23,0.13,2.92,949.69
25.122,-1.62,-0.92,0.11,2.07,4.42,-0.88,3.23,0.13,2.92,949.69
25.123,-1.62,-0.92,0.11,6.95,7.08,2.76,3.23,0.13,2.92,949.69
25.133,-1.62,-0.92,0.11,6.95,7.08,2.76,0.51,0.05,-1.02,949.69
25.134,-1.62,-0.92,0.11,6.95,7.08,2.76,0.51,0.05,-1.02,949.69
25.185,-1.60,-1.04,-0.18,6.95,7.08,2.76,0.51,0.05,-1.02,949.69
25.186,-1.60,-1.04,-0.18,7.83,5.35,5.30,0.51,0.05,-1.02,949.69
25.195,-1.60,-1.04,-0.18,7.83,5.35,5.30,-2.19,-0.66,-5.20,949.69
25.201,-1.60,-1.04,-0.18,7.83,5.35,5.30,-2.19,-0.66,-5.20,949.50
25.248,-0.36,-0.30,-0.18,7.83,5.35,5.30,-2.19,-0.66,-5.20,949.50
25.249,-0.36,-0.30,-0.18,-2.51,-4.29,4.85,-2.19,-0.66,-5.20,949.50
25.259,-0.36,-0.30,-0.18,-2.51,-4.29,4.85,-2.48,-0.39,-3.97,949.50
25.267,-0.36,-0.30,-0.18,-2.51,-4.29,4.85,-2.48,-0.39,-3.97,949.50
25.311,-1.23,-0.85,-0.36,-2.51,-4.29,4.85,-2.48,-0.39,-3.97,949.50
25.313,-1.23,-0.85,-0.36,7.32,-0.08,5.60,-2.48,-0.39,-3.97,949.50
25.32,-1.23,-0.85,-0.36,7.32,-0.08,5.60,-2.42,-2.55,-1.39,949.50
25.335,-1.23,-0.85,-0.36,7.32,-0.08,5.60,-2.42,-2.55,-1.39,949.46
25.375,-0.68,-0.69,0.93,7.32,-0.08,5.60,-2.42,-2.55,-1.39,949.46
25.376,-0.68,-0.69,0.93,1.83,-1.63,-7.16,-2.42,-2.55,-1.39,949.46
25.401,-0.68,-0.69,0.93,1.83,-1.63,-7.16,-0.60,-0.04,0.90,949.46
25.402,-0.68,-0.69,0.93,1.83,-1.63,-7.16,-0.60,-0.04,0.90,949.46
25.437,-0.54,0.31,0.86,1.83,-1.63,-7.16,-0.60,-0.04,0.90,949.46
25.439,-0.54,0.31,0.86,-0.58,-10.65,-6.25,-0.60,-0.04,0.90,949.46
25.449,-0.54,0.31,0.86,-0.58,-10.65,-6.25,0.99,0.34,2.22,949.46
25.467,-0.54,0.31,0.86,-0.58,-10.65,-6.25,0.99,0.34,2.22,949.46
25.503,-0.33,0.08,0.62,-0.58,-10.65,-6.25,0.99,0.34,2.22,949.46
25.504,-0.33,0.08,0.62,-3.77,-7.05,-2.93,0.99,0.34,2.22,949.46
25.51,-0.33,0.08,0.62,-3.77,-7.05,-2.93,2.11,-0.88,2.60,949.46
25.554,-0.33,0.08,0.62,-3.77,-7.05,-2.93,2.11,-0.88,2.60,949.62
25.564,-0.43,-0.32,0.49,-3.77,-7.05,-2.93,2.11,-0.88,2.60,949.62
25.565,-0.43,-0.32,0.49,-3.59,-1.18,-0.57,2.11,-0.88,2.60,949.62
25.573,-0.43,-0.32,0.49,-3.59,-1.18,-0.57,2.78,0.34,2.77,949.62
25.599,-0.43,-0.32,0.49,-3.59,-1.18,-0.57,2.78,0.34,2.77,949.62
25.641,-1.37,-1.12,0.63,-3.59,-1.18,-0.57,2.78,0.34,2.77,949.62
25.643,-1.37,-1.12,0.63,4.81,8.20,-2.17,2.78,0.34,2.77,949.62
25.646,-1.37,-1.12,0.63,4.81,8.20,-2.17,2.32,1.35,0.84,949.62
25.675,-1.37,-1.12,0.63,4.81,8.20,-2.17,2.32,1.35,0.84,949.73
25.69,-2.06,-1.97,0.12,4.81,8.20,-2.17,2.32,1.35,0.84,949.73
25.691,-2.06,-1.97,0.12,12.22,15.03,2.84,2.32,1.35,0.84,949.73
25.7,-2.06,-1.97,0.12,12.22,15.03,2.84,-0.74,-0.69,-3.92,949.73
25.734,-2.06,-1.97,0.12,12.22,15.03,2.84,-0.74,-0.69,-3.92,949.73
25.754,-1.27,-0.77,-0.53,12.22,15.03,2.84,-0.74,-0.69,-3.92,949.73
25.755,-1.27,-0.77,-0.53,6.33,0.77,9.02,-0.74,-0.69,-3.92,949.73
25.773,-1.27,-0.77,-0.53,6.33,0.77,9.02,-2.08,-1.05,-3.87,949.73
25.802,-1.27,-0.77,-0.53,6.33,0.77,9.02,-2.08,-1.05,-3.87,949.62
25.818,-0.64,-0.33,-0.27,6.33,0.77,9.02,-2.08,-1.05,-3.87,949.62
25.819,-0.64,-0.33,-0.27,1.08,-4.90,4.93,-2.08,-1.05,-3.87,949.62
25.826,-0.64,-0.33,-0.27,1.08,-4.90,4.93,-1.89,2.34,-2.47,949.62
25.867,-0.64,-0.33,-0.27,1.08,-4.90,4.93,-1.89,2.34,-2.47,949.62
25.88,-1.00,-0.39,0.07,1.08,-4.90,4.93,-1.89,2.34,-2.47,949.62
25.882,-1.00,-0.39,0.07,4.93,-4.67,0.61,-1.89,2.34,-2.47,949.62
25.89,-1.00,-0.39,0.07,4.93,-4.67,0.61,-1.60,-0.75,-0.31,949.62
25.934,-1.00,-0.39,0.07,4.93,-4.67,0.61,-1.60,-0.75,-0.31,949.62
25.945,-0.54,-0.19,0.57,4.93,-4.67,0.61,-1.60,-0.75,-0.31,949.62
25.945,-0.54,-0.19,0.57,0.13,-6.45,-4.15,-1.60,-0.75,-0.31,949.62
25.953,-0.54,-0.19,0.57,0.13,-6.45,-4.15,-0.70,-1.82,1.17,949.62
26.0,-0.54,-0.19,0.57,0.13,-6.45,-4.15,-0.70,-1.82,1.17,949.64
26.007,-0.38,0.10,0.64,0.13,-6.45,-4.15,-0.70,-1.82,1.17,949.64
26.008,-0.38,0.10,0.64,-2.43,-8.61,-4.69,-0.70,-1.82,1.17,949.64
26.017,-0.38,0.10,0.64,-2.43,-8.61,-4.69,0.49,0.12,2.08,949.64
26.067,-0.38,0.10,0.64,-2.43,-8.61,-4.69,0.49,0.12,2.08,949.64
26.07,-0.59,-0.24,0.61,-2.43,-8.61,-4.69,0.49,0.12,2.08,949.64
26.071,-0.59,-0.24,0.61,-1.56,-3.87,-3.85,0.49,0.12,2.08,949.64
26.088,-0.59,-0.24,0.61,-1.56,-3.87,-3.85,1.70,0.19,3.07,949.64
26.135,-0.59,-0.24,0.61,-1.56,-3.87,-3.85,1.70,0.19,3.07,949.77
26.137,-0.81,-0.51,0.39,-1.56,-3.87,-3.85,1.70,0.19,3.07,949.77
26.138,-0.81,-0.51,0.39,-0.46,0.94,-0.53,1.70,0.19,3.07,949.77
26.143,-0.81,-0.51,0.39,-0.46,0.94,-0.53,2.56,-0.39,3.43,949.77
26.198,-1.47,-1.48,0.48,-0.46,0.94,-0.53,2.56,-0.39,3.43,949.77
26.199,-1.47,-1.48,0.48,5.63,11.52,-1.45,2.56,-0.39,3.43,949.77
26.2,-1.47,-1.48,0.48,5.63,11.52,-1.45,2.56,-0.39,3.43,949.77
26.207,-1.47,-1.48,0.48,5.63,11.52,-1.45,1.76,0.37,-0.21,949.77
26.261,-1.60,-1.84,-0.48,5.63,11.52,-1.45,1.76,0.37,-0.21,949.77
26.263,-1.60,-1.84,-0.48,8.56,12.44,8.57,1.76,0.37,-0.21,949.77
26.267,-1.60,-1.84,-0.48,8.56,12.44,8.57,1.76,0.37,-0.21,949.62
26.27,-1.60,-1.84,-0.48,8.56,12.44,8.57,-1.75,-2.12,-5.07,949.62
26.327,-0.80,-0.60,-0.28,8.56,12.44,8.57,-1.75,-2.12,-5.07,949.62
26.328,-0.80,-0.60,-0.28,2.62,-1.90,5.91,-1.75,-2.12,-5.07,949.62
26.365,-0.80,-0.60,-0.28,2.62,-1.90,5.91,-1.75,-2.12,-5.07,949.62
26.365,-0.80,-0.60,-0.28,2.62,-1.90,5.91,-3.00,-0.55,-3.39,949.62
26.387,-1.19,-0.62,-0.02,2.62,-1.90,5.91,-3.00,-0.55,-3.39,949.62
26.388,-1.19,-0.62,-0.02,7.35,-2.67,1.98,-3.00,-0.55,-3.39,949.62
26.397,-1.19,-0.62,-0.02,7.35,-2.67,1.98,-1.37,1.32,-1.44,949.62
26.4,-1.19,-0.62,-0.02,7.35,-2.67,1.98,-1.37,1.32,-1.44,949.62
26.451,-0.94,-0.29,0.30,7.35,-2.67,1.98,-1.37,1.32,-1.44,949.62
26.452,-0.94,-0.29,0.30,4.45,-5.74,-1.51,-1.37,1.32,-1.44,949.62
26.46,-0.94,-0.29,0.30,4.45,-5.74,-1.51,-0.46,-0.16,0.74,949.62
26.475,-0.94,-0.29,0.30,4.45,-5.74,-1.51,-0.46,-0.16,0.74,949.50
26.513,-0.58,-0.10,0.63,4.45,-5.74,-1.51,-0.46,-0.16,0.74,949.50
26.514,-0.58,-0.10,0.63,0.42,-7.09,-4.00,-0.46,-0.16,0.74,949.50
26.523,-0.58,-0.10,0.63,0.42,-7.09,-4.00,0.18,-2.37,1.79,949.50
26.534,-0.58,-0.10,0.63,0.42,-7.09,-4.00,0.18,-2.37,1.79,949.50
26.578,-0.18,-0.02,0.89,0.42,-7.09,-4.00,0.18,-2.37,1.79,949.50
26.579,-0.18,-0.02,0.89,-4.74,-6.77,-6.08,0.18,-2.37,1.79,949.50
26.587,-0.18,-0.02,0.89,-4.74,-6.77,-6.08,1.64,0.59,2.75,949.50
26.605,-0.18,-0.02,0.89,-4.74,-6.77,-6.08,1.64,0.59,2.75,949.65
26.64,-0.36,-0.42,0.55,-4.74,-6.77,-6.08,1.64,0.59,2.75,949.65
26.641,-0.36,-0.42,0.55,-4.38,-0.90,-2.05,1.64,0.59,2.75,949.65
26.649,-0.36,-0.42,0.55,-4.38,-0.90,-2.05,2.43,0.39,3.44,949.65
26.666,-0.36,-0.42,0.55,-4.38,-0.90,-2.05,2.43,0.39,3.44,949.65
26.704,-0.76,-0.44,0.43,-4.38,-0.90,-2.05,2.43,0.39,3.44,949.65
26.706,-0.76,-0.44,0.43,-1.20,1.82,-0.27,2.43,0.39,3.44,949.65
26.713,-0.76,-0.44,0.43,-1.20,1.82,-0.27,2.81,0.21,3.25,949.65
26.738,-0.76,-0.44,0.43,-1.20,1.82,-0.27,2.81,0.21,3.25,949.77
26.768,-0.76,-0.44,0.43,8.66,10.55,-1.98,2.81,0.21,3.25,949.77
26.769,-1.79,-1.28,0.61,8.66,10.55,-1.98,2.81,0.21,3.25,949.77
26.777,-1.79,-1.28,0.61,8.66,10.55,-1.98,0.94,-0.16,-1.07,949.77
26.8,-1.79,-1.28,0.61,8.66,10.55,-1.98,0.94,-0.16,-1.07,949.77
26.831,-1.61,-1.51,-0.07,8.66,10.55,-1.98,0.94,-0.16,-1.07,949.77
26.832,-1.61,-1.51,-0.07,8.60,9.94,5.46,0.94,-0.16,-1.07,949.77
26.84,-1.61,-1.51,-0.07,8.60,9.94,5.46,-1.43,-1.70,-5.42,949.77
26.867,-1.61,-1.51,-0.07,8.60,9.94,5.46,-1.43,-1.70,-5.42,949.61
26.893,-1.61,-1.51,-0.07,3.27,-3.27,10.09,-1.43,-1.70,-5.42,949.61
26.895,-0.92,-0.39,-0.64,3.27,-3.27,10.09,-1.43,-1.70,-5.42,949.61
26.903,-0.92,-0.39,-0.64,3.27,-3.27,10.09,-2.03,1.04,-3.68,949.61
26.933,-0.92,-0.39,-0.64,3.27,-3.27,10.09,-2.03,1.04,-3.68,949.61
26.957,-1.10,-0.41,-0.34,3.27,-3.27,10.09,-2.03,1.04,-3.68,949.61
26.958,-1.10,-0.41,-0.34,5.76,-4.19,5.61,-2.03,1.04,-3.68,949.61
26.966,-1.10,-0.41,-0.34,5.76,-4.19,5.61,-1.83,1.17,-1.74,949.61
27.01,-1.10,-0.41,-0.34,5.76,-4.19,5.61,-1.83,1.17,-1.74,949.61
27.042,-0.62,-0.49,0.14,5.76,-4.19,5.61,-1.83,1.17,-1.74,949.61
27.044,-0.62,-0.49,0.14,1.38,-3.73,0.15,-1.83,1.17,-1.74,949.61
27.045,-0.62,-0.49,0.14,1.38,-3.73,0.15,-2.05,-1.32,-0.30,949.61
27.067,-0.62,-0.49,0.14,1.38,-3.73,0.15,-2.05,-1.32,-0.30,949.48
27.084,-0.65,-0.30,0.66,1.38,-3.73,0.15,-2.05,-1.32,-0.30,949.48
27.085,-0.65,-0.30,0.66,1.47,-5.52,-4.98,-2.05,-1.32,-0.30,949.48
27.093,-0.65,-0.30,0.66,1.47,-5.52,-4.98,-1.02,-2.29,1.12,949.48
27.145,-0.65,-0.30,0.66,1.47,-5.52,-4.98,-1.02,-2.29,1.12,949.48
27.147,-0.39,0.02,0.97,1.47,-5.52,-4.98,-1.02,-2.29,1.12,949.48
27.148,-0.39,0.02,0.97,-2.38,-7.74,-8.30,-1.02,-2.29,1.12,949.48
27.173,-0.39,0.02,0.97,-2.38,-7.74,-8.30,0.81,2.29,2.65,949.48
27.201,-0.39,0.02,0.97,-2.38,-7.74,-8.30,0.81,2.29,2.65,949.60
27.211,-0.39,0.02,0.97,0.14,-2.75,-3.91,0.81,2.29,2.65,949.60
27.212,-0.83,-0.31,0.51,0.14,-2.75,-3.91,0.81,2.29,2.65,949.60
27.22,-0.83,-0.31,0.51,0.14,-2.75,-3.91,1.72,0.91,4.10,949.60
27.268,-0.83,-0.31,0.51,0.14,-2.75,-3.91,1.72,0.91,4.10,949.60
27.274,-0.84,-0.78,0.69,0.14,-2.75,-3.91,1.72,0.91,4.10,949.60
27.274,-0.84,-0.78,0.69,-0.84,4.36,-4.38,1.72,0.91,4.10,949.60
27.283,-0.84,-0.78,0.69,-0.84,4.36,-4.38,2.47,-0.83,3.94,949.60
27.333,-0.84,-0.78,0.69,-0.84,4.36,-4.38,2.47,-0.83,3.94,949.67
27.336,-1.64,-1.64,0.44,-0.84,4.36,-4.38,2.47,-0.83,3.94,949.67
27.336,-1.64,-1.64,0.44,6.99,13.73,-1.17,2.47,-0.83,3.94,949.67
27.346,-1.64,-1.64,0.44,6.99,13.73,-1.17,2.06,-0.96,-0.56,949.67
27.401,-1.98,-1.81,-0.42,6.99,13.73,-1.17,2.06,-0.96,-0.56,949.67
27.401,-1.98,-1.81,-0.42,11.65,13.02,8.07,2.06,-0.96,-0.56,949.67
27.402,-1.98,-1.81,-0.42,11.65,13.02,8.07,2.06,-0.96,-0.56,949.67
27.409,-1.98,-1.81,-0.42,11.65,13.02,8.07,0.13,-1.47,-4.95,949.67
27.464,-0.78,0.04,-0.93,11.65,13.02,8.07,0.13,-1.47,-4.95,949.67
27.465,-0.78,0.04,-0.93,1.27,-7.14,12.57,0.13,-1.47,-4.95,949.67
27.469,-0.78,0.04,-0.93,1.27,-7.14,12.57,0.13,-1.47,-4.95,949.67
27.473,-0.78,0.04,-0.93,1.27,-7.14,12.57,-1.56,1.14,-3.26,949.67
27.53,-1.12,-0.65,-0.57,1.27,-7.14,12.57,-1.56,1.14,-3.26,949.67
27.532,-1.12,-0.65,-0.57,5.33,-1.47,7.54,-1.56,1.14,-3.26,949.67
27.534,-1.12,-0.65,-0.57,5.33,-1.47,7.54,-1.56,1.14,-3.26,949.47
27.536,-1.12,-0.65,-0.57,5.33,-1.47,7.54,-2.17,-0.37,-1.87,949.47
27.591,-0.41,-0.26,0.05,5.33,-1.47,7.54,-2.17,-0.37,-1.87,949.47
27.593,-0.41,-0.26,0.05,-1.05,-5.67,1.69,-2.17,-0.37,-1.87,949.47
27.601,-0.41,-0.26,0.05,-1.05,-5.67,1.69,-1.37,-2.54,-0.12,949.47
27.602,-0.41,-0.26,0.05,-1.05,-5.67,1.69,-1.37,-2.54,-0.12,949.47
27.654,-0.62,-0.39,0.62,-1.05,-5.67,1.69,-1.37,-2.54,-0.12,949.47
27.655,-0.62,-0.39,0.62,0.71,-4.13,-3.57,-1.37,-2.54,-0.12,949.47
27.663,-0.62,-0.39,0.62,0.71,-4.13,-3.57,-0.58,-2.37,1.69,949.47
27.67,-0.62,-0.39,0.62,0.71,-4.13,-3.57,-0.58,-2.37,1.69,949.56
27.723,-0.13,-0.06,1.07,0.71,-4.13,-3.57,-0.58,-2.37,1.69,949.56
27.724,-0.13,-0.06,1.07,-5.09,-6.25,-7.34,-0.58,-2.37,1.69,949.56
27.732,-0.13,-0.06,1.07,-5.09,-6.25,-7.34,1.08,-0.44,2.57,949.56
27.749,-0.13,-0.06,1.07,-5.09,-6.25,-7.34,1.08,-0.44,2.57,949.56
27.78,-0.25,-0.11,0.70,-5.09,-6.25,-7.34,1.08,-0.44,2.57,949.56
27.781,-0.25,-0.11,0.70,-4.79,-4.10,-2.52,1.08,-0.44,2.57,949.56
27.79,-0.25,-0.11,0.70,-4.79,-4.10,-2.52,2.04,-1.04,2.92,949.56
27.8,-0.25,-0.11,0.70,-4.79,-4.10,-2.52,2.04,-1.04,2.92,949.71
27.845,-0.72,-0.36,0.73,-4.79,-4.10,-2.52,2.04,-1.04,2.92,949.71
27.846,-0.72,-0.36,0.73,-1.11,0.72,-2.40,2.04,-1.04,2.92,949.71
27.857,-0.72,-0.36,0.73,-1.11,0.72,-2.40,2.94,1.04,3.13,949.71
27.867,-0.72,-0.36,0.73,-1.11,0.72,-2.40,2.94,1.04,3.13,949.71
27.906,-1.85,-0.97,0.80,-1.11,0.72,-2.40,2.94,1.04,3.13,949.71
27.907,-1.85,-0.97,0.80,9.38,7.79,-3.44,2.94,1.04,3.13,949.71
27.917,-1.85,-0.97,0.80,9.38,7.79,-3.44,1.75,0.72,-0.28,949.71
27.934,-1.85,-0.97,0.80,9.38,7.79,-3.44,1.75,0.72,-0.28,949.71
27.971,-1.82,-1.37,-0.00,9.38,7.79,-3.44,1.75,0.72,-0.28,949.71
27.971,-1.82,-1.37,-0.00,10.15,9.32,4.62,1.75,0.72,-0.28,949.71
27.98,-1.82,-1.37,-0.00,10.15,9.32,4.62,-1.44,-0.77,-4.84,949.71
28.001,-1.82,-1.37,-0.00,10.15,9.32,4.62,-1.44,-0.77,-4.84,949.77
28.033,-0.89,-0.32,-0.71,10.15,9.32,4.62,-1.44,-0.77,-4.84,949.77
28.034,-0.89,-0.32,-0.71,2.53,-3.58,10.80,-1.44,-0.77,-4.84,949.77
28.043,-0.89,-0.32,-0.71,2.53,-3.58,10.80,-2.83,-0.24,-3.69,949.77
28.067,-0.89,-0.32,-0.71,2.53,-3.58,10.80,-2.83,-0.24,-3.69,949.77
28.097,-0.83,-0.73,0.04,2.53,-3.58,10.80,-2.83,-0.24,-3.69,949.77
28.098,-0.83,-0.73,0.04,2.89,-0.97,1.91,-2.83,-0.24,-3.69,949.77
28.106,-0.83,-0.73,0.04,2.89,-0.97,1.91,-2.55,0.23,-1.88,949.77
28.144,-0.83,-0.73,0.04,2.89,-0.97,1.91,-2.55,0.23,-1.88,949.61
28.16,-0.44,-0.47,0.46,2.89,-0.97,1.91,-2.55,0.23,-1.88,949.61
28.16,-0.44,-0.47,0.46,-0.46,-3.81,-2.56,-2.55,0.23,-1.88,949.61
28.169,-0.44,-0.47,0.46,-0.46,-3.81,-2.56,-1.50,-1.77,-0.18,949.61
28.201,-0.44,-0.47,0.46,-0.46,-3.81,-2.56,-1.50,-1.77,-0.18,949.61
28.224,-0.45,-0.28,0.93,-0.46,-3.81,-2.56,-1.50,-1.77,-0.18,949.61
28.225,-0.45,-0.28,0.93,-0.62,-5.46,-6.80,-1.50,-1.77,-0.18,949.61
28.233,-0.45,-0.28,0.93,-0.62,-5.46,-6.80,0.06,-1.40,1.31,949.61
28.268,-0.45,-0.28,0.93,-0.62,-5.46,-6.80,0.06,-1.40,1.31,949.77
28.287,-0.45,-0.28,0.93,-1.34,-8.81,-4.31,0.06,-1.40,1.31,949.77
28.288,-0.49,0.17,0.76,-1.34,-8.81,-4.31,0.06,-1.40,1.31,949.77
28.297,-0.49,0.17,0.76,-1.34,-8.81,-4.31,1.90,-0.39,2.20,949.77
28.334,-0.49,0.17,0.76,-1.34,-8.81,-4.31,1.90,-0.39,2.20,949.77
28.35,-0.44,-0.36,0.82,-1.34,-8.81,-4.31,1.90,-0.39,2.20,949.77
28.352,-0.44,-0.36,0.82,-3.08,-1.72,-4.00,1.90,-0.39,2.20,949.77
28.361,-0.44,-0.36,0.82,-3.08,-1.72,-4.00,3.36,1.08,3.11,949.77
28.402,-0.44,-0.36,0.82,-3.08,-1.72,-4.00,3.36,1.08,3.11,949.86
28.414,-0.44,-0.36,0.82,0.48,3.60,-2.28,3.36,1.08,3.11,949.86
28.415,-0.92,-0.60,0.68,0.48,3.60,-2.28,3.36,1.08,3.11,949.86
28.424,-0.92,-0.60,0.68,0.48,3.60,-2.28,3.87,1.56,3.83,949.86
28.469,-0.92,-0.60,0.68,0.48,3.60,-2.28,3.87,1.56,3.83,949.86
28.477,-1.54,-0.83,0.52,0.48,3.60,-2.28,3.87,1.56,3.83,949.86
28.478,-1.54,-0.83,0.52,6.32,7.15,-0.71,3.87,1.56,3.83,949.86
28.487,-1.54,-0.83,0.52,6.32,7.15,-0.71,1.40,-0.59,-0.26,949.86
28.535,-1.54,-0.83,0.52,6.32,7.15,-0.71,1.40,-0.59,-0.26,949.86
28.54,-1.60,-1.35,-0.34,6.32,7.15,-0.71,1.40,-0.59,-0.26,949.86
28.541,-1.60,-1.35,-0.34,8.55,9.22,8.90,1.40,-0.59,-0.26,949.86
28.55,-1.60,-1.35,-0.34,8.55,9.22,8.90,-2.15,-3.53,-5.48,949.86
28.601,-1.60,-1.35,-0.34,8.55,9.22,8.90,-2.15,-3.53,-5.48,949.84
28.604,-1.25,-0.71,-0.55,8.55,9.22,8.90,-2.15,-3.53,-5.48,949.84
28.605,-1.25,-0.71,-0.55,7.52,0.30,11.04,-2.15,-3.53,-5.48,949.84
28.614,-1.25,-0.71,-0.55,7.52,0.30,11.04,-3.62,-2.76,-2.80,949.84
28.668,-1.25,-0.71,-0.55,4.40,-0.77,-0.36,-3.62,-2.76,-2.80,949.84
28.669,-0.90,-0.73,0.42,4.40,-0.77,-0.36,-3.62,-2.76,-2.80,949.84
28.669,-0.90,-0.73,0.42,4.40,-0.77,-0.36,-3.62,-2.76,-2.80,949.84
28.676,-0.90,-0.73,0.42,4.40,-0.77,-0.36,-3.05,1.60,-0.56,949.84
28.731,-0.90,-0.73,0.42,3.82,-4.27,-2.94,-3.05,1.60,-0.56,949.84
28.733,-0.86,-0.39,0.64,3.82,-4.27,-2.94,-3.05,1.60,-0.56,949.84
28.734,-0.86,-0.39,0.64,3.82,-4.27,-2.94,-3.05,1.60,-0.56,949.71
28.74,-0.86,-0.39,0.64,3.82,-4.27,-2.94,-1.32,-2.17,0.85,949.71
28.798,0.17,0.05,1.09,3.82,-4.27,-2.94,-1.32,-2.17,0.85,949.71
28.799,0.17,0.05,1.09,-6.70,-8.06,-6.83,-1.32,-2.17,0.85,949.71
28.801,0.17,0.05,1.09,-6.70,-8.06,-6.83,-1.32,-2.17,0.85,949.71
28.829,0.17,0.05,1.09,-6.70,-8.06,-6.83,0.44,-0.43,1.83,949.71
28.858,0.17,0.05,1.09,-4.17,-5.73,-4.39,0.44,-0.43,1.83,949.71
28.862,-0.21,-0.07,0.88,-4.17,-5.73,-4.39,0.44,-0.43,1.83,949.71
28.866,-0.21,-0.07,0.88,-4.17,-5.73,-4.39,2.15,0.50,2.11,949.71
28.867,-0.21,-0.07,0.88,-4.17,-5.73,-4.39,2.15,0.50,2.11,949.80
28.934,-0.17,-0.42,0.67,-4.17,-5.73,-4.39,2.15,0.50,2.11,949.80
28.936,-0.17,-0.42,0.67,-5.33,-0.32,-1.15,2.15,0.50,2.11,949.80
28.937,-0.17,-0.42,0.67,-5.33,-0.32,-1.15,3.56,-0.10,2.50,949.80
28.938,-0.17,-0.42,0.67,-5.33,-0.32,-1.15,3.56,-0.10,2.50,949.80
28.986,-0.76,-0.59,0.98,-5.33,-0.32,-1.15,3.56,-0.10,2.50,949.80
28.987,-0.76,-0.59,0.98,-0.50,4.03,-3.92,3.56,-0.10,2.50,949.80
28.999,-0.76,-0.59,0.98,-0.50,4.03,-3.92,4.01,2.02,2.38,949.80
29.002,-0.76,-0.59,0.98,-0.50,4.03,-3.92,4.01,2.02,2.38,949.80
29.047,-1.99,-0.91,0.56,-0.50,4.03,-3.92,4.01,2.02,2.38,949.80
29.049,-1.99,-0.91,0.56,11.02,7.99,-0.42,4.01,2.02,2.38,949.80
29.057,-1.99,-0.91,0.56,11.02,7.99,-0.42,1.75,0.40,-1.28,949.80
29.083,-1.99,-0.91,0.56,11.02,7.99,-0.42,1.75,0.40,-1.28,949.89
29.123,-1.70,-1.19,-0.41,11.02,7.99,-0.42,1.75,0.40,-1.28,949.89
29.124,-1.70,-1.19,-0.41,9.56,7.80,9.71,1.75,0.40,-1.28,949.89
29.125,-1.70,-1.19,-0.41,9.56,7.80,9.71,-2.30,-1.80,-4.90,949.89
29.134,-1.70,-1.19,-0.41,9.56,7.80,9.71,-2.30,-1.80,-4.90,949.89
29.174,-1.17,-0.51,-0.51,9.56,7.80,9.71,-2.30,-1.80,-4.90,949.89
29.175,-1.17,-0.51,-0.51,5.68,-1.20,10.00,-2.30,-1.80,-4.90,949.89
29.183,-1.17,-0.51,-0.51,5.68,-1.20,10.00,-3.06,-0.53,-2.61,949.89
29.201,-1.17,-0.51,-0.51,5.68,-1.20,10.00,-3.06,-0.53,-2.61,949.74
29.239,-1.17,-0.51,-0.51,3.06,-0.24,-0.07,-3.06,-0.53,-2.61,949.74
29.24,-0.87,-0.73,0.37,3.06,-0.24,-0.07,-3.06,-0.53,-2.61,949.74
29.246,-0.87,-0.73,0.37,3.06,-0.24,-0.07,-2.30,0.59,-0.93,949.74
29.267,-0.87,-0.73,0.37,3.06,-0.24,-0.07,-2.30,0.59,-0.93,949.74
29.3,-0.87,-0.73,0.37,-0.10,-6.13,-1.41,-2.30,0.59,-0.93,949.74
29.302,-0.51,-0.14,0.53,-0.10,-6.13,-1.41,-2.30,0.59,-0.93,949.74
29.31,-0.51,-0.14,0.53,-0.10,-6.13,-1.41,-0.80,-2.48,0.62,949.74
29.335,-0.51,-0.14,0.53,-0.10,-6.13,-1.41,-0.80,-2.48,0.62,949.75
29.365,-0.06,-0.06,0.96,-0.10,-6.13,-1.41,-0.80,-2.48,0.62,949.75
29.366,-0.06,-0.06,0.96,-5.16,-6.35,-5.38,-0.80,-2.48,0.62,949.75
29.38,-0.06,-0.06,0.96,-5.16,-6.35,-5.38,0.72,0.70,1.59,949.75
29.401,-0.06,-0.06,0.96,-5.16,-6.35,-5.38,0.72,0.70,1.59,949.75
29.426,-0.14,0.15,0.59,-5.16,-6.35,-5.38,0.72,0.70,1.59,949.75
29.428,-0.14,0.15,0.59,-5.19,-7.24,-1.13,0.72,0.70,1.59,949.75
29.436,-0.14,0.15,0.59,-5.19,-7.24,-1.13,1.83,-0.18,1.89,949.75
29.468,-0.14,0.15,0.59,-5.19,-7.24,-1.13,1.83,-0.18,1.89,949.76
29.5,-0.28,-0.15,0.55,-5.19,-7.24,-1.13,1.83,-0.18,1.89,949.76
29.501,-0.28,-0.15,0.55,-4.59,-2.51,-0.10,1.83,-0.18,1.89,949.76
29.502,-0.28,-0.15,0.55,-4.59,-2.51,-0.10,2.59,0.51,2.34,949.76
29.536,-0.28,-0.15,0.55,-4.59,-2.51,-0.10,2.59,0.51,2.34,949.76
29.553,-0.90,-0.29,0.73,-4.59,-2.51,-0.10,2.59,0.51,2.34,949.76
29.555,-0.90,-0.29,0.73,0.68,1.16,-1.82,2.59,0.51,2.34,949.76
29.563,-0.90,-0.29,0.73,0.68,1.16,-1.82,3.05,1.02,2.45,949.76
29.602,-0.90,-0.29,0.73,0.68,1.16,-1.82,3.05,1.02,2.45,949.76
29.617,-1.73,-1.14,0.90,0.68,1.16,-1.82,3.05,1.02,2.45,949.76
29.62,-1.73,-1.14,0.90,8.65,9.78,-3.58,3.05,1.02,2.45,949.76
29.634,-1.73,-1.14,0.90,8.65,9.78,-3.58,0.89,0.08,-1.64,949.76
29.668,-1.73,-1.14,0.90,8.65,9.78,-3.58,0.89,0.08,-1.64,949.78
29.68,-1.86,-1.60,0.06,8.65,9.78,-3.58,0.89,0.08,-1.64,949.78
29.681,-1.86,-1.60,0.06,11.11,11.37,4.77,0.89,0.08,-1.64,949.78
29.689,-1.86,-1.60,0.06,11.11,11.37,4.77,-2.02,-1.10,-5.01,949.78
29.736,-1.86,-1.60,0.06,11.11,11.37,4.77,-2.02,-1.10,-5.01,949.78
29.744,-1.01,-0.37,-0.41,11.11,11.37,4.77,-2.02,-1.10,-5.01,949.78
29.745,-1.01,-0.37,-0.41,4.28,-2.96,8.79,-2.02,-1.10,-5.01,949.78
29.753,-1.01,-0.37,-0.41,4.28,-2.96,8.79,-2.38,-0.04,-3.38,949.78
29.804,-1.01,-0.37,-0.41,4.28,-2.96,8.79,-2.38,-0.04,-3.38,949.58
29.807,-1.12,-0.64,0.11,4.28,-2.96,8.79,-2.38,-0.04,-3.38,949.58
29.808,-1.12,-0.64,0.11,5.74,-1.53,1.98,-2.38,-0.04,-3.38,949.58
29.817,-1.12,-0.64,0.11,5.74,-1.53,1.98,-2.39,1.03,-1.30,949.58
29.87,-1.12,-0.64,0.11,5.74,-1.53,1.98,-2.39,1.03,-1.30,949.58
29.872,-0.73,-0.29,0.63,5.74,-1.53,1.98,-2.39,1.03,-1.30,949.58
29.873,-0.73,-0.29,0.63,2.10,-5.08,-2.97,-2.39,1.03,-1.30,949.58
29.879,-0.73,-0.29,0.63,2.10,-5.08,-2.97,-0.80,-2.45,0.72,949.58
29.934,-0.50,-0.21,0.87,2.10,-5.08,-2.97,-0.80,-2.45,0.72,949.58
29.937,-0.50,-0.21,0.87,-0.98,-5.05,-5.06,-0.80,-2.45,0.72,949.58
29.952,-0.50,-0.21,0.87,-0.98,-5.05,-5.06,-0.80,-2.45,0.72,949.66
29.953,-0.50,-0.21,0.87,-0.98,-5.05,-5.06,0.45,-0.04,2.42,949.66
29.997,-0.22,0.22,0.67,-0.98,-5.05,-5.06,0.45,-0.04,2.42,949.66
29.999,-0.22,0.22,0.67,-4.66,-7.81,-2.29,0.45,-0.04,2.42,949.66
30.001,-0.22,0.22,0.67,-4.66,-7.81,-2.29,0.45,-0.04,2.42,949.66
30.007,-0.22,0.22,0.67,-4.66,-7.81,-2.29,1.96,-0.60,2.57,949.66
30.061,-0.08,-0.17,0.65,-4.66,-7.81,-2.29,1.96,-0.60,2.57,949.66
30.062,-0.08,-0.17,0.65,-6.67,-1.95,-0.98,1.96,-0.60,2.57,949.66
30.068,-0.08,-0.17,0.65,-6.67,-1.95,-0.98,1.96,-0.60,2.57,949.66
30.07,-0.08,-0.17,0.65,-6.67,-1.95,-0.98,3.16,0.12,2.59,949.66
30.124,-0.82,-0.45,0.47,-6.67,-1.95,-0.98,3.16,0.12,2.59,949.66
30.126,-0.82,-0.45,0.47,-0.51,3.55,0.22,3.16,0.12,2.59,949.66
