time,gFx,gFy,gFz,ax,ay,az,wx,wy,wz,P
0.03,-0.43,0.29,0.89,0.46,0.27,-0.03,-0.03,-0.06,0.01,954.84
0.031,-0.43,0.29,0.89,0.24,0.22,-0.21,-0.03,-0.06,0.01,954.84
0.031,-0.43,0.29,0.89,0.24,0.22,-0.21,0.02,-0.08,-0.02,954.84
0.031,-0.43,0.29,0.89,0.24,0.22,-0.21,0.02,-0.08,-0.02,954.84
0.059,-0.44,0.30,0.85,0.24,0.22,-0.21,0.02,-0.08,-0.02,954.84
0.059,-0.44,0.30,0.85,0.38,0.11,0.16,0.02,-0.08,-0.02,954.84
0.068,-0.44,0.30,0.85,0.38,0.11,0.16,0.01,-0.05,0.02,954.84
0.095,-0.44,0.30,0.85,0.38,0.11,0.16,0.01,-0.05,0.02,954.76
0.122,-0.43,0.29,0.85,0.38,0.11,0.16,0.01,-0.05,0.02,954.76
0.123,-0.43,0.29,0.85,0.28,0.18,0.14,0.01,-0.05,0.02,954.76
0.132,-0.43,0.29,0.85,0.28,0.18,0.14,0.01,0.02,0.04,954.76
0.162,-0.43,0.29,0.85,0.28,0.18,0.14,0.01,0.02,0.04,954.76
0.185,-0.42,0.30,0.84,0.28,0.18,0.14,0.01,0.02,0.04,954.76
0.186,-0.42,0.30,0.84,0.14,0.12,0.28,0.01,0.02,0.04,954.76
0.195,-0.42,0.30,0.84,0.14,0.12,0.28,0.02,0.06,0.04,954.76
0.229,-0.42,0.30,0.84,0.14,0.12,0.28,0.02,0.06,0.04,954.68
0.249,-0.42,0.30,0.84,0.14,0.12,0.28,0.02,0.06,0.04,954.68
0.249,-0.42,0.30,0.84,0.17,0.08,0.22,0.02,0.06,0.04,954.68
0.258,-0.42,0.30,0.84,0.17,0.08,0.22,-0.01,0.08,0.02,954.68
0.296,-0.42,0.30,0.84,0.17,0.08,0.22,-0.01,0.08,0.02,954.68
0.312,-0.44,0.30,0.86,0.17,0.08,0.22,-0.01,0.08,0.02,954.68
0.312,-0.44,0.30,0.86,0.26,0.11,0.08,-0.01,0.08,0.02,954.68
0.322,-0.44,0.30,0.86,0.26,0.11,0.08,-0.02,0.07,0.03,954.68
0.362,-0.44,0.30,0.86,0.26,0.11,0.08,-0.02,0.07,0.03,954.68
0.375,-0.43,0.30,0.87,0.26,0.11,0.08,-0.02,0.07,0.03,954.68
0.375,-0.43,0.30,0.87,0.10,0.11,-0.11,-0.02,0.07,0.03,954.68
0.385,-0.43,0.30,0.87,0.10,0.11,-0.11,-0.03,0.13,-0.06,954.68
0.429,-0.43,0.30,0.87,0.10,0.11,-0.11,-0.03,0.13,-0.06,954.63
0.438,-0.42,0.29,0.86,0.10,0.11,-0.11,-0.03,0.13,-0.06,954.63
0.439,-0.42,0.29,0.86,-0.17,0.11,-0.06,-0.03,0.13,-0.06,954.63
0.448,-0.42,0.29,0.86,-0.17,0.11,-0.06,-0.02,0.49,-0.19,954.63
0.496,-0.42,0.29,0.86,-0.17,0.11,-0.06,-0.02,0.49,-0.19,954.63
0.502,-0.40,0.28,0.79,-0.17,0.11,-0.06,-0.02,0.49,-0.19,954.63
0.502,-0.40,0.28,0.79,-0.72,0.08,0.47,-0.02,0.49,-0.19,954.63
0.511,-0.40,0.28,0.79,-0.72,0.08,0.47,-0.12,0.54,-0.35,954.63
0.562,-0.40,0.28,0.79,-0.72,0.08,0.47,-0.12,0.54,-0.35,954.60
0.565,-0.37,0.22,0.75,-0.72,0.08,0.47,-0.12,0.54,-0.35,954.60
0.565,-0.37,0.22,0.75,-1.59,0.41,0.58,-0.12,0.54,-0.35,954.60
0.575,-0.37,0.22,0.75,-1.59,0.41,0.58,-0.26,0.99,-0.75,954.60
0.629,-0.46,0.11,0.46,-1.59,0.41,0.58,-0.26,0.99,-0.75,954.60
0.63,-0.46,0.11,0.46,-1.12,0.82,3.35,-0.26,0.99,-0.75,954.60
0.63,-0.46,0.11,0.46,-1.12,0.82,3.35,-0.26,0.99,-0.75,954.60
0.639,-0.46,0.11,0.46,-1.12,0.82,3.35,-0.60,0.37,-1.15,954.60
0.692,-0.45,0.07,0.34,-1.12,0.82,3.35,-0.60,0.37,-1.15,954.60
0.692,-0.45,0.07,0.34,-1.85,0.31,4.25,-0.60,0.37,-1.15,954.60
0.695,-0.45,0.07,0.34,-1.85,0.31,4.25,-0.60,0.37,-1.15,954.61
0.701,-0.45,0.07,0.34,-1.85,0.31,4.25,-1.30,1.11,-1.17,954.61
0.755,-0.30,-0.10,0.25,-1.85,0.31,4.25,-1.30,1.11,-1.17,954.61
0.755,-0.30,-0.10,0.25,-3.66,0.37,4.88,-1.30,1.11,-1.17,954.61
0.762,-0.30,-0.10,0.25,-3.66,0.37,4.88,-1.30,1.11,-1.17,954.61
0.765,-0.30,-0.10,0.25,-3.66,0.37,4.88,-1.92,0.85,-1.85,954.61
0.818,-0.19,-0.23,0.34,-3.66,0.37,4.88,-1.92,0.85,-1.85,954.61
0.819,-0.19,-0.23,0.34,-5.26,-0.23,3.07,-1.92,0.85,-1.85,954.61
0.828,-0.19,-0.23,0.34,-5.26,-0.23,3.07,-2.18,2.14,-2.55,954.61
0.829,-0.19,-0.23,0.34,-5.26,-0.23,3.07,-2.18,2.14,-2.55,954.61
0.882,-0.84,-1.01,0.39,-5.26,-0.23,3.07,-2.18,2.14,-2.55,954.61
0.882,-0.84,-1.01,0.39,0.52,5.13,0.13,-2.18,2.14,-2.55,954.61
0.891,-0.84,-1.01,0.39,0.52,5.13,0.13,-1.94,4.28,-3.30,954.61
0.895,-0.84,-1.01,0.39,0.52,5.13,0.13,-1.94,4.28,-3.30,954.59
0.945,-1.57,-1.86,0.43,0.52,5.13,0.13,-1.94,4.28,-3.30,954.59
0.946,-1.57,-1.86,0.43,8.06,11.93,-2.18,-1.94,4.28,-3.30,954.59
0.955,-1.57,-1.86,0.43,8.06,11.93,-2.18,-1.17,2.66,-2.41,954.59
0.962,-1.57,-1.86,0.43,8.06,11.93,-2.18,-1.17,2.66,-2.41,954.59
1.008,-1.16,-1.78,0.24,8.06,11.93,-2.18,-1.17,2.66,-2.41,954.59
1.009,-1.16,-1.78,0.24,4.70,10.18,-1.65,-1.17,2.66,-2.41,954.59
1.018,-1.16,-1.78,0.24,4.70,10.18,-1.65,-0.77,2.17,-2.30,954.59
1.029,-1.16,-1.78,0.24,4.70,10.18,-1.65,-0.77,2.17,-2.30,954.61
1.072,-0.98,-1.32,-0.09,4.70,10.18,-1.65,-0.77,2.17,-2.30,954.61
1.072,-0.98,-1.32,-0.09,4.42,4.48,0.88,-0.77,2.17,-2.30,954.61
1.081,-0.98,-1.32,-0.09,4.42,4.48,0.88,-0.74,0.28,-3.10,954.61
1.096,-0.98,-1.32,-0.09,4.42,4.48,0.88,-0.74,0.28,-3.10,954.61
1.135,-0.52,-0.43,-0.10,4.42,4.48,0.88,-0.74,0.28,-3.10,954.61
1.136,-0.52,-0.43,-0.10,1.44,-4.95,0.81,-0.74,0.28,-3.10,954.61
1.145,-0.52,-0.43,-0.10,1.44,-4.95,0.81,-0.49,-0.28,-2.45,954.61
1.162,-0.52,-0.43,-0.10,1.44,-4.95,0.81,-0.49,-0.28,-2.45,954.55
1.198,-0.42,0.03,-0.08,1.44,-4.95,0.81,-0.49,-0.28,-2.45,954.55
1.199,-0.42,0.03,-0.08,1.56,-9.78,0.26,-0.49,-0.28,-2.45,954.55
1.208,-0.42,0.03,-0.08,1.56,-9.78,0.26,-0.30,0.72,-1.83,954.55
1.229,-0.42,0.03,-0.08,1.56,-9.78,0.26,-0.30,0.72,-1.83,954.55
1.262,-0.49,-0.03,-0.11,1.56,-9.78,0.26,-0.30,0.72,-1.83,954.55
1.262,-0.49,-0.03,-0.11,3.13,-9.41,0.44,-0.30,0.72,-1.83,954.55
1.271,-0.49,-0.03,-0.11,3.13,-9.41,0.44,-0.21,-0.36,-1.21,954.55
1.296,-0.49,-0.03,-0.11,3.13,-9.41,0.44,-0.21,-0.36,-1.21,954.50
1.325,-0.37,-0.08,-0.11,3.13,-9.41,0.44,-0.21,-0.36,-1.21,954.50
1.325,-0.37,-0.08,-0.11,2.23,-8.94,0.34,-0.21,-0.36,-1.21,954.50
1.335,-0.37,-0.08,-0.11,2.23,-8.94,0.34,-0.30,-0.99,-0.38,954.50
1.362,-0.37,-0.08,-0.11,2.23,-8.94,0.34,-0.30,-0.99,-0.38,954.50
1.388,-0.16,-0.26,-0.09,2.23,-8.94,0.34,-0.30,-0.99,-0.38,954.50
1.389,-0.16,-0.26,-0.09,-0.10,-7.11,-0.05,-0.30,-0.99,-0.38,954.50
1.398,-0.16,-0.26,-0.09,-0.10,-7.11,-0.05,-0.51,-0.57,0.57,954.50
1.429,-0.16,-0.26,-0.09,-0.10,-7.11,-0.05,-0.51,-0.57,0.57,954.50
1.452,-0.25,-3.26,0.13,-0.10,-7.11,-0.05,-0.51,-0.57,0.57,954.50
1.452,-0.25,-3.26,0.13,0.05,22.45,-2.29,-0.51,-0.57,0.57,954.50
1.461,-0.25,-3.26,0.13,0.05,22.45,-2.29,-0.20,-1.10,1.06,954.50
1.497,-0.25,-3.26,0.13,0.05,22.45,-2.29,-0.20,-1.10,1.06,954.50
1.515,-0.56,-3.49,-0.07,0.05,22.45,-2.29,-0.20,-1.10,1.06,954.50
1.516,-0.56,-3.49,-0.07,2.93,24.73,-0.01,-0.20,-1.10,1.06,954.50
1.526,-0.56,-3.49,-0.07,2.93,24.73,-0.01,0.32,-1.34,-0.19,954.50
1.563,-0.56,-3.49,-0.07,2.93,24.73,-0.01,0.32,-1.34,-0.19,954.50
1.579,-0.13,-1.24,-0.37,2.93,24.73,-0.01,0.32,-1.34,-0.19,954.50
1.581,-0.13,-1.24,-0.37,-1.15,2.61,3.44,0.32,-1.34,-0.19,954.50
1.588,-0.13,-1.24,-0.37,-1.15,2.61,3.44,0.56,-0.24,0.03,954.50
1.63,-0.13,-1.24,-0.37,-1.15,2.61,3.44,0.56,-0.24,0.03,954.46
1.642,-0.08,-0.06,-0.10,-1.15,2.61,3.44,0.56,-0.24,0.03,954.46
1.643,-0.08,-0.06,-0.10,-1.66,-8.98,0.70,0.56,-0.24,0.03,954.46
1.652,-0.08,-0.06,-0.10,-1.66,-8.98,0.70,0.13,1.21,-0.06,954.46
1.696,-0.08,-0.06,-0.10,-1.66,-8.98,0.70,0.13,1.21,-0.06,954.46
1.705,-0.12,0.13,-0.16,-1.66,-8.98,0.70,0.13,1.21,-0.06,954.46
1.706,-0.12,0.13,-0.16,-1.05,-10.89,1.26,0.13,1.21,-0.06,954.46
1.715,-0.12,0.13,-0.16,-1.05,-10.89,1.26,0.10,0.84,-0.31,954.46
1.763,-0.12,0.13,-0.16,-1.05,-10.89,1.26,0.10,0.84,-0.31,954.47
1.769,-0.12,0.20,-0.08,-1.05,-10.89,1.26,0.10,0.84,-0.31,954.47
1.77,-0.12,0.20,-0.08,-1.09,-11.58,0.29,0.10,0.84,-0.31,954.47
1.778,-0.12,0.20,-0.08,-1.09,-11.58,0.29,-0.08,0.63,0.14,954.47
1.83,-0.12,0.20,-0.08,-1.09,-11.58,0.29,-0.08,0.63,0.14,954.47
1.832,-0.10,0.09,-0.07,-1.09,-11.58,0.29,-0.08,0.63,0.14,954.47
1.833,-0.10,0.09,-0.07,-1.53,-10.44,0.05,-0.08,0.63,0.14,954.47
1.841,-0.10,0.09,-0.07,-1.53,-10.44,0.05,-0.29,-0.48,0.33,954.47
1.896,-0.11,-0.27,-0.08,-1.53,-10.44,0.05,-0.29,-0.48,0.33,954.47
1.897,-0.11,-0.27,-0.08,-1.49,-6.83,0.13,-0.29,-0.48,0.33,954.47
1.898,-0.11,-0.27,-0.08,-1.49,-6.83,0.13,-0.29,-0.48,0.33,954.47
1.905,-0.11,-0.27,-0.08,-1.49,-6.83,0.13,-0.32,-0.85,0.09,954.47
1.959,-0.35,-2.53,0.02,-1.49,-6.83,0.13,-0.32,-0.85,0.09,954.47
1.96,-0.35,-2.53,0.02,0.72,15.27,-0.84,-0.32,-0.85,0.09,954.47
1.962,-0.35,-2.53,0.02,0.72,15.27,-0.84,-0.32,-0.85,0.09,954.50
1.968,-0.35,-2.53,0.02,0.72,15.27,-0.84,-0.02,0.01,0.01,954.50
2.022,-0.62,-3.84,-0.09,0.72,15.27,-0.84,-0.02,0.01,0.01,954.50
2.023,-0.62,-3.84,-0.09,3.52,28.10,0.11,-0.02,0.01,0.01,954.50
2.029,-0.62,-3.84,-0.09,3.52,28.10,0.11,-0.02,0.01,0.01,954.50
2.031,-0.62,-3.84,-0.09,3.52,28.10,0.11,-0.05,-0.13,-0.25,954.50
2.086,-0.23,-1.61,-0.31,3.52,28.10,0.11,-0.05,-0.13,-0.25,954.50
2.087,-0.23,-1.61,-0.31,-0.20,6.26,2.85,-0.05,-0.13,-0.25,954.50
2.095,-0.23,-1.61,-0.31,-0.20,6.26,2.85,0.76,-0.53,-0.12,954.50
2.096,-0.23,-1.61,-0.31,-0.20,6.26,2.85,0.76,-0.53,-0.12,954.56
2.149,-0.06,-0.10,-0.26,-0.20,6.26,2.85,0.76,-0.53,-0.12,954.56
2.151,-0.06,-0.10,-0.26,-1.80,-8.57,2.40,0.76,-0.53,-0.12,954.56
2.159,-0.06,-0.10,-0.26,-1.80,-8.57,2.40,0.18,0.73,-0.11,954.56
2.163,-0.06,-0.10,-0.26,-1.80,-8.57,2.40,0.18,0.73,-0.11,954.56
2.213,-0.14,0.10,-0.23,-1.80,-8.57,2.40,0.18,0.73,-0.11,954.56
2.214,-0.14,0.10,-0.23,-0.87,-10.63,2.17,0.18,0.73,-0.11,954.56
2.221,-0.14,0.10,-0.23,-0.87,-10.63,2.17,-0.02,-0.67,-0.29,954.56
2.229,-0.14,0.10,-0.23,-0.87,-10.63,2.17,-0.02,-0.67,-0.29,954.58
2.276,-0.04,0.11,-0.05,-0.87,-10.63,2.17,-0.02,-0.67,-0.29,954.58
2.278,-0.04,0.11,-0.05,-1.71,-10.70,0.29,-0.02,-0.67,-0.29,954.58
2.287,-0.04,0.11,-0.05,-1.71,-10.70,0.29,-0.14,0.24,-0.09,954.58
2.296,-0.04,0.11,-0.05,-1.71,-10.70,0.29,-0.14,0.24,-0.09,954.58
2.339,-0.16,-0.04,-0.06,-1.71,-10.70,0.29,-0.14,0.24,-0.09,954.58
2.341,-0.16,-0.04,-0.06,-0.66,-9.23,0.29,-0.14,0.24,-0.09,954.58
2.348,-0.16,-0.04,-0.06,-0.66,-9.23,0.29,-0.15,0.14,0.09,954.58
2.363,-0.16,-0.04,-0.06,-0.66,-9.23,0.29,-0.15,0.14,0.09,954.58
2.403,-0.10,-0.07,-0.05,-0.66,-9.23,0.29,-0.15,0.14,0.09,954.58
2.404,-0.10,-0.07,-0.05,-1.29,-8.92,0.02,-0.15,0.14,0.09,954.58
2.411,-0.10,-0.07,-0.05,-1.29,-8.92,0.02,-0.16,0.37,0.26,954.58
2.43,-0.10,-0.07,-0.05,-1.29,-8.92,0.02,-0.16,0.37,0.26,954.59
2.466,-0.30,-1.63,-0.02,-1.29,-8.92,0.02,-0.16,0.37,0.26,954.59
2.467,-0.30,-1.63,-0.02,0.45,6.49,-0.37,-0.16,0.37,0.26,954.59
2.475,-0.30,-1.63,-0.02,0.45,6.49,-0.37,-0.06,0.93,0.43,954.59
2.496,-0.30,-1.63,-0.02,0.45,6.49,-0.37,-0.06,0.93,0.43,954.59
2.529,-0.74,-4.01,-0.09,0.45,6.49,-0.37,-0.06,0.93,0.43,954.59
2.531,-0.74,-4.01,-0.09,4.67,29.85,-0.08,-0.06,0.93,0.43,954.59
2.538,-0.74,-4.01,-0.09,4.67,29.85,-0.08,-0.31,0.45,0.00,954.59
2.564,-0.74,-4.01,-0.09,4.67,29.85,-0.08,-0.31,0.45,0.00,954.67
2.592,-0.48,-2.38,-0.29,4.67,29.85,-0.08,-0.31,0.45,0.00,954.67
2.593,-0.48,-2.38,-0.29,2.22,13.84,2.28,-0.31,0.45,0.00,954.67
2.601,-0.48,-2.38,-0.29,2.22,13.84,2.28,0.36,-2.02,-0.18,954.67
2.63,-0.48,-2.38,-0.29,2.22,13.84,2.28,0.36,-2.02,-0.18,954.67
2.656,0.10,-0.17,-0.13,2.22,13.84,2.28,0.36,-2.02,-0.18,954.67
2.657,0.10,-0.17,-0.13,-3.70,-7.80,0.92,0.36,-2.02,-0.18,954.67
2.665,0.10,-0.17,-0.13,-3.70,-7.80,0.92,0.28,0.70,0.33,954.67
2.698,0.10,-0.17,-0.13,-3.70,-7.80,0.92,0.28,0.70,0.33,954.70
2.719,-0.06,0.10,-0.27,-3.70,-7.80,0.92,0.28,0.70,0.33,954.70
2.72,-0.06,0.10,-0.27,-2.08,-10.46,2.18,0.28,0.70,0.33,954.70
2.728,-0.06,0.10,-0.27,-2.08,-10.46,2.18,0.15,1.43,-0.01,954.70
2.763,-0.06,0.10,-0.27,-2.08,-10.46,2.18,0.15,1.43,-0.01,954.70
2.782,-0.03,0.07,-0.09,-2.08,-10.46,2.18,0.15,1.43,-0.01,954.70
2.783,-0.03,0.07,-0.09,-2.34,-10.13,0.25,0.15,1.43,-0.01,954.70
2.791,-0.03,0.07,-0.09,-2.34,-10.13,0.25,-0.11,0.28,0.02,954.70
2.83,-0.03,0.07,-0.09,-2.34,-10.13,0.25,-0.11,0.28,0.02,954.68
2.845,-0.04,-0.03,-0.02,-2.34,-10.13,0.25,-0.11,0.28,0.02,954.68
2.846,-0.04,-0.03,-0.02,-2.38,-9.14,-0.65,-0.11,0.28,0.02,954.68
2.856,-0.04,-0.03,-0.02,-2.38,-9.14,-0.65,-0.28,0.52,0.20,954.68
2.897,-0.04,-0.03,-0.02,-2.38,-9.14,-0.65,-0.28,0.52,0.20,954.68
2.909,-0.07,0.06,-0.10,-2.38,-9.14,-0.65,-0.28,0.52,0.20,954.68
2.91,-0.07,0.06,-0.10,-2.22,-9.99,-0.12,-0.28,0.52,0.20,954.68
2.918,-0.07,0.06,-0.10,-2.22,-9.99,-0.12,-0.25,0.28,0.26,954.68
2.964,-0.07,0.06,-0.10,-2.22,-9.99,-0.12,-0.25,0.28,0.26,954.68
2.981,-0.11,-1.01,-0.03,-2.22,-9.99,-0.12,-0.25,0.28,0.26,954.68
2.983,-0.11,-1.01,-0.03,-1.83,0.62,-1.00,-0.25,0.28,0.26,954.68
2.984,-0.11,-1.01,-0.03,-1.83,0.62,-1.00,-0.05,1.21,0.21,954.68
3.031,-0.11,-1.01,-0.03,-1.83,0.62,-1.00,-0.05,1.21,0.21,954.69
3.035,-0.50,-3.78,-0.18,-1.83,0.62,-1.00,-0.05,1.21,0.21,954.69
3.036,-0.50,-3.78,-0.18,2.32,27.68,0.11,-0.05,1.21,0.21,954.69
3.045,-0.50,-3.78,-0.18,2.32,27.68,0.11,-0.07,1.66,-0.62,954.69
3.097,-0.50,-3.78,-0.18,2.32,27.68,0.11,-0.07,1.66,-0.62,954.69
3.098,-0.67,-2.99,-0.37,2.32,27.68,0.11,-0.07,1.66,-0.62,954.69
3.098,-0.67,-2.99,-0.37,4.45,19.80,2.28,-0.07,1.66,-0.62,954.69
3.108,-0.67,-2.99,-0.37,4.45,19.80,2.28,0.44,-1.56,-0.72,954.69
3.162,-0.06,-0.48,-0.25,4.45,19.80,2.28,0.44,-1.56,-0.72,954.69
3.163,-0.06,-0.48,-0.25,-1.75,-4.82,1.54,0.44,-1.56,-0.72,954.69
3.165,-0.06,-0.48,-0.25,-1.75,-4.82,1.54,0.44,-1.56,-0.72,954.72
3.173,-0.06,-0.48,-0.25,-1.75,-4.82,1.54,0.28,-0.82,0.23,954.72
3.225,-0.06,0.15,-0.29,-1.75,-4.82,1.54,0.28,-0.82,0.23,954.72
3.226,-0.06,0.15,-0.29,-1.63,-11.02,1.90,0.28,-0.82,0.23,954.72
3.229,-0.06,0.15,-0.29,-1.63,-11.02,1.90,0.28,-0.82,0.23,954.72
3.234,-0.06,0.15,-0.29,-1.63,-11.02,1.90,0.24,0.81,-0.05,954.72
3.289,-0.16,0.11,-0.17,-1.63,-11.02,1.90,0.24,0.81,-0.05,954.72
3.29,-0.16,0.11,-0.17,-0.80,-10.67,0.83,0.24,0.81,-0.05,954.72
3.296,-0.16,0.11,-0.17,-0.80,-10.67,0.83,0.24,0.81,-0.05,954.69
3.298,-0.16,0.11,-0.17,-0.80,-10.67,0.83,0.21,-0.19,0.17,954.69
3.353,-0.08,0.07,0.01,-0.80,-10.67,0.83,0.21,-0.19,0.17,954.69
3.354,-0.08,0.07,0.01,-1.68,-10.19,-1.02,0.21,-0.19,0.17,954.69
3.361,-0.08,0.07,0.01,-1.68,-10.19,-1.02,-0.21,0.17,0.15,954.69
3.363,-0.08,0.07,0.01,-1.68,-10.19,-1.02,-0.21,0.17,0.15,954.69
3.416,-0.17,-0.06,-0.01,-1.68,-10.19,-1.02,-0.21,0.17,0.15,954.69
3.417,-0.17,-0.06,-0.01,-0.89,-8.89,-0.93,-0.21,0.17,0.15,954.69
3.425,-0.17,-0.06,-0.01,-0.89,-8.89,-0.93,-0.20,0.18,0.28,954.69
3.43,-0.17,-0.06,-0.01,-0.89,-8.89,-0.93,-0.20,0.18,0.28,954.69
3.479,-0.17,-0.59,-0.02,-0.89,-8.89,-0.93,-0.20,0.18,0.28,954.69
3.482,-0.17,-0.59,-0.02,-1.13,-3.65,-1.00,-0.20,0.18,0.28,954.69
3.49,-0.17,-0.59,-0.02,-1.13,-3.65,-1.00,-0.03,0.62,0.38,954.69
3.497,-0.17,-0.59,-0.02,-1.13,-3.65,-1.00,-0.03,0.62,0.38,954.67
3.548,-0.43,-3.53,-0.11,-1.13,-3.65,-1.00,-0.03,0.62,0.38,954.67
3.549,-0.43,-3.53,-0.11,1.41,25.20,-0.36,-0.03,0.62,0.38,954.67
3.551,-0.43,-3.53,-0.11,1.41,25.20,-0.36,0.06,1.57,0.16,954.67
3.565,-0.43,-3.53,-0.11,1.41,25.20,-0.36,0.06,1.57,0.16,954.67
3.606,-0.63,-3.34,-0.36,1.41,25.20,-0.36,0.06,1.57,0.16,954.67
3.608,-0.63,-3.34,-0.36,3.52,23.34,2.35,0.06,1.57,0.16,954.67
3.615,-0.63,-3.34,-0.36,3.52,23.34,2.35,0.17,-1.64,-0.35,954.67
3.63,-0.63,-3.34,-0.36,3.52,23.34,2.35,0.17,-1.64,-0.35,954.71
3.669,-0.06,-0.71,-0.25,3.52,23.34,2.35,0.17,-1.64,-0.35,954.71
3.67,-0.06,-0.71,-0.25,-2.26,-2.42,1.62,0.17,-1.64,-0.35,954.71
3.678,-0.06,-0.71,-0.25,-2.26,-2.42,1.62,0.10,-1.04,0.27,954.71
3.697,-0.06,-0.71,-0.25,-2.26,-2.42,1.62,0.10,-1.04,0.27,954.71
3.733,-0.06,-0.71,-0.25,-1.94,-11.90,1.97,0.10,-1.04,0.27,954.71
3.735,-0.10,0.26,-0.29,-1.94,-11.90,1.97,0.10,-1.04,0.27,954.71
3.741,-0.10,0.26,-0.29,-1.94,-11.90,1.97,0.09,0.22,0.12,954.71
3.763,-0.10,0.26,-0.29,-1.94,-11.90,1.97,0.09,0.22,0.12,954.70
3.795,-0.01,0.07,-0.11,-1.94,-11.90,1.97,0.09,0.22,0.12,954.70
3.795,-0.01,0.07,-0.11,-2.96,-9.99,0.30,0.09,0.22,0.12,954.70
3.804,-0.01,0.07,-0.11,-2.96,-9.99,0.30,0.09,0.39,0.30,954.70
3.83,-0.01,0.07,-0.11,-2.96,-9.99,0.30,0.09,0.39,0.30,954.70
3.858,-0.15,-0.13,-0.04,-2.96,-9.99,0.30,0.09,0.39,0.30,954.70
3.859,-0.15,-0.13,-0.04,-1.86,-7.96,-0.62,0.09,0.39,0.30,954.70
3.868,-0.15,-0.13,-0.04,-1.86,-7.96,-0.62,-0.30,0.18,0.41,954.70
3.897,-0.15,-0.13,-0.04,-1.86,-7.96,-0.62,-0.30,0.18,0.41,954.71
3.922,-0.09,-0.06,0.01,-1.86,-7.96,-0.62,-0.30,0.18,0.41,954.71
3.923,-0.09,-0.06,0.01,-2.64,-8.59,-1.24,-0.30,0.18,0.41,954.71
3.932,-0.09,-0.06,0.01,-2.64,-8.59,-1.24,-0.06,-0.00,0.35,954.71
3.965,-0.09,-0.06,0.01,-2.64,-8.59,-1.24,-0.06,-0.00,0.35,954.71
3.986,-0.14,-0.44,-0.10,-2.64,-8.59,-1.24,-0.06,-0.00,0.35,954.71
3.986,-0.14,-0.44,-0.10,-2.29,-4.79,-0.41,-0.06,-0.00,0.35,954.71
3.994,-0.14,-0.44,-0.10,-2.29,-4.79,-0.41,-0.05,1.34,0.39,954.71
4.03,-0.14,-0.44,-0.10,-2.29,-4.79,-0.41,-0.05,1.34,0.39,954.71
4.048,-0.51,-3.31,-0.05,-2.29,-4.79,-0.41,-0.05,1.34,0.39,954.71
4.049,-0.51,-3.31,-0.05,1.39,23.40,-1.02,-0.05,1.34,0.39,954.71
4.058,-0.51,-3.31,-0.05,1.39,23.40,-1.02,0.20,0.90,0.06,954.71
4.097,-0.51,-3.31,-0.05,1.39,23.40,-1.02,0.20,0.90,0.06,954.69
4.116,-0.81,-3.53,-0.33,1.39,23.40,-1.02,0.20,0.90,0.06,954.69
4.117,-0.81,-3.53,-0.33,4.40,25.47,1.83,0.20,0.90,0.06,954.69
4.122,-0.81,-3.53,-0.33,4.40,25.47,1.83,-0.05,-1.58,-0.51,954.69
4.164,-0.81,-3.53,-0.33,4.40,25.47,1.83,-0.05,-1.58,-0.51,954.69
4.175,-0.41,-1.11,-0.32,4.40,25.47,1.83,-0.05,-1.58,-0.51,954.69
4.176,-0.41,-1.11,-0.32,0.52,1.69,2.50,-0.05,-1.58,-0.51,954.69
4.184,-0.41,-1.11,-0.32,0.52,1.69,2.50,0.29,-2.31,-0.12,954.69
4.231,-0.41,-1.11,-0.32,0.52,1.69,2.50,0.29,-2.31,-0.12,954.68
4.238,-0.05,0.36,-0.25,0.52,1.69,2.50,0.29,-2.31,-0.12,954.68
4.239,-0.05,0.36,-0.25,-2.76,-12.84,1.82,0.29,-2.31,-0.12,954.68
4.248,-0.05,0.36,-0.25,-2.76,-12.84,1.82,0.39,1.45,-0.67,954.68
4.297,-0.05,0.36,-0.25,-2.76,-12.84,1.82,0.39,1.45,-0.67,954.68
4.301,-0.28,0.25,-0.18,-2.76,-12.84,1.82,0.39,1.45,-0.67,954.68
4.302,-0.28,0.25,-0.18,0.02,-11.91,0.94,0.39,1.45,-0.67,954.68
4.311,-0.28,0.25,-0.18,0.02,-11.91,0.94,0.22,2.16,-0.60,954.68
4.365,-0.28,0.25,-0.18,0.02,-11.91,0.94,0.22,2.16,-0.60,954.70
4.366,-0.26,0.01,0.05,0.02,-11.91,0.94,0.22,2.16,-0.60,954.70
4.367,-0.26,0.01,0.05,0.08,-9.59,-1.66,0.22,2.16,-0.60,954.70
4.375,-0.26,0.01,0.05,0.08,-9.59,-1.66,-0.16,1.79,-0.18,954.70
4.429,-0.26,0.04,0.08,0.08,-9.59,-1.66,-0.16,1.79,-0.18,954.70
4.431,-0.26,0.04,0.08,0.13,-9.80,-2.39,-0.16,1.79,-0.18,954.70
4.432,-0.26,0.04,0.08,0.13,-9.80,-2.39,-0.16,1.79,-0.18,954.70
4.438,-0.26,0.04,0.08,0.13,-9.80,-2.39,-0.32,1.50,0.18,954.70
4.492,-0.22,-0.13,-0.03,0.13,-9.80,-2.39,-0.32,1.50,0.18,954.70
4.493,-0.22,-0.13,-0.03,-0.38,-8.04,-1.68,-0.32,1.50,0.18,954.70
4.497,-0.22,-0.13,-0.03,-0.38,-8.04,-1.68,-0.32,1.50,0.18,954.70
4.501,-0.22,-0.13,-0.03,-0.38,-8.04,-1.68,-0.39,1.20,0.44,954.70
4.556,-0.22,-0.13,-0.03,0.93,13.50,-0.77,-0.39,1.20,0.44,954.70
4.558,-0.35,-2.32,-0.17,0.93,13.50,-0.77,-0.39,1.20,0.44,954.70
4.563,-0.35,-2.32,-0.17,0.93,13.50,-0.77,-0.39,1.20,0.44,954.78
4.564,-0.35,-2.32,-0.17,0.93,13.50,-0.77,-0.43,1.35,0.40,954.78
4.619,-0.35,-2.32,-0.17,-0.14,32.39,1.13,-0.43,1.35,0.40,954.78
4.621,-0.30,-4.23,-0.34,-0.14,32.39,1.13,-0.43,1.35,0.40,954.78
4.628,-0.30,-4.23,-0.34,-0.14,32.39,1.13,0.36,-2.20,0.49,954.78
4.63,-0.30,-4.23,-0.34,-0.14,32.39,1.13,0.36,-2.20,0.49,954.78
4.682,0.15,-1.58,-0.52,-0.14,32.39,1.13,0.36,-2.20,0.49,954.78
4.683,0.15,-1.58,-0.52,-4.55,6.27,3.46,0.36,-2.20,0.49,954.78
4.692,0.15,-1.58,-0.52,-4.55,6.27,3.46,0.77,0.57,-0.09,954.78
4.697,0.15,-1.58,-0.52,-4.55,6.27,3.46,0.77,0.57,-0.09,954.76
4.745,0.01,0.11,-0.29,-4.55,6.27,3.46,0.77,0.57,-0.09,954.76
4.746,0.01,0.11,-0.29,-2.84,-10.37,1.19,0.77,0.57,-0.09,954.76
4.754,0.01,0.11,-0.29,-2.84,-10.37,1.19,0.14,0.77,-0.53,954.76
4.763,0.01,0.11,-0.29,-2.84,-10.37,1.19,0.14,0.77,-0.53,954.76
4.809,-0.08,0.16,-0.10,-2.84,-10.37,1.19,0.14,0.77,-0.53,954.76
4.81,-0.08,0.16,-0.10,-1.75,-10.96,-0.84,0.14,0.77,-0.53,954.76
4.818,-0.08,0.16,-0.10,-1.75,-10.96,-0.84,0.02,0.67,-0.27,954.76
4.83,-0.08,0.16,-0.10,-1.75,-10.96,-0.84,0.02,0.67,-0.27,954.77
4.872,-0.08,0.16,-0.10,-0.96,-8.58,-1.59,0.02,0.67,-0.27,954.77
4.874,-0.14,-0.08,-0.03,-0.96,-8.58,-1.59,0.02,0.67,-0.27,954.77
4.882,-0.14,-0.08,-0.03,-0.96,-8.58,-1.59,-0.05,0.59,-0.25,954.77
4.898,-0.14,-0.08,-0.03,-0.96,-8.58,-1.59,-0.05,0.59,-0.25,954.77
4.935,-0.21,-0.09,-0.05,-0.96,-8.58,-1.59,-0.05,0.59,-0.25,954.77
4.936,-0.21,-0.09,-0.05,-0.26,-8.50,-1.49,-0.05,0.59,-0.25,954.77
4.944,-0.21,-0.09,-0.05,-0.26,-8.50,-1.49,-0.09,0.11,0.13,954.77
4.965,-0.21,-0.09,-0.05,-0.26,-8.50,-1.49,-0.09,0.11,0.13,954.77
4.999,-0.13,-0.19,-0.05,-0.26,-8.50,-1.49,-0.09,0.11,0.13,954.77
5.0,-0.13,-0.19,-0.05,-1.24,-7.43,-1.59,-0.09,0.11,0.13,954.77
5.008,-0.13,-0.19,-0.05,-1.24,-7.43,-1.59,-0.18,0.48,0.56,954.77
5.035,-0.13,-0.19,-0.05,-1.24,-7.43,-1.59,-0.18,0.48,0.56,954.72
5.062,-0.21,-2.35,-0.14,-1.24,-7.43,-1.59,-0.18,0.48,0.56,954.72
5.063,-0.21,-2.35,-0.14,-0.58,13.84,-1.05,-0.18,0.48,0.56,954.72
5.071,-0.21,-2.35,-0.14,-0.58,13.84,-1.05,-0.14,1.80,0.66,954.72
5.097,-0.21,-2.35,-0.14,-0.58,13.84,-1.05,-0.14,1.80,0.66,954.72
5.135,-0.48,-3.79,-0.24,-0.58,13.84,-1.05,-0.14,1.80,0.66,954.72
5.137,-0.48,-3.79,-0.24,1.78,28.04,0.07,-0.14,1.80,0.66,954.72
5.137,-0.48,-3.79,-0.24,1.78,28.04,0.07,0.38,-1.26,0.07,954.72
5.164,-0.48,-3.79,-0.24,1.78,28.04,0.07,0.38,-1.26,0.07,954.80
5.188,-0.02,-1.49,-0.45,1.78,28.04,0.07,0.38,-1.26,0.07,954.80
5.19,-0.02,-1.49,-0.45,-2.69,5.27,2.94,0.38,-1.26,0.07,954.80
5.198,-0.02,-1.49,-0.45,-2.69,5.27,2.94,0.96,-1.23,-0.28,954.80
5.235,-0.02,-1.49,-0.45,-2.69,5.27,2.94,0.96,-1.23,-0.28,954.80
5.252,-0.00,0.17,-0.44,-2.69,5.27,2.94,0.96,-1.23,-0.28,954.80
5.253,-0.00,0.17,-0.44,-2.58,-11.14,3.18,0.96,-1.23,-0.28,954.80
5.261,-0.00,0.17,-0.44,-2.58,-11.14,3.18,0.53,0.96,-0.63,954.80
5.297,-0.00,0.17,-0.44,-2.58,-11.14,3.18,0.53,0.96,-0.63,954.70
5.315,-0.18,0.07,-0.33,-2.58,-11.14,3.18,0.53,0.96,-0.63,954.70
5.317,-0.18,0.07,-0.33,-0.25,-10.19,1.81,0.53,0.96,-0.63,954.70
5.324,-0.18,0.07,-0.33,-0.25,-10.19,1.81,-0.10,2.19,-0.52,954.70
5.365,-0.18,0.07,-0.33,-0.25,-10.19,1.81,-0.10,2.19,-0.52,954.70
5.388,-0.28,-0.19,-0.26,-0.25,-10.19,1.81,-0.10,2.19,-0.52,954.70
5.39,-0.28,-0.19,-0.26,0.87,-7.61,0.60,-0.10,2.19,-0.52,954.70
5.391,-0.28,-0.19,-0.26,0.87,-7.61,0.60,-0.63,1.19,0.08,954.70
5.431,-0.28,-0.19,-0.26,0.87,-7.61,0.60,-0.63,1.19,0.08,954.68
5.441,-0.16,-0.02,-0.13,0.87,-7.61,0.60,-0.63,1.19,0.08,954.68
5.442,-0.16,-0.02,-0.13,-0.58,-9.17,-1.10,-0.63,1.19,0.08,954.68
5.451,-0.16,-0.02,-0.13,-0.58,-9.17,-1.10,-0.68,-0.31,0.55,954.68
5.498,-0.16,-0.02,-0.13,-0.58,-9.17,-1.10,-0.68,-0.31,0.55,954.68
5.505,-0.11,-0.69,-0.10,-0.58,-9.17,-1.10,-0.68,-0.31,0.55,954.68
5.506,-0.11,-0.69,-0.10,-1.50,-2.33,-1.71,-0.68,-0.31,0.55,954.68
5.515,-0.11,-0.69,-0.10,-1.50,-2.33,-1.71,-0.45,-0.11,0.64,954.68
5.564,-0.11,-0.69,-0.10,-1.50,-2.33,-1.71,-0.45,-0.11,0.64,954.68
5.568,-0.40,-3.10,-0.06,-1.50,-2.33,-1.71,-0.45,-0.11,0.64,954.68
5.568,-0.40,-3.10,-0.06,1.17,21.30,-2.16,-0.45,-0.11,0.64,954.68
5.578,-0.40,-3.10,-0.06,1.17,21.30,-2.16,-0.09,0.19,0.22,954.68
5.63,-0.40,-3.10,-0.06,1.17,21.30,-2.16,-0.09,0.19,0.22,954.70
5.631,-0.48,-2.93,-0.21,1.17,21.30,-2.16,-0.09,0.19,0.22,954.70
5.632,-0.48,-2.93,-0.21,1.90,19.61,-0.41,-0.09,0.19,0.22,954.70
5.641,-0.48,-2.93,-0.21,1.90,19.61,-0.41,0.61,-0.98,-0.13,954.70
5.695,0.04,-0.60,-0.25,1.90,19.61,-0.41,0.61,-0.98,-0.13,954.70
5.696,0.04,-0.60,-0.25,-3.37,-3.42,0.68,0.61,-0.98,-0.13,954.70
5.697,0.04,-0.60,-0.25,-3.37,-3.42,0.68,0.61,-0.98,-0.13,954.70
5.704,0.04,-0.60,-0.25,-3.37,-3.42,0.68,0.99,-0.11,0.14,954.70
5.759,0.11,0.25,-0.06,-3.37,-3.42,0.68,0.99,-0.11,0.14,954.70
5.76,0.11,0.25,-0.06,-3.50,-11.85,-0.92,0.99,-0.11,0.14,954.70
5.77,0.11,0.25,-0.06,-3.50,-11.85,-0.92,0.99,-0.11,0.14,954.66
5.771,0.11,0.25,-0.06,-3.50,-11.85,-0.92,0.82,2.03,-0.86,954.66
5.822,-0.38,0.08,-0.40,-3.50,-11.85,-0.92,0.82,2.03,-0.86,954.66
5.823,-0.38,0.08,-0.40,2.11,-10.45,2.46,0.82,2.03,-0.86,954.66
5.831,-0.38,0.08,-0.40,2.11,-10.45,2.46,0.82,2.03,-0.86,954.66
5.832,-0.38,0.08,-0.40,2.11,-10.45,2.46,0.54,2.05,-0.82,954.66
5.885,-0.33,-0.23,-0.19,2.11,-10.45,2.46,0.54,2.05,-0.82,954.66
5.886,-0.33,-0.23,-0.19,1.44,-7.29,0.34,0.54,2.05,-0.82,954.66
5.896,-0.33,-0.23,-0.19,1.44,-7.29,0.34,-0.18,-0.24,0.48,954.66
5.897,-0.33,-0.23,-0.19,1.44,-7.29,0.34,-0.18,-0.24,0.48,954.64
5.948,-0.10,-0.28,-0.21,1.44,-7.29,0.34,-0.18,-0.24,0.48,954.64
5.949,-0.10,-0.28,-0.21,-1.37,-6.69,0.43,-0.18,-0.24,0.48,954.64
5.957,-0.10,-0.28,-0.21,-1.37,-6.69,0.43,-0.38,-0.65,1.01,954.64
5.964,-0.10,-0.28,-0.21,-1.37,-6.69,0.43,-0.38,-0.65,1.01,954.64
6.012,-0.25,-1.91,-0.22,-1.37,-6.69,0.43,-0.38,-0.65,1.01,954.64
6.013,-0.25,-1.91,-0.22,-0.50,9.54,0.12,-0.38,-0.65,1.01,954.64
6.021,-0.25,-1.91,-0.22,-0.50,9.54,0.12,-0.48,0.86,1.03,954.64
6.031,-0.25,-1.91,-0.22,-0.50,9.54,0.12,-0.48,0.86,1.03,954.64
6.075,-0.53,-3.38,-0.18,-0.50,9.54,0.12,-0.48,0.86,1.03,954.64
6.077,-0.53,-3.38,-0.18,1.76,24.14,-0.51,-0.48,0.86,1.03,954.64
6.085,-0.53,-3.38,-0.18,1.76,24.14,-0.51,-0.48,-0.92,0.72,954.64
6.097,-0.53,-3.38,-0.18,1.76,24.14,-0.51,-0.48,-0.92,0.72,954.69
6.138,-0.27,-2.07,-0.17,1.76,24.14,-0.51,-0.48,-0.92,0.72,954.69
6.139,-0.27,-2.07,-0.17,-0.90,11.29,-0.18,-0.48,-0.92,0.72,954.69
6.148,-0.27,-2.07,-0.17,-0.90,11.29,-0.18,0.09,-1.32,-0.28,954.69
6.164,-0.27,-2.07,-0.17,-0.90,11.29,-0.18,0.09,-1.32,-0.28,954.69
6.202,-0.09,-0.18,-0.14,-0.90,11.29,-0.18,0.09,-1.32,-0.28,954.69
6.203,-0.09,-0.18,-0.14,-2.66,-7.26,-0.40,0.09,-1.32,-0.28,954.69
6.211,-0.09,-0.18,-0.14,-2.66,-7.26,-0.40,-0.06,-0.49,-0.24,954.69
6.23,-0.09,-0.18,-0.14,-2.66,-7.26,-0.40,-0.06,-0.49,-0.24,954.68
6.265,-0.05,0.11,-0.10,-2.66,-7.26,-0.40,-0.06,-0.49,-0.24,954.68
6.266,-0.05,0.11,-0.10,-2.86,-10.18,-0.81,-0.06,-0.49,-0.24,954.68
6.274,-0.05,0.11,-0.10,-2.86,-10.18,-0.81,-0.03,0.02,-0.42,954.68
6.304,-0.05,0.11,-0.10,-2.86,-10.18,-0.81,-0.03,0.02,-0.42,954.68
6.328,-0.13,0.03,-0.02,-2.86,-10.18,-0.81,-0.03,0.02,-0.42,954.68
6.329,-0.13,0.03,-0.02,-1.83,-9.51,-1.78,-0.03,0.02,-0.42,954.68
6.338,-0.13,0.03,-0.02,-1.83,-9.51,-1.78,-0.07,0.59,-0.35,954.68
6.364,-0.13,0.03,-0.02,-1.83,-9.51,-1.78,-0.07,0.59,-0.35,954.67
6.391,-0.20,-0.04,-0.06,-1.83,-9.51,-1.78,-0.07,0.59,-0.35,954.67
6.394,-0.20,-0.04,-0.06,-1.00,-8.77,-1.56,-0.07,0.59,-0.35,954.67
6.402,-0.20,-0.04,-0.06,-1.00,-8.77,-1.56,-0.14,0.32,-0.11,954.67
6.436,-0.20,-0.04,-0.06,-1.00,-8.77,-1.56,-0.14,0.32,-0.11,954.67
6.454,-0.16,-0.16,-0.07,-1.00,-8.77,-1.56,-0.14,0.32,-0.11,954.67
6.455,-0.16,-0.16,-0.07,-1.41,-7.53,-1.56,-0.14,0.32,-0.11,954.67
6.464,-0.16,-0.16,-0.07,-1.41,-7.53,-1.56,-0.19,0.29,0.24,954.67
6.498,-0.16,-0.16,-0.07,-1.41,-7.53,-1.56,-0.19,0.29,0.24,954.67
6.518,-0.16,-0.16,-0.07,-0.02,10.12,-1.33,-0.19,0.29,0.24,954.67
6.52,-0.31,-1.96,-0.12,-0.02,10.12,-1.33,-0.19,0.29,0.24,954.67
6.528,-0.31,-1.96,-0.12,-0.02,10.12,-1.33,-0.17,1.00,0.25,954.67
6.564,-0.31,-1.96,-0.12,-0.02,10.12,-1.33,-0.17,1.00,0.25,954.69
6.581,-0.74,-3.41,-0.22,-0.02,10.12,-1.33,-0.17,1.00,0.25,954.69
6.583,-0.74,-3.41,-0.22,4.23,24.40,-0.48,-0.17,1.00,0.25,954.69
6.591,-0.74,-3.41,-0.22,4.23,24.40,-0.48,-0.29,-1.04,-0.19,954.69
6.631,-0.74,-3.41,-0.22,4.23,24.40,-0.48,-0.29,-1.04,-0.19,954.69
6.644,-0.44,-2.05,-0.36,4.23,24.40,-0.48,-0.29,-1.04,-0.19,954.69
6.645,-0.44,-2.05,-0.36,1.01,10.99,1.45,-0.29,-1.04,-0.19,954.69
6.654,-0.44,-2.05,-0.36,1.01,10.99,1.45,0.20,-2.65,-0.17,954.69
6.698,-0.44,-2.05,-0.36,1.01,10.99,1.45,0.20,-2.65,-0.17,954.69
6.708,-0.11,-0.27,-0.34,1.01,10.99,1.45,0.20,-2.65,-0.17,954.69
6.708,-0.11,-0.27,-0.34,-2.45,-6.37,1.61,0.20,-2.65,-0.17,954.69
6.718,-0.11,-0.27,-0.34,-2.45,-6.37,1.61,0.30,-0.55,0.32,954.69
6.764,-0.11,-0.27,-0.34,-2.45,-6.37,1.61,0.30,-0.55,0.32,954.69
6.771,-0.24,-0.05,-0.29,-2.45,-6.37,1.61,0.30,-0.55,0.32,954.69
6.772,-0.24,-0.05,-0.29,-1.73,-8.41,1.54,0.30,-0.55,0.32,954.69
6.781,-0.24,-0.05,-0.29,-1.73,-8.41,1.54,0.19,-1.50,0.89,954.69
6.831,-0.24,-0.05,-0.29,-1.73,-8.41,1.54,0.19,-1.50,0.89,954.64
6.834,0.07,0.08,-0.01,-1.73,-8.41,1.54,0.19,-1.50,0.89,954.64
6.835,0.07,0.08,-0.01,-5.28,-9.50,-1.01,0.19,-1.50,0.89,954.64
6.844,0.07,0.08,-0.01,-5.28,-9.50,-1.01,-0.04,-0.14,0.63,954.64
6.898,0.07,0.08,-0.01,-5.28,-9.50,-1.01,-0.04,-0.14,0.63,954.64
6.9,-0.09,0.05,-0.05,-5.28,-9.50,-1.01,-0.04,-0.14,0.63,954.64
6.901,-0.09,0.05,-0.05,-3.80,-9.10,-0.95,-0.04,-0.14,0.63,954.64
6.907,-0.09,0.05,-0.05,-3.80,-9.10,-0.95,-0.19,0.76,0.26,954.64
6.962,-0.13,-0.14,-0.04,-3.80,-9.10,-0.95,-0.19,0.76,0.26,954.64
6.963,-0.13,-0.14,-0.04,-3.56,-7.09,-1.36,-0.19,0.76,0.26,954.64
6.964,-0.13,-0.14,-0.04,-3.56,-7.09,-1.36,-0.19,0.76,0.26,954.64
6.97,-0.13,-0.14,-0.04,-3.56,-7.09,-1.36,-0.19,0.57,0.32,954.64
7.025,-0.37,-1.81,-0.04,-3.56,-7.09,-1.36,-0.19,0.57,0.32,954.64
7.026,-0.37,-1.81,-0.04,-1.10,9.38,-1.74,-0.19,0.57,0.32,954.64
7.032,-0.37,-1.81,-0.04,-1.10,9.38,-1.74,-0.19,0.57,0.32,954.64
7.034,-0.37,-1.81,-0.04,-1.10,9.38,-1.74,-0.08,1.62,0.19,954.64
7.088,-0.72,-3.52,-0.02,-1.10,9.38,-1.74,-0.08,1.62,0.19,954.64
7.091,-0.72,-3.52,-0.02,2.50,26.11,-2.30,-0.08,1.62,0.19,954.64
7.098,-0.72,-3.52,-0.02,2.50,26.11,-2.30,-0.08,1.62,0.19,954.64
7.098,-0.72,-3.52,-0.02,2.50,26.11,-2.30,-0.30,-0.19,-0.49,954.64
7.152,-0.61,-2.00,-0.22,2.50,26.11,-2.30,-0.30,-0.19,-0.49,954.64
7.153,-0.61,-2.00,-0.22,1.91,10.81,0.39,-0.30,-0.19,-0.49,954.64
7.161,-0.61,-2.00,-0.22,1.91,10.81,0.39,0.78,-1.40,-1.26,954.64
7.166,-0.61,-2.00,-0.22,1.91,10.81,0.39,0.78,-1.40,-1.26,954.72
7.222,-0.26,-0.29,-0.35,1.91,10.81,0.39,0.78,-1.40,-1.26,954.72
7.223,-0.26,-0.29,-0.35,-1.40,-6.09,2.10,0.78,-1.40,-1.26,954.72
7.228,-0.26,-0.29,-0.35,-1.40,-6.09,2.10,0.56,-0.50,-0.07,954.72
7.24,-0.26,-0.29,-0.35,-1.40,-6.09,2.10,0.56,-0.50,-0.07,954.72
7.278,-0.17,0.15,-0.15,-1.40,-6.09,2.10,0.56,-0.50,-0.07,954.72
7.28,-0.17,0.15,-0.15,-2.36,-10.39,0.55,0.56,-0.50,-0.07,954.72
7.288,-0.17,0.15,-0.15,-2.36,-10.39,0.55,0.30,-0.69,0.05,954.72
7.298,-0.17,0.15,-0.15,-2.36,-10.39,0.55,0.30,-0.69,0.05,954.64
7.342,-0.14,0.19,-0.15,-2.36,-10.39,0.55,0.30,-0.69,0.05,954.64
7.343,-0.14,0.19,-0.15,-2.56,-10.81,0.48,0.30,-0.69,0.05,954.64
7.351,-0.14,0.19,-0.15,-2.56,-10.81,0.48,-0.10,0.41,-0.23,954.64
7.374,-0.14,0.19,-0.15,-2.56,-10.81,0.48,-0.10,0.41,-0.23,954.64
7.405,-0.26,-0.01,-0.08,-2.56,-10.81,0.48,-0.10,0.41,-0.23,954.64
7.406,-0.26,-0.01,-0.08,-1.34,-8.83,-0.40,-0.10,0.41,-0.23,954.64
7.414,-0.26,-0.01,-0.08,-1.34,-8.83,-0.40,-0.41,0.02,-0.04,954.64
7.431,-0.26,-0.01,-0.08,-1.34,-8.83,-0.40,-0.41,0.02,-0.04,954.64
7.468,-0.25,-0.36,-0.08,-1.34,-8.83,-0.40,-0.41,0.02,-0.04,954.64
7.469,-0.25,-0.36,-0.08,-1.53,-5.41,-0.70,-0.41,0.02,-0.04,954.64
7.477,-0.25,-0.36,-0.08,-1.53,-5.41,-0.70,-0.44,0.26,0.20,954.64
7.498,-0.25,-0.36,-0.08,-1.53,-5.41,-0.70,-0.44,0.26,0.20,954.64
7.532,-0.63,-2.37,-0.06,-1.53,-5.41,-0.70,-0.44,0.26,0.20,954.64
7.533,-0.63,-2.37,-0.06,2.15,14.45,-1.22,-0.44,0.26,0.20,954.64
7.54,-0.63,-2.37,-0.06,2.15,14.45,-1.22,-0.37,0.32,0.13,954.64
7.564,-0.63,-2.37,-0.06,2.15,14.45,-1.22,-0.37,0.32,0.13,954.64
7.595,-0.63,-3.60,0.01,2.15,14.45,-1.22,-0.37,0.32,0.13,954.64
7.596,-0.63,-3.60,0.01,2.12,26.44,-1.83,-0.37,0.32,0.13,954.64
7.604,-0.63,-3.60,0.01,2.12,26.44,-1.83,0.19,-0.54,-0.22,954.64
7.631,-0.63,-3.60,0.01,2.12,26.44,-1.83,0.19,-0.54,-0.22,954.63
7.658,-0.38,-1.44,-0.16,2.12,26.44,-1.83,0.19,-0.54,-0.22,954.63
7.659,-0.38,-1.44,-0.16,-0.05,5.15,0.10,0.19,-0.54,-0.22,954.63
7.667,-0.38,-1.44,-0.16,-0.05,5.15,0.10,0.86,1.55,-0.05,954.63
7.698,-0.38,-1.44,-0.16,-0.05,5.15,0.10,0.86,1.55,-0.05,954.63
7.722,-0.01,0.07,-0.20,-0.05,5.15,0.10,0.86,1.55,-0.05,954.63
7.723,-0.01,0.07,-0.20,-3.69,-9.64,0.27,0.86,1.55,-0.05,954.63
7.73,-0.01,0.07,-0.20,-3.69,-9.64,0.27,0.43,1.98,0.40,954.63
7.764,-0.01,0.07,-0.20,-3.69,-9.64,0.27,0.43,1.98,0.40,954.62
7.785,0.00,0.18,-0.23,-3.69,-9.64,0.27,0.43,1.98,0.40,954.62
7.786,0.00,0.18,-0.23,-3.80,-10.65,0.39,0.43,1.98,0.40,954.62
7.794,0.00,0.18,-0.23,-3.80,-10.65,0.39,0.18,0.82,-0.01,954.62
7.831,0.00,0.18,-0.23,-3.80,-10.65,0.39,0.18,0.82,-0.01,954.62
7.848,-0.07,0.13,-0.09,-3.80,-10.65,0.39,0.18,0.82,-0.01,954.62
7.848,-0.07,0.13,-0.09,-2.91,-10.29,-1.04,0.18,0.82,-0.01,954.62
7.858,-0.07,0.13,-0.09,-2.91,-10.29,-1.04,-0.08,0.07,-0.26,954.62
7.898,-0.07,0.13,-0.09,-2.91,-10.29,-1.04,-0.08,0.07,-0.26,954.62
7.911,-0.14,0.01,-0.01,-2.91,-10.29,-1.04,-0.08,0.07,-0.26,954.62
7.912,-0.14,0.01,-0.01,-2.27,-9.08,-1.93,-0.08,0.07,-0.26,954.62
7.921,-0.14,0.01,-0.01,-2.27,-9.08,-1.93,-0.35,-0.31,-0.02,954.62
7.964,-0.14,0.01,-0.01,-2.27,-9.08,-1.93,-0.35,-0.31,-0.02,954.62
7.974,-0.31,-0.83,-0.16,-2.27,-9.08,-1.93,-0.35,-0.31,-0.02,954.62
7.975,-0.31,-0.83,-0.16,-0.57,-0.78,-0.80,-0.35,-0.31,-0.02,954.62
7.984,-0.31,-0.83,-0.16,-0.57,-0.78,-0.80,-0.48,0.31,0.03,954.62
8.031,-0.31,-0.83,-0.16,-0.57,-0.78,-0.80,-0.48,0.31,0.03,954.61
8.037,-0.61,-2.89,-0.12,-0.57,-0.78,-0.80,-0.48,0.31,0.03,954.61
8.038,-0.61,-2.89,-0.12,2.31,19.51,-1.35,-0.48,0.31,0.03,954.61
8.047,-0.61,-2.89,-0.12,2.31,19.51,-1.35,-0.59,-1.28,-0.08,954.61
8.098,-0.61,-2.89,-0.12,2.31,19.51,-1.35,-0.59,-1.28,-0.08,954.61
8.111,-0.45,-3.22,-0.02,2.31,19.51,-1.35,-0.59,-1.28,-0.08,954.61
8.112,-0.45,-3.22,-0.02,0.51,22.74,-1.79,-0.59,-1.28,-0.08,954.61
8.113,-0.45,-3.22,-0.02,0.51,22.74,-1.79,0.67,-1.01,-0.20,954.61
8.164,-0.45,-3.22,-0.02,0.51,22.74,-1.79,0.67,-1.01,-0.20,954.61
8.165,-0.19,-0.96,-0.36,0.51,22.74,-1.79,0.67,-1.01,-0.20,954.61
8.165,-0.19,-0.96,-0.36,-1.85,0.44,1.75,0.67,-1.01,-0.20,954.61
8.174,-0.19,-0.96,-0.36,-1.85,0.44,1.75,0.67,1.46,0.09,954.61
8.227,-0.06,0.04,-0.34,-1.85,0.44,1.75,0.67,1.46,0.09,954.61
8.228,-0.06,0.04,-0.34,-3.22,-9.28,1.48,0.67,1.46,0.09,954.61
8.23,-0.06,0.04,-0.34,-3.22,-9.28,1.48,0.67,1.46,0.09,954.57
8.237,-0.06,0.04,-0.34,-3.22,-9.28,1.48,-0.12,0.04,0.20,954.57
8.29,-0.01,0.17,-0.17,-3.22,-9.28,1.48,-0.12,0.04,0.20,954.57
8.291,-0.01,0.17,-0.17,-3.65,-10.60,-0.30,-0.12,0.04,0.20,954.57
8.297,-0.01,0.17,-0.17,-3.65,-10.60,-0.30,-0.12,0.04,0.20,954.57
8.3,-0.01,0.17,-0.17,-3.65,-10.60,-0.30,-0.36,-0.58,-0.18,954.57
8.354,-0.07,0.10,0.00,-3.65,-10.60,-0.30,-0.36,-0.58,-0.18,954.57
8.355,-0.07,0.10,0.00,-2.94,-9.89,-2.11,-0.36,-0.58,-0.18,954.57
8.363,-0.07,0.10,0.00,-2.94,-9.89,-2.11,-0.49,-0.57,-0.43,954.57
8.364,-0.07,0.10,0.00,-2.94,-9.89,-2.11,-0.49,-0.57,-0.43,954.61
8.417,-0.17,0.02,-0.00,-2.94,-9.89,-2.11,-0.49,-0.57,-0.43,954.61
8.418,-0.17,0.02,-0.00,-1.87,-9.13,-2.26,-0.49,-0.57,-0.43,954.61
8.427,-0.17,0.02,-0.00,-1.87,-9.13,-2.26,-0.42,-0.25,-0.31,954.61
8.43,-0.17,0.02,-0.00,-1.87,-9.13,-2.26,-0.42,-0.25,-0.31,954.61
8.48,-0.34,-0.79,-0.08,-1.87,-9.13,-2.26,-0.42,-0.25,-0.31,954.61
8.481,-0.34,-0.79,-0.08,-0.09,-1.15,-1.76,-0.42,-0.25,-0.31,954.61
8.49,-0.34,-0.79,-0.08,-0.09,-1.15,-1.76,-0.27,0.48,-0.13,954.61
8.497,-0.34,-0.79,-0.08,-0.09,-1.15,-1.76,-0.27,0.48,-0.13,954.61
8.544,-0.65,-3.56,-0.04,-0.09,-1.15,-1.76,-0.27,0.48,-0.13,954.61
8.544,-0.65,-3.56,-0.04,3.13,25.95,-2.20,-0.27,0.48,-0.13,954.61
8.554,-0.65,-3.56,-0.04,3.13,25.95,-2.20,0.11,-0.13,-0.06,954.61
8.564,-0.65,-3.56,-0.04,3.13,25.95,-2.20,0.11,-0.13,-0.06,954.61
8.607,-0.55,-3.07,-0.09,3.13,25.95,-2.20,0.11,-0.13,-0.06,954.61
8.608,-0.55,-3.07,-0.09,1.97,21.07,-1.25,0.11,-0.13,-0.06,954.61
8.617,-0.55,-3.07,-0.09,1.97,21.07,-1.25,0.47,-1.20,-0.06,954.61
8.63,-0.55,-3.07,-0.09,1.97,21.07,-1.25,0.47,-1.20,-0.06,954.61
8.67,0.00,-0.54,-0.37,1.97,21.07,-1.25,0.47,-1.20,-0.06,954.61
8.671,0.00,-0.54,-0.37,-3.64,-3.68,1.85,0.47,-1.20,-0.06,954.61
8.681,0.00,-0.54,-0.37,-3.64,-3.68,1.85,0.77,0.82,0.38,954.61
8.697,0.00,-0.54,-0.37,-3.64,-3.68,1.85,0.77,0.82,0.38,954.62
8.734,-0.05,0.13,-0.41,-3.64,-3.68,1.85,0.77,0.82,0.38,954.62
8.734,-0.05,0.13,-0.41,-2.95,-10.34,2.31,0.77,0.82,0.38,954.62
8.743,-0.05,0.13,-0.41,-2.95,-10.34,2.31,0.39,0.66,-0.28,954.62
8.764,-0.05,0.13,-0.41,-2.95,-10.34,2.31,0.39,0.66,-0.28,954.62
8.798,-0.10,0.14,-0.21,-2.95,-10.34,2.31,0.39,0.66,-0.28,954.62
8.799,-0.10,0.14,-0.21,-2.29,-10.57,0.30,0.39,0.66,-0.28,954.62
8.807,-0.10,0.14,-0.21,-2.29,-10.57,0.30,-0.08,0.00,-0.26,954.62
8.831,-0.10,0.14,-0.21,-2.29,-10.57,0.30,-0.08,0.00,-0.26,954.65
8.863,-0.11,0.02,-0.09,-2.29,-10.57,0.30,-0.08,0.00,-0.26,954.65
8.865,-0.11,0.02,-0.09,-2.12,-9.36,-1.06,-0.08,0.00,-0.26,954.65
8.88,-0.11,0.02,-0.09,-2.12,-9.36,-1.06,-0.37,0.30,-0.09,954.65
8.898,-0.11,0.02,-0.09,-2.12,-9.36,-1.06,-0.37,0.30,-0.09,954.65
8.924,-0.14,-0.06,-0.06,-2.12,-9.36,-1.06,-0.37,0.30,-0.09,954.65
8.925,-0.14,-0.06,-0.06,-1.78,-8.41,-1.67,-0.37,0.30,-0.09,954.65
8.933,-0.14,-0.06,-0.06,-1.78,-8.41,-1.67,-0.51,0.14,0.06,954.65
8.964,-0.14,-0.06,-0.06,-1.78,-8.41,-1.67,-0.51,0.14,0.06,954.71
8.987,-0.14,-0.06,-0.06,-0.77,2.82,-1.38,-0.51,0.14,0.06,954.71
8.988,-0.25,-1.20,-0.13,-0.77,2.82,-1.38,-0.51,0.14,0.06,954.71
8.997,-0.25,-1.20,-0.13,-0.77,2.82,-1.38,-0.41,0.43,0.12,954.71
9.031,-0.25,-1.20,-0.13,-0.77,2.82,-1.38,-0.41,0.43,0.12,954.71
9.05,-0.51,-3.73,0.01,-0.77,2.82,-1.38,-0.41,0.43,0.12,954.71
9.051,-0.51,-3.73,0.01,1.77,27.66,-2.80,-0.41,0.43,0.12,954.71
9.061,-0.51,-3.73,0.01,1.77,27.66,-2.80,-0.22,-0.58,0.02,954.71
9.098,-0.51,-3.73,0.01,1.77,27.66,-2.80,-0.22,-0.58,0.02,954.71
9.114,-0.36,-2.59,-0.16,1.77,27.66,-2.80,-0.22,-0.58,0.02,954.71
9.115,-0.36,-2.59,-0.16,0.25,16.37,-0.64,-0.22,-0.58,0.02,954.71
9.128,-0.36,-2.59,-0.16,0.25,16.37,-0.64,0.73,-0.91,-0.31,954.71
9.165,-0.36,-2.59,-0.16,0.25,16.37,-0.64,0.73,-0.91,-0.31,954.78
9.177,0.05,-0.44,-0.31,0.25,16.37,-0.64,0.73,-0.91,-0.31,954.78
9.178,0.05,-0.44,-0.31,-3.80,-4.79,1.20,0.73,-0.91,-0.31,954.78
9.187,0.05,-0.44,-0.31,-3.80,-4.79,1.20,0.81,0.83,0.26,954.78
9.232,0.05,-0.44,-0.31,-3.80,-4.79,1.20,0.81,0.83,0.26,954.78
9.242,0.04,0.18,-0.33,-3.80,-4.79,1.20,0.81,0.83,0.26,954.78
9.243,0.04,0.18,-0.33,-3.76,-10.88,1.37,0.81,0.83,0.26,954.78
9.25,0.04,0.18,-0.33,-3.76,-10.88,1.37,0.22,0.64,0.24,954.78
9.298,0.04,0.18,-0.33,-3.76,-10.88,1.37,0.22,0.64,0.24,954.74
9.304,-0.06,0.11,-0.18,-3.76,-10.88,1.37,0.22,0.64,0.24,954.74
9.304,-0.06,0.11,-0.18,-2.69,-10.22,-0.12,0.22,0.64,0.24,954.74
9.314,-0.06,0.11,-0.18,-2.69,-10.22,-0.12,-0.14,-0.25,-0.34,954.74
9.365,-0.06,0.11,-0.18,-2.69,-10.22,-0.12,-0.14,-0.25,-0.34,954.74
9.367,-0.15,-0.03,-0.06,-2.69,-10.22,-0.12,-0.14,-0.25,-0.34,954.74
9.368,-0.15,-0.03,-0.06,-1.56,-8.91,-1.38,-0.14,-0.25,-0.34,954.74
9.378,-0.15,-0.03,-0.06,-1.56,-8.91,-1.38,-0.26,-0.01,-0.44,954.74
9.432,-0.21,-0.14,-0.08,-1.56,-8.91,-1.38,-0.26,-0.01,-0.44,954.74
9.433,-0.21,-0.14,-0.08,-0.93,-7.78,-1.36,-0.26,-0.01,-0.44,954.74
9.435,-0.21,-0.14,-0.08,-0.93,-7.78,-1.36,-0.26,-0.01,-0.44,954.72
9.44,-0.21,-0.14,-0.08,-0.93,-7.78,-1.36,-0.25,0.21,-0.06,954.72
9.495,-0.37,-1.80,-0.07,-0.93,-7.78,-1.36,-0.25,0.21,-0.06,954.72
9.496,-0.37,-1.80,-0.07,0.68,8.55,-1.74,-0.25,0.21,-0.06,954.72
9.498,-0.37,-1.80,-0.07,0.68,8.55,-1.74,-0.25,0.21,-0.06,954.72
9.515,-0.37,-1.80,-0.07,0.68,8.55,-1.74,-0.19,0.76,0.23,954.72
9.558,-0.37,-1.80,-0.07,3.02,29.76,-2.01,-0.19,0.76,0.23,954.72
9.56,-0.64,-3.95,-0.07,3.02,29.76,-2.01,-0.19,0.76,0.23,954.72
9.564,-0.64,-3.95,-0.07,3.02,29.76,-2.01,-0.19,0.76,0.23,954.76
9.567,-0.64,-3.95,-0.07,3.02,29.76,-2.01,-0.54,-1.22,0.28,954.76
9.622,-0.22,-1.96,-0.20,3.02,29.76,-2.01,-0.54,-1.22,0.28,954.76
9.623,-0.22,-1.96,-0.20,-1.30,10.20,0.07,-0.54,-1.22,0.28,954.76
9.63,-0.22,-1.96,-0.20,-1.30,10.20,0.07,0.71,-1.35,-0.14,954.76
9.631,-0.22,-1.96,-0.20,-1.30,10.20,0.07,0.71,-1.35,-0.14,954.76
9.685,0.01,0.07,-0.30,-1.30,10.20,0.07,0.71,-1.35,-0.14,954.76
9.687,0.01,0.07,-0.30,-3.61,-9.71,1.12,0.71,-1.35,-0.14,954.76
9.694,0.01,0.07,-0.30,-3.61,-9.71,1.12,0.30,0.70,0.25,954.76
9.697,0.01,0.07,-0.30,-3.61,-9.71,1.12,0.30,0.70,0.25,954.76
9.748,-0.05,0.03,-0.20,-3.61,-9.71,1.12,0.30,0.70,0.25,954.76
9.75,-0.05,0.03,-0.20,-2.93,-9.35,0.07,0.30,0.70,0.25,954.76
9.757,-0.05,0.03,-0.20,-2.93,-9.35,0.07,0.03,0.06,-0.11,954.76
9.765,-0.05,0.03,-0.20,-2.93,-9.35,0.07,0.03,0.06,-0.11,954.72
9.812,-0.02,0.05,-0.06,-2.93,-9.35,0.07,0.03,0.06,-0.11,954.72
9.814,-0.02,0.05,-0.06,-3.07,-9.60,-1.42,0.03,0.06,-0.11,954.72
9.824,-0.02,0.05,-0.06,-3.07,-9.60,-1.42,-0.07,0.62,-0.18,954.72
9.831,-0.02,0.05,-0.06,-3.07,-9.60,-1.42,-0.07,0.62,-0.18,954.72
9.874,-0.14,0.08,-0.11,-3.07,-9.60,-1.42,-0.07,0.62,-0.18,954.72
9.875,-0.14,0.08,-0.11,-1.81,-9.90,-1.08,-0.07,0.62,-0.18,954.72
9.883,-0.14,0.08,-0.11,-1.81,-9.90,-1.08,-0.10,0.53,-0.00,954.72
9.898,-0.14,0.08,-0.11,-1.81,-9.90,-1.08,-0.10,0.53,-0.00,954.71
9.938,-0.12,-0.14,-0.09,-1.81,-9.90,-1.08,-0.10,0.53,-0.00,954.71
9.94,-0.12,-0.14,-0.09,-2.07,-7.65,-1.54,-0.10,0.53,-0.00,954.71
9.947,-0.12,-0.14,-0.09,-2.07,-7.65,-1.54,-0.30,0.14,0.15,954.71
9.965,-0.12,-0.14,-0.09,-2.07,-7.65,-1.54,-0.30,0.14,0.15,954.71
10.002,-0.42,-2.44,-0.05,-2.07,-7.65,-1.54,-0.30,0.14,0.15,954.71
10.004,-0.42,-2.44,-0.05,0.85,15.02,-2.15,-0.30,0.14,0.15,954.71
10.011,-0.42,-2.44,-0.05,0.85,15.02,-2.15,-0.44,0.43,0.06,954.71
10.032,-0.42,-2.44,-0.05,0.85,15.02,-2.15,-0.44,0.43,0.06,954.74
10.069,-0.69,-3.90,-0.14,0.85,15.02,-2.15,-0.44,0.43,0.06,954.74
10.071,-0.69,-3.90,-0.14,3.39,29.38,-1.33,-0.44,0.43,0.06,954.74
10.077,-0.69,-3.90,-0.14,3.39,29.38,-1.33,-0.20,-1.72,-0.16,954.74
10.098,-0.69,-3.90,-0.14,3.39,29.38,-1.33,-0.20,-1.72,-0.16,954.74
10.128,-0.12,-1.43,-0.36,3.39,29.38,-1.33,-0.20,-1.72,-0.16,954.74
10.129,-0.12,-1.43,-0.36,-2.38,4.99,1.56,-0.20,-1.72,-0.16,954.74
10.137,-0.12,-1.43,-0.36,-2.38,4.99,1.56,0.69,-0.75,-0.04,954.74
10.165,-0.12,-1.43,-0.36,-2.38,4.99,1.56,0.69,-0.75,-0.04,954.74
10.191,-0.12,-1.43,-0.36,-3.12,-9.82,0.14,0.69,-0.75,-0.04,954.74
10.193,-0.04,0.08,-0.22,-3.12,-9.82,0.14,0.69,-0.75,-0.04,954.74
10.2,-0.04,0.08,-0.22,-3.12,-9.82,0.14,0.11,0.61,-0.03,954.74
10.231,-0.04,0.08,-0.22,-3.12,-9.82,0.14,0.11,0.61,-0.03,954.67
10.254,-0.15,0.10,-0.20,-3.12,-9.82,0.14,0.11,0.61,-0.03,954.67
10.255,-0.15,0.10,-0.20,-1.88,-9.98,-0.17,0.11,0.61,-0.03,954.67
10.264,-0.15,0.10,-0.20,-1.88,-9.98,-0.17,-0.09,0.33,-0.05,954.67
10.298,-0.15,0.10,-0.20,-1.88,-9.98,-0.17,-0.09,0.33,-0.05,954.67
10.318,-0.10,0.04,-0.02,-1.88,-9.98,-0.17,-0.09,0.33,-0.05,954.67
10.319,-0.10,0.04,-0.02,-2.41,-9.38,-2.10,-0.09,0.33,-0.05,954.67
10.327,-0.10,0.04,-0.02,-2.41,-9.38,-2.10,-0.21,-0.18,-0.10,954.67
10.365,-0.10,0.04,-0.02,-2.41,-9.38,-2.10,-0.21,-0.18,-0.10,954.67
10.38,-0.09,0.00,0.03,-2.41,-9.38,-2.10,-0.21,-0.18,-0.10,954.67
10.381,-0.09,0.00,0.03,-2.47,-9.00,-2.66,-0.21,-0.18,-0.10,954.67
10.39,-0.09,0.00,0.03,-2.47,-9.00,-2.66,-0.13,0.31,-0.05,954.67
10.431,-0.09,0.00,0.03,-2.47,-9.00,-2.66,-0.13,0.31,-0.05,954.67
10.443,-0.22,-0.33,-0.02,-2.47,-9.00,-2.66,-0.13,0.31,-0.05,954.67
10.444,-0.22,-0.33,-0.02,-1.12,-5.65,-2.38,-0.13,0.31,-0.05,954.67
10.453,-0.22,-0.33,-0.02,-1.12,-5.65,-2.38,-0.10,0.74,0.19,954.67
10.498,-0.22,-0.33,-0.02,-1.12,-5.65,-2.38,-0.10,0.74,0.19,954.69
10.507,-0.52,-2.58,0.03,-1.12,-5.65,-2.38,-0.10,0.74,0.19,954.69
10.507,-0.52,-2.58,0.03,1.81,16.43,-3.05,-0.10,0.74,0.19,954.69
10.517,-0.52,-2.58,0.03,1.81,16.43,-3.05,-0.10,0.73,0.34,954.69
10.565,-0.52,-2.58,0.03,1.81,16.43,-3.05,-0.10,0.73,0.34,954.69
10.571,-0.37,-3.67,-0.01,1.81,16.43,-3.05,-0.10,0.73,0.34,954.69
10.572,-0.37,-3.67,-0.01,0.00,27.21,-2.65,-0.10,0.73,0.34,954.69
10.585,-0.37,-3.67,-0.01,0.00,27.21,-2.65,0.06,-0.89,0.20,954.69
10.632,-0.37,-3.67,-0.01,0.00,27.21,-2.65,0.06,-0.89,0.20,954.69
10.634,-0.24,-1.48,-0.41,0.00,27.21,-2.65,0.06,-0.89,0.20,954.69
10.635,-0.24,-1.48,-0.41,-1.16,5.52,1.90,0.06,-0.89,0.20,954.69
10.644,-0.24,-1.48,-0.41,-1.16,5.52,1.90,0.92,-0.08,-0.19,954.69
10.697,0.08,0.08,-0.29,-1.16,5.52,1.90,0.92,-0.08,-0.19,954.69
10.698,0.08,0.08,-0.29,-4.43,-9.73,1.03,0.92,-0.08,-0.19,954.69
10.699,0.08,0.08,-0.29,-4.43,-9.73,1.03,0.92,-0.08,-0.19,954.66
10.707,0.08,0.08,-0.29,-4.43,-9.73,1.03,0.49,-0.22,0.27,954.66
10.767,0.05,0.14,-0.24,-4.43,-9.73,1.03,0.49,-0.22,0.27,954.66
10.769,0.05,0.14,-0.24,-4.17,-10.38,0.44,0.49,-0.22,0.27,954.66
10.77,0.05,0.14,-0.24,-4.17,-10.38,0.44,0.49,-0.22,0.27,954.66
10.771,0.05,0.14,-0.24,-4.17,-10.38,0.44,0.03,0.65,0.06,954.66
10.824,-0.09,0.02,-0.09,-4.17,-10.38,0.44,0.03,0.65,0.06,954.66
10.825,-0.09,0.02,-0.09,-2.71,-9.16,-1.21,0.03,0.65,0.06,954.66
10.831,-0.09,0.02,-0.09,-2.71,-9.16,-1.21,0.03,0.65,0.06,954.64
10.833,-0.09,0.02,-0.09,-2.71,-9.16,-1.21,-0.43,-0.08,-0.17,954.64
10.887,-0.13,-0.10,-0.04,-2.71,-9.16,-1.21,-0.43,-0.08,-0.17,954.64
10.888,-0.13,-0.10,-0.04,-2.27,-7.94,-1.99,-0.43,-0.08,-0.17,954.64
10.9,-0.13,-0.10,-0.04,-2.27,-7.94,-1.99,-0.49,-0.04,-0.18,954.64
10.901,-0.13,-0.10,-0.04,-2.27,-7.94,-1.99,-0.49,-0.04,-0.18,954.64
10.951,-0.34,-1.01,-0.13,-2.27,-7.94,-1.99,-0.49,-0.04,-0.18,954.64
10.952,-0.34,-1.01,-0.13,-0.04,1.01,-1.42,-0.49,-0.04,-0.18,954.64
10.96,-0.34,-1.01,-0.13,-0.04,1.01,-1.42,-0.33,1.03,-0.02,954.64
10.965,-0.34,-1.01,-0.13,-0.04,1.01,-1.42,-0.33,1.03,-0.02,954.66
11.014,-0.60,-2.60,-0.08,-0.04,1.01,-1.42,-0.33,1.03,-0.02,954.66
11.015,-0.60,-2.60,-0.08,2.22,16.83,-2.09,-0.33,1.03,-0.02,954.66
11.023,-0.60,-2.60,-0.08,2.22,16.83,-2.09,-0.50,-1.41,0.71,954.66
11.032,-0.60,-2.60,-0.08,2.22,16.83,-2.09,-0.50,-1.41,0.71,954.66
11.077,-0.35,-3.26,-0.02,2.22,16.83,-2.09,-0.50,-1.41,0.71,954.66
11.078,-0.35,-3.26,-0.02,-0.82,23.44,-2.27,-0.50,-1.41,0.71,954.66
11.086,-0.35,-3.26,-0.02,-0.82,23.44,-2.27,0.00,-1.63,-0.10,954.66
11.098,-0.35,-3.26,-0.02,-0.82,23.44,-2.27,0.00,-1.63,-0.10,954.67
11.141,-0.41,-0.90,-0.35,-0.82,23.44,-2.27,0.00,-1.63,-0.10,954.67
11.142,-0.41,-0.90,-0.35,0.09,-0.02,1.39,0.00,-1.63,-0.10,954.67
11.15,-0.41,-0.90,-0.35,0.09,-0.02,1.39,0.55,-0.21,-0.54,954.67
11.165,-0.41,-0.90,-0.35,0.09,-0.02,1.39,0.55,-0.21,-0.54,954.67
11.204,-0.13,0.11,-0.28,0.09,-0.02,1.39,0.55,-0.21,-0.54,954.67
11.207,-0.13,0.11,-0.28,-2.65,-9.90,0.70,0.55,-0.21,-0.54,954.67
11.214,-0.13,0.11,-0.28,-2.65,-9.90,0.70,0.10,0.49,0.14,954.67
11.232,-0.13,0.11,-0.28,-2.65,-9.90,0.70,0.10,0.49,0.14,954.67
11.268,-0.04,0.19,-0.15,-2.65,-9.90,0.70,0.10,0.49,0.14,954.67
11.269,-0.04,0.19,-0.15,-3.43,-10.58,-1.00,0.10,0.49,0.14,954.67
11.277,-0.04,0.19,-0.15,-3.43,-10.58,-1.00,-0.23,1.59,0.14,954.67
11.299,-0.04,0.19,-0.15,-3.43,-10.58,-1.00,-0.23,1.59,0.14,954.66
11.331,-0.19,0.09,-0.12,-3.43,-10.58,-1.00,-0.23,1.59,0.14,954.66
11.331,-0.19,0.09,-0.12,-1.78,-9.56,-1.82,-0.23,1.59,0.14,954.66
11.34,-0.19,0.09,-0.12,-1.78,-9.56,-1.82,-0.35,0.93,-0.02,954.66
11.365,-0.19,0.09,-0.12,-1.78,-9.56,-1.82,-0.35,0.93,-0.02,954.66
11.394,-0.17,-0.01,-0.03,-1.78,-9.56,-1.82,-0.35,0.93,-0.02,954.66
11.394,-0.17,-0.01,-0.03,-1.97,-8.45,-2.92,-0.35,0.93,-0.02,954.66
11.403,-0.17,-0.01,-0.03,-1.97,-8.45,-2.92,-0.38,0.11,0.02,954.66
11.431,-0.17,-0.01,-0.03,-1.97,-8.45,-2.92,-0.38,0.11,0.02,954.67
11.457,-0.25,-1.00,-0.10,-1.97,-8.45,-2.92,-0.38,0.11,0.02,954.67
11.458,-0.25,-1.00,-0.10,-1.17,1.29,-2.50,-0.38,0.11,0.02,954.67
11.467,-0.25,-1.00,-0.10,-1.17,1.29,-2.50,-0.35,0.50,0.15,954.67
11.499,-0.25,-1.00,-0.10,-1.17,1.29,-2.50,-0.35,0.50,0.15,954.67
11.52,-0.50,-3.49,-0.06,-1.17,1.29,-2.50,-0.35,0.50,0.15,954.67
11.521,-0.50,-3.49,-0.06,1.24,25.84,-3.03,-0.35,0.50,0.15,954.67
11.53,-0.50,-3.49,-0.06,1.24,25.84,-3.03,-0.20,-0.25,0.07,954.67
11.565,-0.50,-3.49,-0.06,1.24,25.84,-3.03,-0.20,-0.25,0.07,954.72
11.584,-0.44,-2.99,-0.34,1.24,25.84,-3.03,-0.20,-0.25,0.07,954.72
11.584,-0.44,-2.99,-0.34,0.56,20.73,0.19,-0.20,-0.25,0.07,954.72
11.593,-0.44,-2.99,-0.34,0.56,20.73,0.19,0.87,-0.79,-0.23,954.72
11.631,-0.44,-2.99,-0.34,0.56,20.73,0.19,0.87,-0.79,-0.23,954.72
11.647,-0.44,-2.99,-0.34,-3.28,-3.40,1.29,0.87,-0.79,-0.23,954.72
11.648,-0.06,-0.54,-0.40,-3.28,-3.40,1.29,0.87,-0.79,-0.23,954.72
11.656,-0.06,-0.54,-0.40,-3.28,-3.40,1.29,0.80,-0.01,0.33,954.72
11.698,-0.06,-0.54,-0.40,-3.28,-3.40,1.29,0.80,-0.01,0.33,954.72
11.71,0.05,0.25,-0.33,-3.28,-3.40,1.29,0.80,-0.01,0.33,954.72
11.712,0.05,0.25,-0.33,-4.51,-11.10,0.80,0.80,-0.01,0.33,954.72
11.72,0.05,0.25,-0.33,-4.51,-11.10,0.80,0.27,0.21,0.13,954.72
11.765,0.05,0.25,-0.33,-4.51,-11.10,0.80,0.27,0.21,0.13,954.66
11.773,-0.16,0.16,-0.14,-4.51,-11.10,0.80,0.27,0.21,0.13,954.66
11.774,-0.16,0.16,-0.14,-2.24,-10.30,-1.18,0.27,0.21,0.13,954.66
11.785,-0.16,0.16,-0.14,-2.24,-10.30,-1.18,-0.08,0.03,-0.52,954.66
11.832,-0.16,0.16,-0.14,-2.24,-10.30,-1.18,-0.08,0.03,-0.52,954.66
11.837,-0.18,-0.04,-0.10,-2.24,-10.30,-1.18,-0.08,0.03,-0.52,954.66
11.838,-0.18,-0.04,-0.10,-1.72,-8.44,-1.73,-0.08,0.03,-0.52,954.66
11.847,-0.18,-0.04,-0.10,-1.72,-8.44,-1.73,-0.21,0.19,-0.44,954.66
11.903,-0.18,-0.04,-0.10,-1.72,-8.44,-1.73,-0.21,0.19,-0.44,954.65
11.905,-0.18,-0.08,-0.08,-1.72,-8.44,-1.73,-0.21,0.19,-0.44,954.65
11.905,-0.18,-0.08,-0.08,-1.68,-8.04,-2.06,-0.21,0.19,-0.44,954.65
11.93,-0.18,-0.08,-0.08,-1.68,-8.04,-2.06,-0.28,0.04,0.09,954.65
11.965,-0.18,-0.08,-0.08,-1.13,1.60,-1.81,-0.28,0.04,0.09,954.65
11.966,-0.25,-1.05,-0.12,-1.13,1.60,-1.81,-0.28,0.04,0.09,954.65
11.968,-0.25,-1.05,-0.12,-1.13,1.60,-1.81,-0.28,0.04,0.09,954.65
11.973,-0.25,-1.05,-0.12,-1.13,1.60,-1.81,-0.21,0.17,0.24,954.65
12.028,-0.51,-3.67,0.06,-1.13,1.60,-1.81,-0.21,0.17,0.24,954.65
12.03,-0.51,-3.67,0.06,1.30,27.37,-3.62,-0.21,0.17,0.24,954.65
12.032,-0.51,-3.67,0.06,1.30,27.37,-3.62,-0.21,0.17,0.24,954.66
12.036,-0.51,-3.67,0.06,1.30,27.37,-3.62,-0.24,-0.42,-0.05,954.66
12.091,-0.51,-3.67,0.06,2.31,18.98,-1.30,-0.24,-0.42,-0.05,954.66
12.093,-0.59,-2.84,-0.14,2.31,18.98,-1.30,-0.24,-0.42,-0.05,954.66
12.108,-0.59,-2.84,-0.14,2.31,18.98,-1.30,-0.24,-0.42,-0.05,954.66
12.11,-0.59,-2.84,-0.14,2.31,18.98,-1.30,0.55,-1.48,-0.88,954.66
12.199,-0.02,-0.41,-0.35,2.31,18.98,-1.30,0.55,-1.48,-0.88,954.66
12.2,-0.02,-0.41,-0.35,-3.43,-4.94,1.38,0.55,-1.48,-0.88,954.66
12.202,-0.02,-0.41,-0.35,-3.43,-4.94,1.38,0.73,0.05,0.37,954.66
12.202,-0.02,-0.41,-0.35,-3.43,-4.94,1.38,0.73,0.05,0.37,954.62
12.217,-0.02,0.07,-0.29,-3.43,-4.94,1.38,0.73,0.05,0.37,954.62
12.218,-0.02,0.07,-0.29,-3.46,-9.62,0.66,0.73,0.05,0.37,954.62
12.235,-0.02,0.07,-0.29,-3.46,-9.62,0.66,0.22,1.29,0.31,954.62
12.236,-0.02,0.07,-0.29,-3.46,-9.62,0.66,0.22,1.29,0.31,954.62
12.28,-0.10,0.08,-0.28,-3.46,-9.62,0.66,0.22,1.29,0.31,954.62
12.281,-0.10,0.08,-0.28,-2.58,-9.69,0.37,0.22,1.29,0.31,954.62
12.289,-0.10,0.08,-0.28,-2.58,-9.69,0.37,-0.08,0.62,-0.03,954.62
12.298,-0.10,0.08,-0.28,-2.58,-9.69,0.37,-0.08,0.62,-0.03,954.62
12.344,-0.14,0.05,-0.09,-2.58,-9.69,0.37,-0.08,0.62,-0.03,954.62
12.346,-0.14,0.05,-0.09,-2.01,-9.31,-1.79,-0.08,0.62,-0.03,954.62
12.353,-0.14,0.05,-0.09,-2.01,-9.31,-1.79,-0.44,0.08,-0.32,954.62
12.365,-0.14,0.05,-0.09,-2.01,-9.31,-1.79,-0.44,0.08,-0.32,954.61
12.408,-0.14,-0.03,-0.05,-2.01,-9.31,-1.79,-0.44,0.08,-0.32,954.61
12.409,-0.14,-0.03,-0.05,-1.98,-8.52,-2.49,-0.44,0.08,-0.32,954.61
12.417,-0.14,-0.03,-0.05,-1.98,-8.52,-2.49,-0.56,0.10,-0.04,954.61
12.432,-0.14,-0.03,-0.05,-1.98,-8.52,-2.49,-0.56,0.10,-0.04,954.61
12.47,-0.30,-1.23,-0.10,-1.98,-8.52,-2.49,-0.56,0.10,-0.04,954.61
12.471,-0.30,-1.23,-0.10,-0.44,3.35,-2.25,-0.56,0.10,-0.04,954.61
12.492,-0.30,-1.23,-0.10,-0.44,3.35,-2.25,-0.26,0.38,0.13,954.61
12.498,-0.30,-1.23,-0.10,-0.44,3.35,-2.25,-0.26,0.38,0.13,954.64
12.534,-0.51,-3.72,-0.00,-0.44,3.35,-2.25,-0.26,0.38,0.13,954.64
12.534,-0.51,-3.72,-0.00,1.60,27.90,-3.38,-0.26,0.38,0.13,954.64
12.543,-0.51,-3.72,-0.00,1.60,27.90,-3.38,-0.11,0.38,0.18,954.64
12.565,-0.51,-3.72,-0.00,1.60,27.90,-3.38,-0.11,0.38,0.18,954.64
12.605,-0.55,-2.69,-0.29,1.60,27.90,-3.38,-0.11,0.38,0.18,954.64
12.607,-0.55,-2.69,-0.29,2.14,17.59,-0.21,-0.11,0.38,0.18,954.64
12.608,-0.55,-2.69,-0.29,2.14,17.59,-0.21,0.79,-0.41,-0.43,954.64
12.634,-0.55,-2.69,-0.29,2.14,17.59,-0.21,0.79,-0.41,-0.43,954.62
12.661,0.06,-0.39,-0.27,2.14,17.59,-0.21,0.79,-0.41,-0.43,954.62
12.662,0.06,-0.39,-0.27,-4.02,-4.99,-0.03,0.79,-0.41,-0.43,954.62
12.67,0.06,-0.39,-0.27,-4.02,-4.99,-0.03,0.60,0.35,0.67,954.62
12.699,0.06,-0.39,-0.27,-4.02,-4.99,-0.03,0.60,0.35,0.67,954.62
12.724,0.08,0.15,-0.17,-4.02,-4.99,-0.03,0.60,0.35,0.67,954.62
12.725,0.08,0.15,-0.17,-4.43,-10.18,-1.08,0.60,0.35,0.67,954.62
12.739,0.08,0.15,-0.17,-4.43,-10.18,-1.08,0.06,0.62,0.47,954.62
12.766,0.08,0.15,-0.17,-4.43,-10.18,-1.08,0.06,0.62,0.47,954.62
12.787,-0.05,0.14,-0.12,-4.43,-10.18,-1.08,0.06,0.62,0.47,954.62
12.788,-0.05,0.14,-0.12,-3.07,-10.10,-1.70,0.06,0.62,0.47,954.62
12.796,-0.05,0.14,-0.12,-3.07,-10.10,-1.70,-0.13,0.23,-0.17,954.62
12.832,-0.05,0.14,-0.12,-3.07,-10.10,-1.70,-0.13,0.23,-0.17,954.62
12.851,-0.17,0.02,-0.09,-3.07,-10.10,-1.70,-0.13,0.23,-0.17,954.62
12.852,-0.17,0.02,-0.09,-1.78,-8.94,-2.18,-0.13,0.23,-0.17,954.62
12.86,-0.17,0.02,-0.09,-1.78,-8.94,-2.18,-0.25,-0.07,-0.27,954.62
12.899,-0.17,0.02,-0.09,-1.78,-8.94,-2.18,-0.25,-0.07,-0.27,954.62
12.914,-0.15,-0.02,-0.05,-1.78,-8.94,-2.18,-0.25,-0.07,-0.27,954.62
12.915,-0.15,-0.02,-0.05,-2.02,-8.43,-2.63,-0.25,-0.07,-0.27,954.62
12.923,-0.15,-0.02,-0.05,-2.02,-8.43,-2.63,-0.29,-0.22,0.09,954.62
12.966,-0.15,-0.02,-0.05,-2.02,-8.43,-2.63,-0.29,-0.22,0.09,954.63
12.977,-0.29,-1.23,-0.14,-2.02,-8.43,-2.63,-0.29,-0.22,0.09,954.63
12.978,-0.29,-1.23,-0.14,-0.61,3.50,-1.94,-0.29,-0.22,0.09,954.63
12.986,-0.29,-1.23,-0.14,-0.61,3.50,-1.94,-0.08,0.71,0.16,954.63
13.033,-0.29,-1.23,-0.14,-0.61,3.50,-1.94,-0.08,0.71,0.16,954.63
13.04,-0.69,-3.92,-0.31,-0.61,3.50,-1.94,-0.08,0.71,0.16,954.63
13.041,-0.69,-3.92,-0.31,3.27,29.91,-0.50,-0.08,0.71,0.16,954.63
13.05,-0.69,-3.92,-0.31,3.27,29.91,-0.50,-0.37,-0.10,0.25,954.63
13.103,-0.69,-3.92,-0.31,3.27,29.91,-0.50,-0.37,-0.10,0.25,954.65
13.103,-0.36,-2.48,-0.39,3.27,29.91,-0.50,-0.37,-0.10,0.25,954.65
13.104,-0.36,-2.48,-0.39,-0.35,15.84,0.74,-0.37,-0.10,0.25,954.65
13.122,-0.36,-2.48,-0.39,-0.35,15.84,0.74,0.38,-1.61,0.03,954.65
13.165,-0.36,-2.48,-0.39,-0.35,15.84,0.74,0.38,-1.61,0.03,954.65
13.166,0.02,-0.31,-0.13,-0.35,15.84,0.74,0.38,-1.61,0.03,954.65
13.167,0.02,-0.31,-0.13,-4.03,-5.53,-1.81,0.38,-1.61,0.03,954.65
13.176,0.02,-0.31,-0.13,-4.03,-5.53,-1.81,0.27,1.18,0.16,954.65
13.231,-0.20,0.08,-0.09,-4.03,-5.53,-1.81,0.27,1.18,0.16,954.65
13.232,-0.20,0.08,-0.09,-1.73,-9.30,-2.44,0.27,1.18,0.16,954.65
13.233,-0.20,0.08,-0.09,-1.73,-9.30,-2.44,0.27,1.18,0.16,954.65
13.239,-0.20,0.08,-0.09,-1.73,-9.30,-2.44,-0.05,0.64,-0.01,954.65
13.293,0.04,0.09,-0.07,-1.73,-9.30,-2.44,-0.05,0.64,-0.01,954.65
13.294,0.04,0.09,-0.07,-3.97,-9.37,-2.72,-0.05,0.64,-0.01,954.65
13.298,0.04,0.09,-0.07,-3.97,-9.37,-2.72,-0.05,0.64,-0.01,954.63
13.303,0.04,0.09,-0.07,-3.97,-9.37,-2.72,-0.16,0.01,-0.20,954.63
13.357,-0.11,-0.01,0.00,-3.97,-9.37,-2.72,-0.16,0.01,-0.20,954.63
13.359,-0.11,-0.01,0.00,-2.46,-8.43,-3.51,-0.16,0.01,-0.20,954.63
13.367,-0.11,-0.01,0.00,-2.46,-8.43,-3.51,-0.16,0.01,-0.20,954.63
13.368,-0.11,-0.01,0.00,-2.46,-8.43,-3.51,-0.33,-0.21,-0.17,954.63
13.42,-0.13,-0.07,0.06,-2.46,-8.43,-3.51,-0.33,-0.21,-0.17,954.63
13.422,-0.13,-0.07,0.06,-2.36,-7.67,-4.24,-0.33,-0.21,-0.17,954.63
13.432,-0.13,-0.07,0.06,-2.36,-7.67,-4.24,-0.32,-0.20,0.04,954.63
13.433,-0.13,-0.07,0.06,-2.36,-7.67,-4.24,-0.32,-0.20,0.04,954.66
13.484,-0.22,-1.47,-0.11,-2.36,-7.67,-4.24,-0.32,-0.20,0.04,954.66
13.485,-0.22,-1.47,-0.11,-1.34,6.01,-2.60,-0.32,-0.20,0.04,954.66
13.493,-0.22,-1.47,-0.11,-1.34,6.01,-2.60,0.26,0.67,-0.08,954.66
13.5,-0.22,-1.47,-0.11,-1.34,6.01,-2.60,0.26,0.67,-0.08,954.66
13.547,-0.46,-3.66,-0.30,-1.34,6.01,-2.60,0.26,0.67,-0.08,954.66
13.548,-0.46,-3.66,-0.30,1.22,27.29,-0.72,0.26,0.67,-0.08,954.66
13.556,-0.46,-3.66,-0.30,1.22,27.29,-0.72,-0.03,-0.07,-0.39,954.66
13.565,-0.46,-3.66,-0.30,1.22,27.29,-0.72,-0.03,-0.07,-0.39,954.63
13.61,-0.31,-2.42,-0.46,1.22,27.29,-0.72,-0.03,-0.07,-0.39,954.63
13.612,-0.31,-2.42,-0.46,-0.23,14.97,1.28,-0.03,-0.07,-0.39,954.63
13.634,-0.31,-2.42,-0.46,-0.23,14.97,1.28,0.35,-1.88,-0.87,954.63
13.635,-0.31,-2.42,-0.46,-0.23,14.97,1.28,0.35,-1.88,-0.87,954.63
13.673,-0.05,-0.33,-0.23,-0.23,14.97,1.28,0.35,-1.88,-0.87,954.63
13.674,-0.05,-0.33,-0.23,-2.62,-5.60,-0.65,0.35,-1.88,-0.87,954.63
13.683,-0.05,-0.33,-0.23,-2.62,-5.60,-0.65,0.35,0.39,-0.12,954.63
13.699,-0.05,-0.33,-0.23,-2.62,-5.60,-0.65,0.35,0.39,-0.12,954.61
13.743,-0.19,0.13,-0.20,-2.62,-5.60,-0.65,0.35,0.39,-0.12,954.61
13.745,-0.19,0.13,-0.20,-1.13,-10.18,-1.10,0.35,0.39,-0.12,954.61
13.746,-0.19,0.13,-0.20,-1.13,-10.18,-1.10,-0.01,0.34,-0.10,954.61
13.77,-0.19,0.13,-0.20,-1.13,-10.18,-1.10,-0.01,0.34,-0.10,954.61
13.8,-0.23,0.11,-0.08,-1.13,-10.18,-1.10,-0.01,0.34,-0.10,954.61
13.801,-0.23,0.11,-0.08,-0.77,-9.92,-2.33,-0.01,0.34,-0.10,954.61
13.809,-0.23,0.11,-0.08,-0.77,-9.92,-2.33,-0.29,-0.56,-0.13,954.61
13.832,-0.23,0.11,-0.08,-0.77,-9.92,-2.33,-0.29,-0.56,-0.13,954.61
13.864,-0.17,-0.02,0.06,-0.77,-9.92,-2.33,-0.29,-0.56,-0.13,954.61
13.866,-0.17,-0.02,0.06,-1.54,-8.55,-3.74,-0.29,-0.56,-0.13,954.61
13.873,-0.17,-0.02,0.06,-1.54,-8.55,-3.74,-0.25,-0.37,0.14,954.61
13.898,-0.17,-0.02,0.06,-1.54,-8.55,-3.74,-0.25,-0.37,0.14,954.64
13.927,-0.15,-0.08,-0.01,-1.54,-8.55,-3.74,-0.25,-0.37,0.14,954.64
13.928,-0.15,-0.08,-0.01,-1.89,-7.92,-3.06,-0.25,-0.37,0.14,954.64
13.936,-0.15,-0.08,-0.01,-1.89,-7.92,-3.06,-0.03,0.02,0.32,954.64
13.965,-0.15,-0.08,-0.01,-1.89,-7.92,-3.06,-0.03,0.02,0.32,954.64
13.99,-0.29,-1.40,-0.14,-1.89,-7.92,-3.06,-0.03,0.02,0.32,954.64
13.991,-0.29,-1.40,-0.14,-0.61,5.02,-1.91,-0.03,0.02,0.32,954.64
14.008,-0.29,-1.40,-0.14,-0.61,5.02,-1.91,0.12,0.93,0.38,954.64
14.046,-0.29,-1.40,-0.14,-0.61,5.02,-1.91,0.12,0.93,0.38,954.64
14.053,-0.42,-4.02,-0.16,-0.61,5.02,-1.91,0.12,0.93,0.38,954.64
14.054,-0.42,-4.02,-0.16,0.50,30.90,-1.72,0.12,0.93,0.38,954.64
14.063,-0.42,-4.02,-0.16,0.50,30.90,-1.72,-0.10,-0.30,0.44,954.64
14.109,-0.42,-4.02,-0.16,0.50,30.90,-1.72,-0.10,-0.30,0.44,954.64
14.142,-0.24,-2.31,-0.35,0.50,30.90,-1.72,-0.10,-0.30,0.44,954.64
14.143,-0.24,-2.31,-0.35,-1.29,13.94,0.53,-0.10,-0.30,0.44,954.64
14.144,-0.24,-2.31,-0.35,-1.29,13.94,0.53,0.62,-0.67,-0.37,954.64
14.166,-0.24,-2.31,-0.35,-1.29,13.94,0.53,0.62,-0.67,-0.37,954.59
14.18,-0.02,-0.28,-0.36,-1.29,13.94,0.53,0.62,-0.67,-0.37,954.59
14.181,-0.02,-0.28,-0.36,-3.42,-6.07,0.87,0.62,-0.67,-0.37,954.59
14.19,-0.02,-0.28,-0.36,-3.42,-6.07,0.87,0.33,0.24,-0.01,954.59
14.242,-0.02,-0.28,-0.36,-3.42,-6.07,0.87,0.33,0.24,-0.01,954.59
14.243,-0.06,0.18,-0.20,-3.42,-6.07,0.87,0.33,0.24,-0.01,954.59
14.244,-0.06,0.18,-0.20,-3.06,-10.51,-0.86,0.33,0.24,-0.01,954.59
14.266,-0.06,0.18,-0.20,-3.06,-10.51,-0.86,-0.31,-0.17,0.11,954.59
14.299,-0.06,0.18,-0.20,-3.06,-10.51,-0.86,-0.31,-0.17,0.11,954.59
14.307,-0.05,0.11,-0.03,-3.06,-10.51,-0.86,-0.31,-0.17,0.11,954.59
14.308,-0.05,0.11,-0.03,-3.30,-9.64,-2.66,-0.31,-0.17,0.11,954.59
14.317,-0.05,0.11,-0.03,-3.30,-9.64,-2.66,-0.56,-0.85,-0.07,954.59
14.374,-0.05,0.11,-0.03,-3.30,-9.64,-2.66,-0.56,-0.85,-0.07,954.62
14.375,-0.13,-0.04,0.08,-3.30,-9.64,-2.66,-0.56,-0.85,-0.07,954.62
14.375,-0.13,-0.04,0.08,-2.52,-8.19,-3.87,-0.56,-0.85,-0.07,954.62
14.38,-0.13,-0.04,0.08,-2.52,-8.19,-3.87,-0.37,-0.17,-0.30,954.62
14.433,-0.13,-0.04,0.08,-2.52,-8.19,-3.87,-0.37,-0.17,-0.30,954.62
14.434,-0.20,-0.08,-0.01,-2.52,-8.19,-3.87,-0.37,-0.17,-0.30,954.62
14.435,-0.20,-0.08,-0.01,-1.71,-7.73,-3.12,-0.37,-0.17,-0.30,954.62
14.443,-0.20,-0.08,-0.01,-1.71,-7.73,-3.12,-0.12,0.39,0.03,954.62
14.497,-0.31,-1.63,-0.10,-1.71,-7.73,-3.12,-0.12,0.39,0.03,954.62
14.498,-0.31,-1.63,-0.10,-0.54,7.40,-2.46,-0.12,0.39,0.03,954.62
14.498,-0.31,-1.63,-0.10,-0.54,7.40,-2.46,-0.12,0.39,0.03,954.64
14.506,-0.31,-1.63,-0.10,-0.54,7.40,-2.46,0.00,1.12,0.21,954.64
14.56,-0.54,-3.95,-0.10,-0.54,7.40,-2.46,0.00,1.12,0.21,954.64
14.562,-0.54,-3.95,-0.10,1.54,30.27,-2.54,0.00,1.12,0.21,954.64
14.568,-0.54,-3.95,-0.10,1.54,30.27,-2.54,0.00,1.12,0.21,954.64
14.57,-0.54,-3.95,-0.10,1.54,30.27,-2.54,-0.16,-0.47,0.24,954.64
14.624,-0.28,-2.17,-0.36,1.54,30.27,-2.54,-0.16,-0.47,0.24,954.64
14.625,-0.28,-2.17,-0.36,-0.94,12.58,0.60,-0.16,-0.47,0.24,954.64
14.632,-0.28,-2.17,-0.36,-0.94,12.58,0.60,-0.16,-0.47,0.24,954.67
14.632,-0.28,-2.17,-0.36,-0.94,12.58,0.60,1.03,-0.27,-0.36,954.67
14.687,0.06,-0.29,-0.20,-0.94,12.58,0.60,1.03,-0.27,-0.36,954.67
14.689,0.06,-0.29,-0.20,-4.00,-6.03,-0.76,1.03,-0.27,-0.36,954.67
14.696,0.06,-0.29,-0.20,-4.00,-6.03,-0.76,0.97,1.99,0.18,954.67
14.699,0.06,-0.29,-0.20,-4.00,-6.03,-0.76,0.97,1.99,0.18,954.67
14.75,0.01,0.14,-0.29,-4.00,-6.03,-0.76,0.97,1.99,0.18,954.67
14.751,0.01,0.14,-0.29,-3.27,-10.33,0.02,0.97,1.99,0.18,954.67
14.759,0.01,0.14,-0.29,-3.27,-10.33,0.02,0.45,1.61,0.04,954.67
14.765,0.01,0.14,-0.29,-3.27,-10.33,0.02,0.45,1.61,0.04,954.67
14.814,-0.10,0.22,-0.21,-3.27,-10.33,0.02,0.45,1.61,0.04,954.67
14.814,-0.10,0.22,-0.21,-2.03,-11.09,-0.86,0.45,1.61,0.04,954.67
14.826,-0.10,0.22,-0.21,-2.03,-11.09,-0.86,-0.14,0.24,-0.16,954.67
14.832,-0.10,0.22,-0.21,-2.03,-11.09,-0.86,-0.14,0.24,-0.16,954.64
14.877,-0.16,0.01,-0.05,-2.03,-11.09,-0.86,-0.14,0.24,-0.16,954.64
14.878,-0.16,0.01,-0.05,-1.39,-8.91,-2.68,-0.14,0.24,-0.16,954.64
14.886,-0.16,0.01,-0.05,-1.39,-8.91,-2.68,-0.46,-0.17,-0.12,954.64
14.899,-0.16,0.01,-0.05,-1.39,-8.91,-2.68,-0.46,-0.17,-0.12,954.64
14.939,-0.23,-0.23,-0.06,-1.39,-8.91,-2.68,-0.46,-0.17,-0.12,954.64
14.94,-0.23,-0.23,-0.06,-0.85,-6.46,-2.80,-0.46,-0.17,-0.12,954.64
14.954,-0.23,-0.23,-0.06,-0.85,-6.46,-2.80,-0.54,-0.24,0.11,954.64
14.965,-0.23,-0.23,-0.06,-0.85,-6.46,-2.80,-0.54,-0.24,0.11,954.64
15.003,-0.30,-1.53,-0.11,-0.85,-6.46,-2.80,-0.54,-0.24,0.11,954.64
15.004,-0.30,-1.53,-0.11,-0.31,6.47,-2.52,-0.54,-0.24,0.11,954.64
15.013,-0.30,-1.53,-0.11,-0.31,6.47,-2.52,-0.40,-0.02,0.30,954.64
15.033,-0.30,-1.53,-0.11,-0.31,6.47,-2.52,-0.40,-0.02,0.30,954.64
15.067,-0.39,-4.17,-0.02,-0.31,6.47,-2.52,-0.40,-0.02,0.30,954.64
15.068,-0.39,-4.17,-0.02,0.27,32.42,-3.45,-0.40,-0.02,0.30,954.64
15.079,-0.39,-4.17,-0.02,0.27,32.42,-3.45,-0.21,-0.87,0.16,954.64
15.11,-0.39,-4.17,-0.02,0.27,32.42,-3.45,-0.21,-0.87,0.16,954.67
15.13,-0.17,-2.22,-0.28,0.27,32.42,-3.45,-0.21,-0.87,0.16,954.67
15.131,-0.17,-2.22,-0.28,-1.81,13.11,-0.39,-0.21,-0.87,0.16,954.67
15.139,-0.17,-2.22,-0.28,-1.81,13.11,-0.39,0.99,-0.19,-0.32,954.67
15.166,-0.17,-2.22,-0.28,-1.81,13.11,-0.39,0.99,-0.19,-0.32,954.67
15.194,0.10,-0.09,-0.43,-1.81,13.11,-0.39,0.99,-0.19,-0.32,954.67
15.195,0.10,-0.09,-0.43,-4.30,-7.97,1.34,0.99,-0.19,-0.32,954.67
15.203,0.10,-0.09,-0.43,-4.30,-7.97,1.34,0.63,0.86,0.03,954.67
15.233,0.10,-0.09,-0.43,-4.30,-7.97,1.34,0.63,0.86,0.03,954.61
15.261,-0.00,0.26,-0.25,-4.30,-7.97,1.34,0.63,0.86,0.03,954.61
15.263,-0.00,0.26,-0.25,-3.14,-11.39,-0.63,0.63,0.86,0.03,954.61
15.266,-0.00,0.26,-0.25,-3.14,-11.39,-0.63,-0.26,0.14,-0.24,954.61
15.3,-0.00,0.26,-0.25,-3.14,-11.39,-0.63,-0.26,0.14,-0.24,954.61
15.32,-0.18,0.09,-0.08,-3.14,-11.39,-0.63,-0.26,0.14,-0.24,954.61
15.321,-0.18,0.09,-0.08,-1.21,-9.68,-2.50,-0.26,0.14,-0.24,954.61
15.33,-0.18,0.09,-0.08,-1.21,-9.68,-2.50,-0.59,-0.30,-0.48,954.61
15.366,-0.18,0.09,-0.08,-1.21,-9.68,-2.50,-0.59,-0.30,-0.48,954.61
15.392,-0.26,-0.05,0.05,-1.21,-9.68,-2.50,-0.59,-0.30,-0.48,954.61
15.393,-0.26,-0.05,0.05,-0.28,-8.28,-4.04,-0.59,-0.30,-0.48,954.61
15.394,-0.26,-0.05,0.05,-0.28,-8.28,-4.04,-0.54,-0.22,-0.40,954.61
15.433,-0.26,-0.05,0.05,-0.28,-8.28,-4.04,-0.54,-0.22,-0.40,954.65
15.447,-0.27,-0.12,0.02,-0.28,-8.28,-4.04,-0.54,-0.22,-0.40,954.65
15.448,-0.27,-0.12,0.02,-0.35,-7.50,-3.87,-0.54,-0.22,-0.40,954.65
15.456,-0.27,-0.12,0.02,-0.35,-7.50,-3.87,-0.31,-0.36,0.18,954.65
15.5,-0.27,-0.12,0.02,-0.35,-7.50,-3.87,-0.31,-0.36,0.18,954.65
15.525,-0.38,-1.74,-0.13,-0.35,-7.50,-3.87,-0.31,-0.36,0.18,954.65
15.527,-0.38,-1.74,-0.13,0.53,8.54,-2.52,-0.31,-0.36,0.18,954.65
15.527,-0.38,-1.74,-0.13,0.53,8.54,-2.52,0.00,0.27,0.49,954.65
15.566,-0.38,-1.74,-0.13,0.53,8.54,-2.52,0.00,0.27,0.49,954.65
15.573,-0.35,-4.03,-0.06,0.53,8.54,-2.52,0.00,0.27,0.49,954.65
15.574,-0.35,-4.03,-0.06,-0.32,31.08,-2.94,0.00,0.27,0.49,954.65
15.582,-0.35,-4.03,-0.06,-0.32,31.08,-2.94,0.19,-1.10,0.78,954.65
15.632,-0.35,-4.03,-0.06,-0.32,31.08,-2.94,0.19,-1.10,0.78,954.65
15.648,-0.15,-2.12,-0.35,-0.32,31.08,-2.94,0.19,-1.10,0.78,954.65
15.65,-0.15,-2.12,-0.35,-2.46,12.17,0.53,0.19,-1.10,0.78,954.65
15.651,-0.15,-2.12,-0.35,-2.46,12.17,0.53,1.07,-0.20,-0.12,954.65
15.7,-0.15,-2.12,-0.35,-2.46,12.17,0.53,1.07,-0.20,-0.12,954.59
15.701,0.01,-0.19,-0.30,-2.46,12.17,0.53,1.07,-0.20,-0.12,954.59
15.701,0.01,-0.19,-0.30,-3.87,-6.86,0.26,1.07,-0.20,-0.12,954.59
15.71,0.01,-0.19,-0.30,-3.87,-6.86,0.26,0.49,0.48,-0.07,954.59
15.763,-0.09,0.18,-0.25,-3.87,-6.86,0.26,0.49,0.48,-0.07,954.59
15.765,-0.09,0.18,-0.25,-2.77,-10.48,-0.21,0.49,0.48,-0.07,954.59
15.765,-0.09,0.18,-0.25,-2.77,-10.48,-0.21,0.49,0.48,-0.07,954.59
15.777,-0.09,0.18,-0.25,-2.77,-10.48,-0.21,-0.12,-0.20,-0.21,954.59
15.827,-0.16,0.07,-0.06,-2.77,-10.48,-0.21,-0.12,-0.20,-0.21,954.59
15.828,-0.16,0.07,-0.06,-1.99,-9.43,-2.22,-0.12,-0.20,-0.21,954.59
15.832,-0.16,0.07,-0.06,-1.99,-9.43,-2.22,-0.12,-0.20,-0.21,954.59
15.838,-0.16,0.07,-0.06,-1.99,-9.43,-2.22,-0.38,-0.22,-0.37,954.59
15.889,-0.23,-0.08,-0.02,-1.99,-9.43,-2.22,-0.38,-0.22,-0.37,954.59
15.89,-0.23,-0.08,-0.02,-1.18,-7.97,-2.89,-0.38,-0.22,-0.37,954.59
15.899,-0.23,-0.08,-0.02,-1.18,-7.97,-2.89,-0.38,-0.22,-0.37,954.60
15.9,-0.23,-0.08,-0.02,-1.18,-7.97,-2.89,-0.37,0.06,-0.13,954.60
15.954,-0.22,-0.13,-0.07,-1.18,-7.97,-2.89,-0.37,0.06,-0.13,954.60
15.955,-0.22,-0.13,-0.07,-1.53,-7.29,-2.46,-0.37,0.06,-0.13,954.60
15.963,-0.22,-0.13,-0.07,-1.53,-7.29,-2.46,-0.23,-0.23,0.44,954.60
15.966,-0.22,-0.13,-0.07,-1.53,-7.29,-2.46,-0.23,-0.23,0.44,954.60
16.017,-0.29,-1.96,-0.30,-1.53,-7.29,-2.46,-0.23,-0.23,0.44,954.60
16.019,-0.29,-1.96,-0.30,-1.28,10.82,-0.20,-0.23,-0.23,0.44,954.60
16.033,-0.29,-1.96,-0.30,-1.28,10.82,-0.20,0.10,-0.09,1.06,954.60
16.034,-0.29,-1.96,-0.30,-1.28,10.82,-0.20,0.10,-0.09,1.06,954.59
16.089,-0.44,-3.71,-0.05,-1.28,10.82,-0.20,0.10,-0.09,1.06,954.59
16.09,-0.44,-3.71,-0.05,-0.84,28.39,-2.26,0.10,-0.09,1.06,954.59
16.091,-0.44,-3.71,-0.05,-0.84,28.39,-2.26,-0.65,-2.44,0.99,954.59
16.099,-0.44,-3.71,-0.05,-0.84,28.39,-2.26,-0.65,-2.44,0.99,954.59
16.143,-0.39,-2.05,-0.06,-0.84,28.39,-2.26,-0.65,-2.44,0.99,954.59
16.144,-0.39,-2.05,-0.06,-1.31,12.01,-1.61,-0.65,-2.44,0.99,954.59
16.153,-0.39,-2.05,-0.06,-1.31,12.01,-1.61,-0.14,-1.63,-1.00,954.59
16.166,-0.39,-2.05,-0.06,-1.31,12.01,-1.61,-0.14,-1.63,-1.00,954.67
16.207,-0.16,-0.09,-0.13,-1.31,12.01,-1.61,-0.14,-1.63,-1.00,954.67
16.208,-0.16,-0.09,-0.13,-3.01,-7.60,-0.93,-0.14,-1.63,-1.00,954.67
16.216,-0.16,-0.09,-0.13,-3.01,-7.60,-0.93,0.23,0.60,-0.86,954.67
16.232,-0.16,-0.09,-0.13,-3.01,-7.60,-0.93,0.23,0.60,-0.86,954.67
16.27,-0.26,0.17,-0.14,-3.01,-7.60,-0.93,0.23,0.60,-0.86,954.67
16.272,-0.26,0.17,-0.14,-1.70,-10.24,-1.09,0.23,0.60,-0.86,954.67
16.279,-0.26,0.17,-0.14,-1.70,-10.24,-1.09,-0.15,0.99,-0.40,954.67
16.299,-0.26,0.17,-0.14,-1.70,-10.24,-1.09,-0.15,0.99,-0.40,954.64
16.333,-0.25,0.05,-0.05,-1.70,-10.24,-1.09,-0.15,0.99,-0.40,954.64
16.335,-0.25,0.05,-0.05,-1.71,-8.92,-2.37,-0.15,0.99,-0.40,954.64
16.345,-0.25,0.05,-0.05,-1.71,-8.92,-2.37,-0.63,-0.24,-0.05,954.64
16.366,-0.25,0.05,-0.05,-1.71,-8.92,-2.37,-0.63,-0.24,-0.05,954.64
16.396,-0.25,-0.02,-0.05,-1.71,-8.92,-2.37,-0.63,-0.24,-0.05,954.64
16.398,-0.25,-0.02,-0.05,-1.94,-8.05,-2.57,-0.63,-0.24,-0.05,954.64
16.406,-0.25,-0.02,-0.05,-1.94,-8.05,-2.57,-0.77,-0.91,0.13,954.64
16.432,-0.25,-0.02,-0.05,-1.94,-8.05,-2.57,-0.77,-0.91,0.13,954.64
16.46,-0.22,-0.07,-0.04,-1.94,-8.05,-2.57,-0.77,-0.91,0.13,954.64
16.461,-0.22,-0.07,-0.04,-2.86,-7.26,-2.51,-0.77,-0.91,0.13,954.64
16.469,-0.22,-0.07,-0.04,-2.86,-7.26,-2.51,-0.88,-2.03,0.45,954.64
16.5,-0.22,-0.07,-0.04,-2.86,-7.26,-2.51,-0.88,-2.03,0.45,954.64
16.524,-0.22,-0.07,-0.04,-1.49,10.86,-4.10,-0.88,-2.03,0.45,954.64
16.525,-0.39,-1.90,0.13,-1.49,10.86,-4.10,-0.88,-2.03,0.45,954.64
16.533,-0.39,-1.90,0.13,-1.49,10.86,-4.10,-0.53,-0.85,0.11,954.64
16.567,-0.39,-1.90,0.13,-1.49,10.86,-4.10,-0.53,-0.85,0.11,954.64
16.591,-0.76,-3.97,-0.01,-1.49,10.86,-4.10,-0.53,-0.85,0.11,954.64
16.592,-0.76,-3.97,-0.01,2.30,30.99,-2.65,-0.53,-0.85,0.11,954.64
16.596,-0.76,-3.97,-0.01,2.30,30.99,-2.65,0.49,0.01,-0.35,954.64
16.633,-0.76,-3.97,-0.01,2.30,30.99,-2.65,0.49,0.01,-0.35,954.64
16.65,-0.24,-1.83,-0.38,2.30,30.99,-2.65,0.49,0.01,-0.35,954.64
16.651,-0.24,-1.83,-0.38,-2.70,9.75,1.55,0.49,0.01,-0.35,954.64
16.66,-0.24,-1.83,-0.38,-2.70,9.75,1.55,1.57,1.22,0.02,954.64
16.701,-0.24,-1.83,-0.38,-2.70,9.75,1.55,1.57,1.22,0.02,954.64
16.721,0.09,0.13,-0.39,-2.70,9.75,1.55,1.57,1.22,0.02,954.64
16.722,0.09,0.13,-0.39,-5.40,-9.65,1.21,1.57,1.22,0.02,954.64
16.723,0.09,0.13,-0.39,-5.40,-9.65,1.21,0.98,3.72,-0.10,954.64
16.767,0.09,0.13,-0.39,-5.40,-9.65,1.21,0.98,3.72,-0.10,954.61
16.778,0.09,0.13,-0.39,-2.72,-9.41,2.51,0.98,3.72,-0.10,954.61
16.779,-0.14,0.10,-0.58,-2.72,-9.41,2.51,0.98,3.72,-0.10,954.61
16.787,-0.14,0.10,-0.58,-2.72,-9.41,2.51,0.28,1.88,0.24,954.61
16.833,-0.14,0.10,-0.58,-2.72,-9.41,2.51,0.28,1.88,0.24,954.61
16.853,-0.14,0.10,-0.58,-1.89,-7.43,-2.30,0.28,1.88,0.24,954.61
16.855,-0.23,-0.09,-0.09,-1.89,-7.43,-2.30,0.28,1.88,0.24,954.61
16.855,-0.23,-0.09,-0.09,-1.89,-7.43,-2.30,-0.29,-0.25,-0.12,954.61
16.901,-0.23,-0.09,-0.09,-1.89,-7.43,-2.30,-0.29,-0.25,-0.12,954.61
16.902,-0.12,-0.09,-0.07,-1.89,-7.43,-2.30,-0.29,-0.25,-0.12,954.61
16.903,-0.12,-0.09,-0.07,-2.96,-7.42,-2.67,-0.29,-0.25,-0.12,954.61
16.916,-0.12,-0.09,-0.07,-2.96,-7.42,-2.67,-0.41,-0.33,0.14,954.61
16.967,-0.12,-0.09,-0.07,-2.96,-7.42,-2.67,-0.41,-0.33,0.14,954.63
16.968,-0.12,-0.09,-0.07,-3.58,-6.70,-1.84,-0.41,-0.33,0.14,954.63
16.969,-0.11,-0.13,-0.16,-3.58,-6.70,-1.84,-0.41,-0.33,0.14,954.63
16.985,-0.11,-0.13,-0.16,-3.58,-6.70,-1.84,-0.56,-1.34,0.62,954.63
17.033,-0.47,-2.42,-0.17,-3.58,-6.70,-1.84,-0.56,-1.34,0.62,954.63
17.035,-0.47,-2.42,-0.17,-1.02,16.09,-1.15,-0.56,-1.34,0.62,954.63
17.036,-0.47,-2.42,-0.17,-1.02,16.09,-1.15,-0.56,-1.34,0.62,954.63
17.041,-0.47,-2.42,-0.17,-1.02,16.09,-1.15,-0.56,-3.33,0.82,954.63
17.094,-0.33,-3.67,0.13,-1.02,16.09,-1.15,-0.56,-3.33,0.82,954.63
17.095,-0.33,-3.67,0.13,-2.95,28.43,-2.83,-0.56,-3.33,0.82,954.63
17.1,-0.33,-3.67,0.13,-2.95,28.43,-2.83,-0.56,-3.33,0.82,954.67
17.103,-0.33,-3.67,0.13,-2.95,28.43,-2.83,-0.20,-2.68,-0.24,954.67
17.158,-0.33,-3.67,0.13,-0.02,7.60,1.06,-0.20,-2.68,-0.24,954.67
17.159,-0.56,-1.60,-0.27,-0.02,7.60,1.06,-0.20,-2.68,-0.24,954.67
17.166,-0.56,-1.60,-0.27,-0.02,7.60,1.06,0.63,1.10,-1.20,954.67
17.167,-0.56,-1.60,-0.27,-0.02,7.60,1.06,0.63,1.10,-1.20,954.67
17.222,-0.56,-1.60,-0.27,-2.46,-8.14,0.63,0.63,1.10,-1.20,954.67
17.224,-0.27,-0.01,-0.24,-2.46,-8.14,0.63,0.63,1.10,-1.20,954.67
17.229,-0.27,-0.01,-0.24,-2.46,-8.14,0.63,0.18,0.78,-0.46,954.67
17.233,-0.27,-0.01,-0.24,-2.46,-8.14,0.63,0.18,0.78,-0.46,954.62
17.284,-0.12,0.07,-0.09,-2.46,-8.14,0.63,0.18,0.78,-0.46,954.62
17.285,-0.12,0.07,-0.09,-3.81,-9.01,-1.19,0.18,0.78,-0.46,954.62
17.3,-0.12,0.07,-0.09,-3.81,-9.01,-1.19,-0.01,1.33,-0.13,954.62
17.301,-0.12,0.07,-0.09,-3.81,-9.01,-1.19,-0.01,1.33,-0.13,954.62
17.347,-0.18,0.16,-0.08,-3.81,-9.01,-1.19,-0.01,1.33,-0.13,954.62
17.347,-0.18,0.16,-0.08,-2.96,-9.88,-1.76,-0.01,1.33,-0.13,954.62
17.356,-0.18,0.16,-0.08,-2.96,-9.88,-1.76,-0.33,0.63,-0.36,954.62
17.366,-0.18,0.16,-0.08,-2.96,-9.88,-1.76,-0.33,0.63,-0.36,954.62
17.41,-0.20,0.02,0.06,-2.96,-9.88,-1.76,-0.33,0.63,-0.36,954.62
17.412,-0.20,0.02,0.06,-2.48,-8.54,-3.35,-0.33,0.63,-0.36,954.62
17.42,-0.20,0.02,0.06,-2.48,-8.54,-3.35,-0.39,0.22,-0.37,954.62
17.433,-0.20,0.02,0.06,-2.48,-8.54,-3.35,-0.39,0.22,-0.37,954.63
17.473,-0.25,-0.27,-0.01,-2.48,-8.54,-3.35,-0.39,0.22,-0.37,954.63
17.475,-0.25,-0.27,-0.01,-1.94,-5.68,-2.97,-0.39,0.22,-0.37,954.63
17.483,-0.25,-0.27,-0.01,-1.94,-5.68,-2.97,-0.18,0.68,0.06,954.63
17.5,-0.25,-0.27,-0.01,-1.94,-5.68,-2.97,-0.18,0.68,0.06,954.63
17.538,-0.55,-2.65,0.03,-1.94,-5.68,-2.97,-0.18,0.68,0.06,954.63
17.54,-0.55,-2.65,0.03,1.15,17.69,-3.63,-0.18,0.68,0.06,954.63
17.563,-0.55,-2.65,0.03,1.15,17.69,-3.63,0.07,1.21,0.27,954.63
17.567,-0.55,-2.65,0.03,1.15,17.69,-3.63,0.07,1.21,0.27,954.65
17.6,-0.46,-3.72,-0.04,1.15,17.69,-3.63,0.07,1.21,0.27,954.65
17.601,-0.46,-3.72,-0.04,0.11,28.22,-2.83,0.07,1.21,0.27,954.65
17.609,-0.46,-3.72,-0.04,0.11,28.22,-2.83,0.28,-0.58,0.20,954.65
17.633,-0.46,-3.72,-0.04,0.11,28.22,-2.83,0.28,-0.58,0.20,954.65
17.663,-0.17,-1.44,-0.30,0.11,28.22,-2.83,0.28,-0.58,0.20,954.65
17.664,-0.17,-1.44,-0.30,-2.69,5.69,0.38,0.28,-0.58,0.20,954.65
17.672,-0.17,-1.44,-0.30,-2.69,5.69,0.38,1.23,0.30,-0.11,954.65
17.704,-0.17,-1.44,-0.30,-2.69,5.69,0.38,1.23,0.30,-0.11,954.59
17.727,0.05,0.03,-0.29,-2.69,5.69,0.38,1.23,0.30,-0.11,954.59
17.73,0.05,0.03,-0.29,-4.63,-8.86,0.27,1.23,0.30,-0.11,954.59
17.736,0.05,0.03,-0.29,-4.63,-8.86,0.27,0.69,1.54,0.07,954.59
17.769,0.05,0.03,-0.29,-4.63,-8.86,0.27,0.69,1.54,0.07,954.59
17.79,-0.08,0.19,-0.32,-4.63,-8.86,0.27,0.69,1.54,0.07,954.59
17.791,-0.08,0.19,-0.32,-3.16,-10.39,0.24,0.69,1.54,0.07,954.59
17.804,-0.08,0.19,-0.32,-3.16,-10.39,0.24,-0.07,1.02,0.12,954.59
17.84,-0.08,0.19,-0.32,-3.16,-10.39,0.24,-0.07,1.02,0.12,954.59
17.854,-0.10,0.03,-0.15,-3.16,-10.39,0.24,-0.07,1.02,0.12,954.59
17.854,-0.10,0.03,-0.15,-3.15,-8.73,-1.63,-0.07,1.02,0.12,954.59
17.866,-0.10,0.03,-0.15,-3.15,-8.73,-1.63,-0.58,-0.53,0.11,954.59
17.9,-0.10,0.03,-0.15,-3.15,-8.73,-1.63,-0.58,-0.53,0.11,954.59
17.916,-0.09,-0.07,-0.03,-3.15,-8.73,-1.63,-0.58,-0.53,0.11,954.59
17.917,-0.09,-0.07,-0.03,-3.49,-7.54,-2.95,-0.58,-0.53,0.11,954.59
17.937,-0.09,-0.07,-0.03,-3.49,-7.54,-2.95,-0.53,-0.50,0.16,954.59
17.975,-0.09,-0.07,-0.03,-3.49,-7.54,-2.95,-0.53,-0.50,0.16,954.59
17.98,-0.13,-0.42,-0.08,-3.49,-7.54,-2.95,-0.53,-0.50,0.16,954.59
17.984,-0.13,-0.42,-0.08,-3.15,-3.98,-2.58,-0.53,-0.50,0.16,954.59
17.989,-0.13,-0.42,-0.08,-3.15,-3.98,-2.58,-0.33,0.22,0.23,954.59
18.034,-0.13,-0.42,-0.08,-3.15,-3.98,-2.58,-0.33,0.22,0.23,954.61
18.044,-0.39,-3.10,-0.01,-3.15,-3.98,-2.58,-0.33,0.22,0.23,954.61
18.045,-0.39,-3.10,-0.01,-0.51,22.33,-3.60,-0.33,0.22,0.23,954.61
18.053,-0.39,-3.10,-0.01,-0.51,22.33,-3.60,-0.09,0.66,0.16,954.61
18.101,-0.39,-3.10,-0.01,-0.51,22.33,-3.60,-0.09,0.66,0.16,954.61
18.107,-0.43,-3.44,-0.11,-0.51,22.33,-3.60,-0.09,0.66,0.16,954.61
18.119,-0.43,-3.44,-0.11,-0.06,25.59,-2.44,-0.09,0.66,0.16,954.61
18.12,-0.43,-3.44,-0.11,-0.06,25.59,-2.44,0.15,-0.69,-0.50,954.61
18.167,-0.43,-3.44,-0.11,-0.06,25.59,-2.44,0.15,-0.69,-0.50,954.61
18.169,-0.17,-1.04,-0.20,-0.06,25.59,-2.44,0.15,-0.69,-0.50,954.61
18.17,-0.17,-1.04,-0.20,-2.46,1.73,-1.00,0.15,-0.69,-0.50,954.61
18.179,-0.17,-1.04,-0.20,-2.46,1.73,-1.00,0.82,-0.14,-0.30,954.61
18.234,-0.06,0.19,-0.01,-2.46,1.73,-1.00,0.82,-0.14,-0.30,954.61
18.235,-0.06,0.19,-0.01,-3.29,-10.44,-2.90,0.82,-0.14,-0.30,954.61
18.236,-0.06,0.19,-0.01,-3.29,-10.44,-2.90,0.82,-0.14,-0.30,954.61
18.249,-0.06,0.19,-0.01,-3.29,-10.44,-2.90,0.17,0.76,-0.49,954.61
18.296,-0.34,0.19,-0.22,-3.29,-10.44,-2.90,0.17,0.76,-0.49,954.61
18.297,-0.34,0.19,-0.22,-0.05,-10.53,-1.06,0.17,0.76,-0.49,954.61
18.299,-0.34,0.19,-0.22,-0.05,-10.53,-1.06,0.17,0.76,-0.49,954.63
18.306,-0.34,0.19,-0.22,-0.05,-10.53,-1.06,-0.22,0.06,-0.74,954.63
18.361,-0.26,-0.01,-0.08,-0.05,-10.53,-1.06,-0.22,0.06,-0.74,954.63
18.363,-0.26,-0.01,-0.08,-0.82,-8.63,-2.46,-0.22,0.06,-0.74,954.63
18.367,-0.26,-0.01,-0.08,-0.82,-8.63,-2.46,-0.22,0.06,-0.74,954.63
18.369,-0.26,-0.01,-0.08,-0.82,-8.63,-2.46,-0.14,-0.44,-0.16,954.63
18.424,-0.21,-0.09,-0.10,-0.82,-8.63,-2.46,-0.14,-0.44,-0.16,954.63
18.425,-0.21,-0.09,-0.10,-1.47,-7.75,-2.34,-0.14,-0.44,-0.16,954.63
18.433,-0.21,-0.09,-0.10,-1.47,-7.75,-2.34,-0.05,0.33,0.52,954.63
18.434,-0.21,-0.09,-0.10,-1.47,-7.75,-2.34,-0.05,0.33,0.52,954.63
18.488,-0.21,-0.09,-0.10,-2.42,-2.74,-1.67,-0.05,0.33,0.52,954.63
18.489,-0.14,-0.58,-0.18,-2.42,-2.74,-1.67,-0.05,0.33,0.52,954.63
18.52,-0.14,-0.58,-0.18,-2.42,-2.74,-1.67,-0.10,0.72,0.69,954.63
18.521,-0.14,-0.58,-0.18,-2.42,-2.74,-1.67,-0.10,0.72,0.69,954.61
18.549,-0.48,-3.41,0.00,-2.42,-2.74,-1.67,-0.10,0.72,0.69,954.61
18.551,-0.48,-3.41,0.00,0.88,25.20,-3.85,-0.10,0.72,0.69,954.61
18.559,-0.48,-3.41,0.00,0.88,25.20,-3.85,-0.36,0.61,0.36,954.61
18.567,-0.48,-3.41,0.00,0.88,25.20,-3.85,-0.36,0.61,0.36,954.61
18.613,-0.36,-3.27,-0.05,0.88,25.20,-3.85,-0.36,0.61,0.36,954.61
18.615,-0.36,-3.27,-0.05,-0.60,23.83,-3.00,-0.36,0.61,0.36,954.61
18.622,-0.36,-3.27,-0.05,-0.60,23.83,-3.00,0.06,-1.88,-0.28,954.61
18.634,-0.36,-3.27,-0.05,-0.60,23.83,-3.00,0.06,-1.88,-0.28,954.68
18.677,0.02,-0.79,-0.26,-0.60,23.83,-3.00,0.06,-1.88,-0.28,954.68
18.679,0.02,-0.79,-0.26,-4.30,-0.76,-0.44,0.06,-1.88,-0.28,954.68
18.686,0.02,-0.79,-0.26,-4.30,-0.76,-0.44,0.99,0.75,0.04,954.68
18.7,0.02,-0.79,-0.26,-4.30,-0.76,-0.44,0.99,0.75,0.04,954.68
18.741,0.03,0.25,-0.24,-4.30,-0.76,-0.44,0.99,0.75,0.04,954.68
18.742,0.03,0.25,-0.24,-4.05,-10.98,-0.81,0.99,0.75,0.04,954.68
18.749,0.03,0.25,-0.24,-4.05,-10.98,-0.81,0.49,1.70,-0.02,954.68
18.77,0.03,0.25,-0.24,-4.05,-10.98,-0.81,0.49,1.70,-0.02,954.61
18.803,0.03,0.25,-0.24,-2.80,-9.75,-1.87,0.49,1.70,-0.02,954.61
18.805,-0.06,0.12,-0.16,-2.80,-9.75,-1.87,0.49,1.70,-0.02,954.61
18.818,-0.06,0.12,-0.16,-2.80,-9.75,-1.87,-0.02,1.23,-0.19,954.61
18.835,-0.06,0.12,-0.16,-2.80,-9.75,-1.87,-0.02,1.23,-0.19,954.61
18.866,-0.06,0.12,-0.16,-1.58,-8.77,-2.74,-0.02,1.23,-0.19,954.61
18.867,-0.17,0.03,-0.10,-1.58,-8.77,-2.74,-0.02,1.23,-0.19,954.61
18.875,-0.17,0.03,-0.10,-1.58,-8.77,-2.74,-0.54,-0.26,-0.25,954.61
18.902,-0.17,0.03,-0.10,-1.58,-8.77,-2.74,-0.54,-0.26,-0.25,954.61
18.93,-0.17,0.03,-0.10,-1.31,-7.85,-2.78,-0.54,-0.26,-0.25,954.61
18.932,-0.22,-0.06,-0.11,-1.31,-7.85,-2.78,-0.54,-0.26,-0.25,954.61
18.939,-0.22,-0.06,-0.11,-1.31,-7.85,-2.78,-0.47,-0.96,-0.01,954.61
18.967,-0.22,-0.06,-0.11,-1.31,-7.85,-2.78,-0.47,-0.96,-0.01,954.61
18.992,-0.21,-1.29,-0.10,-1.31,-7.85,-2.78,-0.47,-0.96,-0.01,954.61
18.993,-0.21,-1.29,-0.10,-1.83,4.32,-2.61,-0.47,-0.96,-0.01,954.61
19.003,-0.21,-1.29,-0.10,-1.83,4.32,-2.61,-0.16,-1.49,0.34,954.61
19.036,-0.21,-1.29,-0.10,-1.83,4.32,-2.61,-0.16,-1.49,0.34,954.61
19.056,-0.37,-3.62,0.12,-1.83,4.32,-2.61,-0.16,-1.49,0.34,954.61
19.057,-0.37,-3.62,0.12,-0.83,27.36,-4.45,-0.16,-1.49,0.34,954.61
19.091,-0.37,-3.62,0.12,-0.83,27.36,-4.45,-0.08,-1.20,0.40,954.61
19.103,-0.37,-3.62,0.12,-0.83,27.36,-4.45,-0.08,-1.20,0.40,954.63
19.119,-0.44,-2.56,-0.12,-0.83,27.36,-4.45,-0.08,-1.20,0.40,954.63
19.119,-0.44,-2.56,-0.12,-0.17,16.75,-1.68,-0.08,-1.20,0.40,954.63
19.128,-0.44,-2.56,-0.12,-0.17,16.75,-1.68,0.45,-0.86,-0.39,954.63
19.169,-0.44,-2.56,-0.12,-0.17,16.75,-1.68,0.45,-0.86,-0.39,954.63
19.201,-0.44,-2.56,-0.12,-4.50,-4.18,-0.94,0.45,-0.86,-0.39,954.63
19.202,0.01,-0.43,-0.17,-4.50,-4.18,-0.94,0.45,-0.86,-0.39,954.63
19.202,0.01,-0.43,-0.17,-4.50,-4.18,-0.94,0.70,0.82,0.15,954.63
19.234,0.01,-0.43,-0.17,-4.50,-4.18,-0.94,0.70,0.82,0.15,954.58
19.246,-0.23,0.32,-0.31,-4.50,-4.18,-0.94,0.70,0.82,0.15,954.58
19.247,-0.23,0.32,-0.31,-1.94,-11.62,0.18,0.70,0.82,0.15,954.58
19.256,-0.23,0.32,-0.31,-1.94,-11.62,0.18,0.16,1.17,0.01,954.58
19.301,-0.23,0.32,-0.31,-1.94,-11.62,0.18,0.16,1.17,0.01,954.58
19.31,-0.14,0.00,-0.22,-1.94,-11.62,0.18,0.16,1.17,0.01,954.58
19.31,-0.14,0.00,-0.22,-3.12,-8.33,-0.68,0.16,1.17,0.01,954.58
19.32,-0.14,0.00,-0.22,-3.12,-8.33,-0.68,-0.28,-0.96,0.28,954.58
19.369,-0.14,0.00,-0.22,-3.12,-8.33,-0.68,-0.28,-0.96,0.28,954.58
19.373,-0.10,-0.10,-0.09,-3.12,-8.33,-0.68,-0.28,-0.96,0.28,954.58
19.373,-0.10,-0.10,-0.09,-3.71,-7.19,-1.97,-0.28,-0.96,0.28,954.58
19.382,-0.10,-0.10,-0.09,-3.71,-7.19,-1.97,-0.31,-0.29,0.33,954.58
19.443,-0.10,-0.10,-0.09,-3.71,-7.19,-1.97,-0.31,-0.29,0.33,954.58
19.444,-0.23,-0.18,-0.19,-3.71,-7.19,-1.97,-0.31,-0.29,0.33,954.58
19.445,-0.23,-0.18,-0.19,-2.68,-6.25,-1.11,-0.31,-0.29,0.33,954.58
19.446,-0.23,-0.18,-0.19,-2.68,-6.25,-1.11,-0.34,-0.29,0.22,954.58
19.502,-0.23,-0.18,-0.19,-3.25,9.57,-2.35,-0.34,-0.29,0.22,954.58
19.503,-0.18,-1.79,-0.06,-3.25,9.57,-2.35,-0.34,-0.29,0.22,954.58
19.503,-0.18,-1.79,-0.06,-3.25,9.57,-2.35,-0.34,-0.29,0.22,954.58
19.509,-0.18,-1.79,-0.06,-3.25,9.57,-2.35,-0.46,-0.88,-0.25,954.58
19.576,-0.18,-1.79,-0.06,0.80,28.50,-6.56,-0.46,-0.88,-0.25,954.58
19.577,-0.58,-3.72,0.34,0.80,28.50,-6.56,-0.46,-0.88,-0.25,954.58
19.578,-0.58,-3.72,0.34,0.80,28.50,-6.56,-0.46,-0.88,-0.25,954.63
19.579,-0.58,-3.72,0.34,0.80,28.50,-6.56,-0.57,0.08,-0.27,954.63
19.628,-0.58,-3.72,0.34,0.92,12.45,-3.40,-0.57,0.08,-0.27,954.63
19.628,-0.60,-2.09,0.06,0.92,12.45,-3.40,-0.57,0.08,-0.27,954.63
19.633,-0.60,-2.09,0.06,0.92,12.45,-3.40,-0.57,0.08,-0.27,954.63
19.636,-0.60,-2.09,0.06,0.92,12.45,-3.40,0.42,-1.04,0.03,954.63
19.689,0.10,-0.18,-0.21,0.92,12.45,-3.40,0.42,-1.04,0.03,954.63
19.691,0.10,-0.18,-0.21,-5.97,-6.40,-0.40,0.42,-1.04,0.03,954.63
19.699,0.10,-0.18,-0.21,-5.97,-6.40,-0.40,0.83,0.42,-0.04,954.63
19.702,0.10,-0.18,-0.21,-5.97,-6.40,-0.40,0.83,0.42,-0.04,954.57
19.753,-0.06,0.16,-0.10,-5.97,-6.40,-0.40,0.83,0.42,-0.04,954.57
19.754,-0.06,0.16,-0.10,-3.92,-9.99,-1.59,0.83,0.42,-0.04,954.57
19.762,-0.06,0.16,-0.10,-3.92,-9.99,-1.59,0.51,1.44,-0.59,954.57
19.767,-0.06,0.16,-0.10,-3.92,-9.99,-1.59,0.51,1.44,-0.59,954.57
19.817,-0.06,0.16,-0.10,-2.32,-9.00,-1.11,0.51,1.44,-0.59,954.57
19.818,-0.18,0.05,-0.17,-2.32,-9.00,-1.11,0.51,1.44,-0.59,954.57
19.826,-0.18,0.05,-0.17,-2.32,-9.00,-1.11,0.21,1.15,-0.30,954.57
19.834,-0.18,0.05,-0.17,-2.32,-9.00,-1.11,0.21,1.15,-0.30,954.56
19.88,-0.18,0.08,-0.12,-2.32,-9.00,-1.11,0.21,1.15,-0.30,954.56
19.882,-0.18,0.08,-0.12,-2.24,-9.26,-1.80,0.21,1.15,-0.30,954.56
19.889,-0.18,0.08,-0.12,-2.24,-9.26,-1.80,-0.27,0.14,-0.05,954.56
19.908,-0.18,0.08,-0.12,-2.24,-9.26,-1.80,-0.27,0.14,-0.05,954.56
19.942,-0.16,-0.12,-0.06,-2.24,-9.26,-1.80,-0.27,0.14,-0.05,954.56
19.944,-0.16,-0.12,-0.06,-2.52,-7.22,-2.62,-0.27,0.14,-0.05,954.56
19.952,-0.16,-0.12,-0.06,-2.52,-7.22,-2.62,-0.52,-0.27,0.05,954.56
19.969,-0.16,-0.12,-0.06,-2.52,-7.22,-2.62,-0.52,-0.27,0.05,954.56
20.008,-0.48,-2.03,-0.06,-2.52,-7.22,-2.62,-0.52,-0.27,0.05,954.56
20.009,-0.48,-2.03,-0.06,0.33,11.71,-2.71,-0.52,-0.27,0.05,954.56
20.043,-0.48,-2.03,-0.06,0.33,11.71,-2.71,-0.34,-0.45,0.55,954.56
20.045,-0.48,-2.03,-0.06,0.33,11.71,-2.71,-0.34,-0.45,0.55,954.61
20.07,-0.53,-3.81,0.15,0.33,11.71,-2.71,-0.34,-0.45,0.55,954.61
20.071,-0.53,-3.81,0.15,-0.07,29.55,-4.26,-0.34,-0.45,0.55,954.61
20.078,-0.53,-3.81,0.15,-0.07,29.55,-4.26,-0.01,-2.04,1.06,954.61
20.1,-0.53,-3.81,0.15,-0.07,29.55,-4.26,-0.01,-2.04,1.06,954.61
20.143,-0.39,-2.17,-0.17,-0.07,29.55,-4.26,-0.01,-2.04,1.06,954.61
20.145,-0.39,-2.17,-0.17,-1.52,13.27,-0.63,-0.01,-2.04,1.06,954.61
20.146,-0.39,-2.17,-0.17,-1.52,13.27,-0.63,0.56,-0.38,-0.34,954.61
20.176,-0.39,-2.17,-0.17,-1.52,13.27,-0.63,0.56,-0.38,-0.34,954.65
20.196,0.01,-0.04,-0.27,-1.52,13.27,-0.63,0.56,-0.38,-0.34,954.65
20.197,0.01,-0.04,-0.27,-5.33,-7.64,0.46,0.56,-0.38,-0.34,954.65
20.205,0.01,-0.04,-0.27,-5.33,-7.64,0.46,0.31,0.25,-0.04,954.65
20.239,0.01,-0.04,-0.27,-5.33,-7.64,0.46,0.31,0.25,-0.04,954.65
20.267,0.01,0.22,-0.06,-5.33,-7.64,0.46,0.31,0.25,-0.04,954.65
20.269,0.01,0.22,-0.06,-5.00,-10.39,-1.90,0.31,0.25,-0.04,954.65
20.27,0.01,0.22,-0.06,-5.00,-10.39,-1.90,-0.11,1.22,-0.54,954.65
20.3,0.01,0.22,-0.06,-5.00,-10.39,-1.90,-0.11,1.22,-0.54,954.62
20.323,-0.23,-0.05,0.01,-5.00,-10.39,-1.90,-0.11,1.22,-0.54,954.62
20.325,-0.23,-0.05,0.01,-2.30,-7.80,-3.11,-0.11,1.22,-0.54,954.62
20.333,-0.23,-0.05,0.01,-2.30,-7.80,-3.11,-0.45,0.71,-0.40,954.62
20.368,-0.23,-0.05,0.01,-2.30,-7.80,-3.11,-0.45,0.71,-0.40,954.62
20.393,-0.16,-0.05,0.07,-2.30,-7.80,-3.11,-0.45,0.71,-0.40,954.62
20.393,-0.16,-0.05,0.07,-3.06,-7.66,-3.70,-0.45,0.71,-0.40,954.62
20.396,-0.16,-0.05,0.07,-3.06,-7.66,-3.70,-0.33,-0.57,0.04,954.62
20.434,-0.16,-0.05,0.07,-3.06,-7.66,-3.70,-0.33,-0.57,0.04,954.62
20.451,-0.07,-0.04,0.03,-3.06,-7.66,-3.70,-0.33,-0.57,0.04,954.62
20.451,-0.07,-0.04,0.03,-4.03,-7.74,-3.30,-0.33,-0.57,0.04,954.62
20.459,-0.07,-0.04,0.03,-4.03,-7.74,-3.30,-0.01,-0.00,0.15,954.62
20.501,-0.07,-0.04,0.03,-4.03,-7.74,-3.30,-0.01,-0.00,0.15,954.62
20.513,-0.07,-0.04,0.03,-1.73,7.92,-2.23,-0.01,-0.00,0.15,954.62
20.515,-0.32,-1.63,-0.08,-1.73,7.92,-2.23,-0.01,-0.00,0.15,954.62
20.523,-0.32,-1.63,-0.08,-1.73,7.92,-2.23,0.17,-0.01,0.43,954.62
20.568,-0.32,-1.63,-0.08,-1.73,7.92,-2.23,0.17,-0.01,0.43,954.62
20.577,-0.52,-3.57,-0.10,-1.73,7.92,-2.23,0.17,-0.01,0.43,954.62
20.578,-0.52,-3.57,-0.10,-0.11,27.11,-1.89,0.17,-0.01,0.43,954.62
20.586,-0.52,-3.57,-0.10,-0.11,27.11,-1.89,0.11,-0.37,0.44,954.62
20.635,-0.52,-3.57,-0.10,-0.11,27.11,-1.89,0.11,-0.37,0.44,954.62
20.64,-0.49,-2.74,-0.01,-0.11,27.11,-1.89,0.11,-0.37,0.44,954.62
20.64,-0.49,-2.74,-0.01,-0.03,18.72,-2.61,0.11,-0.37,0.44,954.62
20.651,-0.49,-2.74,-0.01,-0.03,18.72,-2.61,0.23,0.43,-0.97,954.62
20.702,-0.49,-2.74,-0.01,-0.03,18.72,-2.61,0.23,0.43,-0.97,954.62
20.703,-0.01,-0.33,0.05,-0.03,18.72,-2.61,0.23,0.43,-0.97,954.62
20.703,-0.01,-0.33,0.05,-4.06,-5.24,-3.37,0.23,0.43,-0.97,954.62
20.712,-0.01,-0.33,0.05,-4.06,-5.24,-3.37,0.58,1.86,-0.57,954.62
20.766,-0.02,0.25,-0.36,-4.06,-5.24,-3.37,0.58,1.86,-0.57,954.62
20.768,-0.02,0.25,-0.36,-3.29,-11.15,0.52,0.58,1.86,-0.57,954.62
20.769,-0.02,0.25,-0.36,-3.29,-11.15,0.52,0.58,1.86,-0.57,954.61
20.775,-0.02,0.25,-0.36,-3.29,-11.15,0.52,0.44,1.13,-0.65,954.61
20.832,-0.18,0.14,-0.10,-3.29,-11.15,0.52,0.44,1.13,-0.65,954.61
20.834,-0.18,0.14,-0.10,-1.60,-10.12,-2.08,0.44,1.13,-0.65,954.61
20.835,-0.18,0.14,-0.10,-1.60,-10.12,-2.08,0.44,1.13,-0.65,954.61
20.839,-0.18,0.14,-0.10,-1.60,-10.12,-2.08,-0.43,-0.74,-0.37,954.61
20.893,-0.28,-0.01,0.03,-1.60,-10.12,-2.08,-0.43,-0.74,-0.37,954.61
20.895,-0.28,-0.01,0.03,-0.71,-8.57,-3.52,-0.43,-0.74,-0.37,954.61
20.901,-0.28,-0.01,0.03,-0.71,-8.57,-3.52,-0.43,-0.74,-0.37,954.61
20.902,-0.28,-0.01,0.03,-0.71,-8.57,-3.52,-0.54,-0.41,-0.14,954.61
20.956,-0.27,-0.04,0.02,-0.71,-8.57,-3.52,-0.54,-0.41,-0.14,954.61
20.957,-0.27,-0.04,0.02,-0.88,-8.18,-3.57,-0.54,-0.41,-0.14,954.61
20.976,-0.27,-0.04,0.02,-0.88,-8.18,-3.57,-0.27,-0.08,0.13,954.61
20.977,-0.27,-0.04,0.02,-0.88,-8.18,-3.57,-0.27,-0.08,0.13,954.61
21.019,-0.24,-0.99,-0.02,-0.88,-8.18,-3.57,-0.27,-0.08,0.13,954.61
21.02,-0.24,-0.99,-0.02,-1.30,1.20,-3.27,-0.27,-0.08,0.13,954.61
21.029,-0.24,-0.99,-0.02,-1.30,1.20,-3.27,-0.06,0.36,0.43,954.61
21.034,-0.24,-0.99,-0.02,-1.30,1.20,-3.27,-0.06,0.36,0.43,954.61
21.084,-0.74,-3.77,0.02,-1.30,1.20,-3.27,-0.06,0.36,0.43,954.61
21.086,-0.74,-3.77,0.02,3.03,28.87,-3.92,-0.06,0.36,0.43,954.61
21.092,-0.74,-3.77,0.02,3.03,28.87,-3.92,-0.27,0.12,1.47,954.61
21.111,-0.74,-3.77,0.02,3.03,28.87,-3.92,-0.27,0.12,1.47,954.62
21.146,-0.59,-3.03,-0.09,3.03,28.87,-3.92,-0.27,0.12,1.47,954.62
21.148,-0.59,-3.03,-0.09,0.85,21.70,-2.21,-0.27,0.12,1.47,954.62
21.156,-0.59,-3.03,-0.09,0.85,21.70,-2.21,0.46,-1.96,0.39,954.62
21.168,-0.59,-3.03,-0.09,0.85,21.70,-2.21,0.46,-1.96,0.39,954.62
21.21,0.18,-0.51,-0.34,0.85,21.70,-2.21,0.46,-1.96,0.39,954.62
21.211,0.18,-0.51,-0.34,-6.91,-3.03,0.78,0.46,-1.96,0.39,954.62
21.229,0.18,-0.51,-0.34,-6.91,-3.03,0.78,0.74,0.24,0.32,954.62
21.259,0.18,-0.51,-0.34,-6.91,-3.03,0.78,0.74,0.24,0.32,954.57
21.274,0.03,0.15,-0.23,-6.91,-3.03,0.78,0.74,0.24,0.32,954.57
21.274,0.03,0.15,-0.23,-5.23,-9.47,-0.51,0.74,0.24,0.32,954.57
21.282,0.03,0.15,-0.23,-5.23,-9.47,-0.51,-0.14,0.55,-0.20,954.57
21.301,0.03,0.15,-0.23,-5.23,-9.47,-0.51,-0.14,0.55,-0.20,954.57
21.336,0.03,0.15,-0.23,-4.75,-8.37,-1.92,-0.14,0.55,-0.20,954.57
21.338,-0.02,0.04,-0.11,-4.75,-8.37,-1.92,-0.14,0.55,-0.20,954.57
21.347,-0.02,0.04,-0.11,-4.75,-8.37,-1.92,-0.54,-0.30,-0.13,954.57
21.38,-0.02,0.04,-0.11,-4.75,-8.37,-1.92,-0.54,-0.30,-0.13,954.59
21.417,-0.02,0.04,-0.11,-4.55,-7.94,-3.29,-0.54,-0.30,-0.13,954.59
21.418,-0.03,-0.00,0.00,-4.55,-7.94,-3.29,-0.54,-0.30,-0.13,954.59
21.418,-0.03,-0.00,0.00,-4.55,-7.94,-3.29,-0.47,0.03,-0.24,954.59
21.435,-0.03,-0.00,0.00,-4.55,-7.94,-3.29,-0.47,0.03,-0.24,954.59
21.464,-0.18,-0.04,-0.04,-4.55,-7.94,-3.29,-0.47,0.03,-0.24,954.59
21.465,-0.18,-0.04,-0.04,-2.94,-7.53,-3.14,-0.47,0.03,-0.24,954.59
21.473,-0.18,-0.04,-0.04,-2.94,-7.53,-3.14,-0.33,0.30,-0.07,954.59
21.513,-0.18,-0.04,-0.04,-2.94,-7.53,-3.14,-0.33,0.30,-0.07,954.59
21.554,-0.18,-0.04,-0.04,-1.70,0.06,-3.03,-0.33,0.30,-0.07,954.59
21.555,-0.32,-0.80,-0.07,-1.70,0.06,-3.03,-0.33,0.30,-0.07,954.59
21.555,-0.32,-0.80,-0.07,-1.70,0.06,-3.03,-0.25,0.30,0.38,954.59
21.569,-0.32,-0.80,-0.07,-1.70,0.06,-3.03,-0.25,0.30,0.38,954.60
21.59,-0.53,-3.44,0.04,-1.70,0.06,-3.03,-0.25,0.30,0.38,954.60
21.593,-0.53,-3.44,0.04,0.12,26.13,-4.17,-0.25,0.30,0.38,954.60
21.599,-0.53,-3.44,0.04,0.12,26.13,-4.17,-0.25,-0.32,0.47,954.60
21.648,-0.53,-3.44,0.04,0.12,26.13,-4.17,-0.25,-0.32,0.47,954.60
21.684,-0.57,-3.18,0.01,0.12,26.13,-4.17,-0.25,-0.32,0.47,954.60
21.685,-0.57,-3.18,0.01,0.55,23.50,-3.69,-0.25,-0.32,0.47,954.60
21.686,-0.57,-3.18,0.01,0.55,23.50,-3.69,0.14,-0.76,-0.82,954.60
21.702,-0.57,-3.18,0.01,0.55,23.50,-3.69,0.14,-0.76,-0.82,954.67
21.716,-0.08,-0.73,-0.31,0.55,23.50,-3.69,0.14,-0.76,-0.82,954.67
21.716,-0.08,-0.73,-0.31,-3.91,-0.98,-0.01,0.14,-0.76,-0.82,954.67
21.726,-0.08,-0.73,-0.31,-3.91,-0.98,-0.01,1.21,0.76,-0.35,954.67
21.783,-0.08,-0.73,-0.31,-3.91,-0.98,-0.01,1.21,0.76,-0.35,954.67
21.784,-0.06,0.15,-0.30,-3.91,-0.98,-0.01,1.21,0.76,-0.35,954.67
21.785,-0.06,0.15,-0.30,-3.65,-9.80,-0.25,1.21,0.76,-0.35,954.67
21.816,-0.06,0.15,-0.30,-3.65,-9.80,-0.25,0.70,1.68,-0.18,954.67
21.834,-0.06,0.15,-0.30,-3.65,-9.80,-0.25,0.70,1.68,-0.18,954.61
21.842,-0.09,0.08,-0.29,-3.65,-9.80,-0.25,0.70,1.68,-0.18,954.61
21.843,-0.09,0.08,-0.29,-3.11,-9.19,-0.53,0.70,1.68,-0.18,954.61
21.853,-0.09,0.08,-0.29,-3.11,-9.19,-0.53,-0.14,0.43,-0.29,954.61
21.901,-0.09,0.08,-0.29,-3.11,-9.19,-0.53,-0.14,0.43,-0.29,954.61
21.906,-0.18,0.04,-0.13,-3.11,-9.19,-0.53,-0.14,0.43,-0.29,954.61
21.907,-0.18,0.04,-0.13,-1.98,-8.68,-2.49,-0.14,0.43,-0.29,954.61
21.917,-0.18,0.04,-0.13,-1.98,-8.68,-2.49,-0.67,0.15,-0.24,954.61
21.968,-0.18,0.04,-0.13,-1.98,-8.68,-2.49,-0.67,0.15,-0.24,954.61
21.97,-0.20,0.02,-0.05,-1.98,-8.68,-2.49,-0.67,0.15,-0.24,954.61
21.97,-0.20,0.02,-0.05,-1.96,-8.21,-3.53,-0.67,0.15,-0.24,954.61
21.979,-0.20,0.02,-0.05,-1.96,-8.21,-3.53,-0.77,-0.61,0.18,954.61
22.035,-0.26,-0.92,-0.06,-1.96,-8.21,-3.53,-0.77,-0.61,0.18,954.61
22.037,-0.26,-0.92,-0.06,-1.70,1.13,-3.60,-0.77,-0.61,0.18,954.61
22.038,-0.26,-0.92,-0.06,-1.70,1.13,-3.60,-0.77,-0.61,0.18,954.61
22.042,-0.26,-0.92,-0.06,-1.70,1.13,-3.60,-0.42,-0.29,0.25,954.61
22.096,-0.51,-3.41,0.05,-1.70,1.13,-3.60,-0.42,-0.29,0.25,954.61
22.097,-0.51,-3.41,0.05,0.70,25.68,-4.84,-0.42,-0.29,0.25,954.61
22.1,-0.51,-3.41,0.05,0.70,25.68,-4.84,-0.42,-0.29,0.25,954.61
22.105,-0.51,-3.41,0.05,0.70,25.68,-4.84,-0.36,-0.05,0.29,954.61
22.16,-0.51,-3.05,-0.00,0.70,25.68,-4.84,-0.36,-0.05,0.29,954.61
22.162,-0.51,-3.05,-0.00,0.44,22.07,-3.91,-0.36,-0.05,0.29,954.61
22.168,-0.51,-3.05,-0.00,0.44,22.07,-3.91,-0.36,-0.05,0.29,954.64
22.169,-0.51,-3.05,-0.00,0.44,22.07,-3.91,0.40,-1.41,-0.32,954.64
22.224,0.00,-0.57,-0.32,0.44,22.07,-3.91,0.40,-1.41,-0.32,954.64
22.225,0.00,-0.57,-0.32,-4.66,-2.45,-0.18,0.40,-1.41,-0.32,954.64
22.232,0.00,-0.57,-0.32,-4.66,-2.45,-0.18,1.09,0.52,0.31,954.64
22.234,0.00,-0.57,-0.32,-4.66,-2.45,-0.18,1.09,0.52,0.31,954.64
22.286,-0.01,0.18,-0.16,-4.66,-2.45,-0.18,1.09,0.52,0.31,954.64
22.288,-0.01,0.18,-0.16,-4.46,-9.83,-1.81,1.09,0.52,0.31,954.64
22.295,-0.01,0.18,-0.16,-4.46,-9.83,-1.81,0.45,0.96,0.12,954.64
22.301,-0.01,0.18,-0.16,-4.46,-9.83,-1.81,0.45,0.96,0.12,954.58
22.35,-0.04,0.02,-0.09,-4.46,-9.83,-1.81,0.45,0.96,0.12,954.58
22.351,-0.04,0.02,-0.09,-3.95,-8.25,-2.76,0.45,0.96,0.12,954.58
22.36,-0.04,0.02,-0.09,-3.95,-8.25,-2.76,0.12,0.98,-0.08,954.58
22.368,-0.04,0.02,-0.09,-3.95,-8.25,-2.76,0.12,0.98,-0.08,954.58
22.413,-0.14,0.05,-0.15,-3.95,-8.25,-2.76,0.12,0.98,-0.08,954.58
22.414,-0.14,0.05,-0.15,-2.86,-8.51,-2.22,0.12,0.98,-0.08,954.58
22.433,-0.14,0.05,-0.15,-2.86,-8.51,-2.22,-0.14,-0.16,0.04,954.58
22.435,-0.14,0.05,-0.15,-2.86,-8.51,-2.22,-0.14,-0.16,0.04,954.57
22.481,-0.14,0.05,-0.15,-2.95,-7.82,-2.74,-0.14,-0.16,0.04,954.57
22.483,-0.15,-0.01,-0.11,-2.95,-7.82,-2.74,-0.14,-0.16,0.04,954.57
22.487,-0.15,-0.01,-0.11,-2.95,-7.82,-2.74,-0.32,-0.33,0.10,954.57
22.501,-0.15,-0.01,-0.11,-2.95,-7.82,-2.74,-0.32,-0.33,0.10,954.57
22.539,-0.26,-1.59,-0.04,-2.95,-7.82,-2.74,-0.32,-0.33,0.10,954.57
22.54,-0.26,-1.59,-0.04,-1.93,7.69,-3.49,-0.32,-0.33,0.10,954.57
22.549,-0.26,-1.59,-0.04,-1.93,7.69,-3.49,-0.26,-0.01,-0.11,954.57
22.569,-0.26,-1.59,-0.04,-1.93,7.69,-3.49,-0.26,-0.01,-0.11,954.57
22.603,-0.53,-3.81,-0.03,-1.93,7.69,-3.49,-0.26,-0.01,-0.11,954.57
22.605,-0.53,-3.81,-0.03,0.64,29.48,-3.43,-0.26,-0.01,-0.11,954.57
22.612,-0.53,-3.81,-0.03,0.64,29.48,-3.43,-0.06,-1.01,-0.10,954.57
22.635,-0.53,-3.81,-0.03,0.64,29.48,-3.43,-0.06,-1.01,-0.10,954.60
22.666,-0.32,-2.28,-0.16,0.64,29.48,-3.43,-0.06,-1.01,-0.10,954.60
22.668,-0.32,-2.28,-0.16,-1.50,14.25,-1.60,-0.06,-1.01,-0.10,954.60
22.675,-0.32,-2.28,-0.16,-1.50,14.25,-1.60,0.45,-1.21,-0.52,954.60
22.702,-0.32,-2.28,-0.16,-1.50,14.25,-1.60,0.45,-1.21,-0.52,954.60
22.73,-0.09,-0.15,-0.13,-1.50,14.25,-1.60,0.45,-1.21,-0.52,954.60
22.731,-0.09,-0.15,-0.13,-3.39,-6.84,-1.84,0.45,-1.21,-0.52,954.60
22.75,-0.09,-0.15,-0.13,-3.39,-6.84,-1.84,0.27,0.84,-0.46,954.60
22.768,-0.09,-0.15,-0.13,-3.39,-6.84,-1.84,0.27,0.84,-0.46,954.57
22.793,-0.09,-0.15,-0.13,-1.69,-10.89,-1.32,0.27,0.84,-0.46,954.57
22.794,-0.22,0.25,-0.22,-1.69,-10.89,-1.32,0.27,0.84,-0.46,954.57
22.801,-0.22,0.25,-0.22,-1.69,-10.89,-1.32,-0.16,0.73,-0.46,954.57
22.835,-0.22,0.25,-0.22,-1.69,-10.89,-1.32,-0.16,0.73,-0.46,954.57
22.871,-0.22,0.25,-0.22,-1.42,-8.58,-3.01,-0.16,0.73,-0.46,954.57
22.873,-0.23,0.02,-0.06,-1.42,-8.58,-3.01,-0.16,0.73,-0.46,954.57
22.873,-0.23,0.02,-0.06,-1.42,-8.58,-3.01,-0.38,-0.33,-0.50,954.57
22.902,-0.23,0.02,-0.06,-1.42,-8.58,-3.01,-0.38,-0.33,-0.50,954.58
22.919,-0.27,-0.08,0.03,-1.42,-8.58,-3.01,-0.38,-0.33,-0.50,954.58
22.921,-0.27,-0.08,0.03,-0.86,-7.59,-4.03,-0.38,-0.33,-0.50,954.58
22.93,-0.27,-0.08,0.03,-0.86,-7.59,-4.03,-0.43,0.06,-0.33,954.58
22.969,-0.27,-0.08,0.03,-0.86,-7.59,-4.03,-0.43,0.06,-0.33,954.58
23.009,-0.30,-0.28,-0.02,-0.86,-7.59,-4.03,-0.43,0.06,-0.33,954.58
23.01,-0.30,-0.28,-0.02,-0.68,-5.48,-3.75,-0.43,0.06,-0.33,954.58
23.011,-0.30,-0.28,-0.02,-0.68,-5.48,-3.75,-0.33,0.06,0.44,954.58
23.036,-0.30,-0.28,-0.02,-0.68,-5.48,-3.75,-0.33,0.06,0.44,954.61
23.045,-0.18,-2.21,-0.05,-0.68,-5.48,-3.75,-0.33,0.06,0.44,954.61
23.046,-0.18,-2.21,-0.05,-2.28,13.70,-3.59,-0.33,0.06,0.44,954.61
23.055,-0.18,-2.21,-0.05,-2.28,13.70,-3.59,-0.12,0.47,1.06,954.61
23.102,-0.18,-2.21,-0.05,-2.28,13.70,-3.59,-0.12,0.47,1.06,954.63
23.139,-0.23,-3.62,0.00,-2.28,13.70,-3.59,-0.12,0.47,1.06,954.63
23.14,-0.23,-3.62,0.00,-2.21,27.71,-4.11,-0.12,0.47,1.06,954.63
23.141,-0.23,-3.62,0.00,-2.21,27.71,-4.11,-0.15,-0.81,0.33,954.63
23.169,-0.23,-3.62,0.00,-2.21,27.71,-4.11,-0.15,-0.81,0.33,954.63
23.172,-0.22,-1.92,-0.26,-2.21,27.71,-4.11,-0.15,-0.81,0.33,954.63
23.173,-0.22,-1.92,-0.26,-2.14,10.70,-0.94,-0.15,-0.81,0.33,954.63
23.183,-0.22,-1.92,-0.26,-2.14,10.70,-0.94,1.00,-0.36,-0.67,954.63
23.235,-0.22,-1.92,-0.26,-2.14,10.70,-0.94,1.00,-0.36,-0.67,954.60
23.239,-0.22,-1.92,-0.26,-4.08,-9.44,-0.50,1.00,-0.36,-0.67,954.60
23.24,0.00,0.11,-0.30,-4.08,-9.44,-0.50,1.00,-0.36,-0.67,954.60
23.273,0.00,0.11,-0.30,-4.08,-9.44,-0.50,0.61,1.29,0.04,954.60
23.298,-0.06,0.23,-0.22,-4.08,-9.44,-0.50,0.61,1.29,0.04,954.60
23.299,-0.06,0.23,-0.22,-3.16,-10.57,-1.59,0.61,1.29,0.04,954.60
23.3,-0.06,0.23,-0.22,-3.16,-10.57,-1.59,0.61,1.29,0.04,954.60
23.308,-0.06,0.23,-0.22,-3.16,-10.57,-1.59,-0.16,1.11,-0.23,954.60
23.363,-0.26,-0.02,-0.18,-3.16,-10.57,-1.59,-0.16,1.11,-0.23,954.60
23.364,-0.26,-0.02,-0.18,-0.88,-8.12,-2.22,-0.16,1.11,-0.23,954.60
23.368,-0.26,-0.02,-0.18,-0.88,-8.12,-2.22,-0.16,1.11,-0.23,954.62
23.372,-0.26,-0.02,-0.18,-0.88,-8.12,-2.22,-0.42,-0.04,-0.38,954.62
23.428,-0.21,-0.04,-0.01,-0.88,-8.12,-2.22,-0.42,-0.04,-0.38,954.62
23.429,-0.21,-0.04,-0.01,-1.42,-7.81,-3.97,-0.42,-0.04,-0.38,954.62
23.434,-0.21,-0.04,-0.01,-1.42,-7.81,-3.97,-0.42,-0.04,-0.38,954.62
23.443,-0.21,-0.04,-0.01,-1.42,-7.81,-3.97,-0.22,-0.19,-0.03,954.62
23.49,-0.15,-0.37,-0.04,-1.42,-7.81,-3.97,-0.22,-0.19,-0.03,954.62
23.491,-0.15,-0.37,-0.04,-2.16,-4.49,-3.79,-0.22,-0.19,-0.03,954.62
23.499,-0.15,-0.37,-0.04,-2.16,-4.49,-3.79,-0.14,0.61,0.37,954.62
23.501,-0.15,-0.37,-0.04,-2.16,-4.49,-3.79,-0.14,0.61,0.37,954.62
23.554,-0.37,-2.64,-0.05,-2.16,-4.49,-3.79,-0.14,0.61,0.37,954.62
23.555,-0.37,-2.64,-0.05,0.20,17.86,-4.11,-0.14,0.61,0.37,954.62
23.573,-0.37,-2.64,-0.05,0.20,17.86,-4.11,-0.51,0.73,0.21,954.62
23.574,-0.37,-2.64,-0.05,0.20,17.86,-4.11,-0.51,0.73,0.21,954.62
23.616,-0.37,-2.64,-0.05,-0.02,27.87,-5.08,-0.51,0.73,0.21,954.62
23.618,-0.40,-3.65,0.07,-0.02,27.87,-5.08,-0.51,0.73,0.21,954.62
23.626,-0.40,-3.65,0.07,-0.02,27.87,-5.08,0.01,-1.81,0.06,954.62
23.635,-0.40,-3.65,0.07,-0.02,27.87,-5.08,0.01,-1.81,0.06,954.62
23.68,-0.01,-1.35,-0.25,-0.02,27.87,-5.08,0.01,-1.81,0.06,954.62
23.681,-0.01,-1.35,-0.25,-3.84,5.06,-1.37,0.01,-1.81,0.06,954.62
23.689,-0.01,-1.35,-0.25,-3.84,5.06,-1.37,1.35,0.93,0.39,954.62
23.706,-0.01,-1.35,-0.25,-3.84,5.06,-1.37,1.35,0.93,0.39,954.65
23.743,0.15,0.12,-0.26,-3.84,5.06,-1.37,1.35,0.93,0.39,954.65
23.743,0.15,0.12,-0.26,-5.34,-9.37,-1.26,1.35,0.93,0.39,954.65
23.752,0.15,0.12,-0.26,-5.34,-9.37,-1.26,0.69,1.34,0.56,954.65
23.768,0.15,0.12,-0.26,-5.34,-9.37,-1.26,0.69,1.34,0.56,954.65
23.807,-0.01,0.21,-0.26,-5.34,-9.37,-1.26,0.69,1.34,0.56,954.65
23.809,-0.01,0.21,-0.26,-3.72,-10.20,-1.36,0.69,1.34,0.56,954.65
23.815,-0.01,0.21,-0.26,-3.72,-10.20,-1.36,-0.05,0.23,-0.05,954.65
23.84,-0.01,0.21,-0.26,-3.72,-10.20,-1.36,-0.05,0.23,-0.05,954.59
23.868,-0.07,-0.02,-0.09,-3.72,-10.20,-1.36,-0.05,0.23,-0.05,954.59
23.869,-0.07,-0.02,-0.09,-3.16,-7.92,-3.08,-0.05,0.23,-0.05,954.59
23.879,-0.07,-0.02,-0.09,-3.16,-7.92,-3.08,-0.51,-0.91,-0.22,954.59
23.901,-0.07,-0.02,-0.09,-3.16,-7.92,-3.08,-0.51,-0.91,-0.22,954.59
23.933,-0.07,-0.04,-0.01,-3.16,-7.92,-3.08,-0.51,-0.91,-0.22,954.59
23.934,-0.07,-0.04,-0.01,-3.52,-7.63,-3.85,-0.51,-0.91,-0.22,954.59
23.957,-0.07,-0.04,-0.01,-3.52,-7.63,-3.85,-0.60,-1.30,-0.09,954.59
23.97,-0.07,-0.04,-0.01,-3.52,-7.63,-3.85,-0.60,-1.30,-0.09,954.57
23.996,-0.20,-0.74,0.01,-3.52,-7.63,-3.85,-0.60,-1.30,-0.09,954.57
23.998,-0.20,-0.74,0.01,-2.30,-0.64,-4.12,-0.60,-1.30,-0.09,954.57
24.005,-0.20,-0.74,0.01,-2.30,-0.64,-4.12,-0.42,-0.40,-0.18,954.57
24.036,-0.20,-0.74,0.01,-2.30,-0.64,-4.12,-0.42,-0.40,-0.18,954.57
24.06,-0.57,-3.17,0.06,-2.30,-0.64,-4.12,-0.42,-0.40,-0.18,954.57
24.062,-0.57,-3.17,0.06,1.20,23.25,-4.64,-0.42,-0.40,-0.18,954.57
24.069,-0.57,-3.17,0.06,1.20,23.25,-4.64,-0.41,-0.56,0.28,954.57
24.102,-0.57,-3.17,0.06,1.20,23.25,-4.64,-0.41,-0.56,0.28,954.57
24.122,-0.62,-3.41,-0.22,1.20,23.25,-4.64,-0.41,-0.56,0.28,954.57
24.122,-0.62,-3.41,-0.22,1.40,25.74,-1.84,-0.41,-0.56,0.28,954.57
24.133,-0.62,-3.41,-0.22,1.40,25.74,-1.84,0.05,-0.54,0.09,954.57
24.169,-0.62,-3.41,-0.22,1.40,25.74,-1.84,0.05,-0.54,0.09,954.63
24.188,-0.23,-0.70,-0.40,1.40,25.74,-1.84,0.05,-0.54,0.09,954.63
24.189,-0.23,-0.70,-0.40,-2.88,-0.78,0.35,0.05,-0.54,0.09,954.63
24.24,-0.23,-0.70,-0.40,-2.88,-0.78,0.35,0.35,-1.01,0.69,954.63
24.241,-0.23,-0.70,-0.40,-2.88,-0.78,0.35,0.35,-1.01,0.69,954.63
24.25,0.08,0.21,-0.14,-2.88,-0.78,0.35,0.35,-1.01,0.69,954.63
24.25,0.08,0.21,-0.14,-6.25,-9.56,-1.97,0.35,-1.01,0.69,954.63
24.258,0.08,0.21,-0.14,-6.25,-9.56,-1.97,-0.01,-0.27,0.34,954.63
24.301,0.08,0.21,-0.14,-6.25,-9.56,-1.97,-0.01,-0.27,0.34,954.59
24.312,-0.05,0.15,-0.07,-6.25,-9.56,-1.97,-0.01,-0.27,0.34,954.59
24.313,-0.05,0.15,-0.07,-4.74,-8.96,-2.94,-0.01,-0.27,0.34,954.59
24.322,-0.05,0.15,-0.07,-4.74,-8.96,-2.94,-0.27,0.77,-0.33,954.59
24.368,-0.05,0.15,-0.07,-4.74,-8.96,-2.94,-0.27,0.77,-0.33,954.59
24.377,-0.16,-0.02,0.00,-4.74,-8.96,-2.94,-0.27,0.77,-0.33,954.59
24.377,-0.16,-0.02,0.00,-3.44,-7.28,-4.09,-0.27,0.77,-0.33,954.59
24.387,-0.16,-0.02,0.00,-3.44,-7.28,-4.09,-0.51,0.40,-0.24,954.59
24.436,-0.16,-0.02,0.00,-3.44,-7.28,-4.09,-0.51,0.40,-0.24,954.61
24.44,-0.16,-0.02,0.00,-3.79,-7.74,-4.98,-0.51,0.40,-0.24,954.61
24.442,-0.13,0.05,0.07,-3.79,-7.74,-4.98,-0.51,0.40,-0.24,954.61
24.449,-0.13,0.05,0.07,-3.79,-7.74,-4.98,-0.40,-0.07,0.10,954.61
24.502,-0.13,0.05,0.07,-3.79,-7.74,-4.98,-0.40,-0.07,0.10,954.61
24.503,-0.13,0.05,0.07,-2.23,1.89,-3.26,-0.40,-0.07,0.10,954.61
24.504,-0.29,-0.93,-0.10,-2.23,1.89,-3.26,-0.40,-0.07,0.10,954.61
24.512,-0.29,-0.93,-0.10,-2.23,1.89,-3.26,0.02,0.23,-0.01,954.61
24.566,-0.29,-0.93,-0.10,2.47,27.53,-3.60,0.02,0.23,-0.01,954.61
24.569,-0.74,-3.56,-0.09,2.47,27.53,-3.60,0.02,0.23,-0.01,954.61
24.569,-0.74,-3.56,-0.09,2.47,27.53,-3.60,0.02,0.23,-0.01,954.61
24.575,-0.74,-3.56,-0.09,2.47,27.53,-3.60,0.20,1.01,0.05,954.61
24.63,-0.64,-3.05,-0.26,2.47,27.53,-3.60,0.20,1.01,0.05,954.61
24.632,-0.64,-3.05,-0.26,1.47,22.38,-1.73,0.20,1.01,0.05,954.61
24.635,-0.64,-3.05,-0.26,1.47,22.38,-1.73,0.20,1.01,0.05,954.61
24.639,-0.64,-3.05,-0.26,1.47,22.38,-1.73,0.71,-0.05,0.02,954.61
24.692,0.01,-0.62,-0.40,1.47,22.38,-1.73,0.71,-0.05,0.02,954.61
24.694,0.01,-0.62,-0.40,-4.94,-1.57,-0.04,0.71,-0.05,0.02,954.61
24.701,0.01,-0.62,-0.40,-4.94,-1.57,-0.04,0.71,-0.05,0.02,954.61
24.702,0.01,-0.62,-0.40,-4.94,-1.57,-0.04,0.82,0.68,0.59,954.61
24.756,0.12,0.35,-0.22,-4.94,-1.57,-0.04,0.82,0.68,0.59,954.61
24.759,0.12,0.35,-0.22,-6.06,-10.93,-1.91,0.82,0.68,0.59,954.61
24.778,0.12,0.35,-0.22,-6.06,-10.93,-1.91,0.14,0.32,0.25,954.61
24.779,0.12,0.35,-0.22,-6.06,-10.93,-1.91,0.14,0.32,0.25,954.55
24.819,0.04,0.15,-0.08,-6.06,-10.93,-1.91,0.14,0.32,0.25,954.55
24.821,0.04,0.15,-0.08,-5.13,-9.04,-3.36,0.14,0.32,0.25,954.55
24.828,0.04,0.15,-0.08,-5.13,-9.04,-3.36,-0.33,-0.11,-0.43,954.55
24.835,0.04,0.15,-0.08,-5.13,-9.04,-3.36,-0.33,-0.11,-0.43,954.55
24.883,-0.12,-0.05,0.02,-5.13,-9.04,-3.36,-0.33,-0.11,-0.43,954.55
24.884,-0.12,-0.05,0.02,-3.43,-7.09,-4.50,-0.33,-0.11,-0.43,954.55
24.892,-0.12,-0.05,0.02,-3.43,-7.09,-4.50,-0.48,-0.46,-0.61,954.55
24.911,-0.12,-0.05,0.02,-3.43,-7.09,-4.50,-0.48,-0.46,-0.61,954.58
24.946,-0.16,-0.06,0.01,-3.43,-7.09,-4.50,-0.48,-0.46,-0.61,954.58
24.948,-0.16,-0.06,0.01,-2.92,-7.08,-4.41,-0.48,-0.46,-0.61,954.58
24.956,-0.16,-0.06,0.01,-2.92,-7.08,-4.41,-0.24,-0.06,-0.33,954.58
24.968,-0.16,-0.06,0.01,-2.92,-7.08,-4.41,-0.24,-0.06,-0.33,954.58
25.011,-0.34,-1.04,-0.11,-2.92,-7.08,-4.41,-0.24,-0.06,-0.33,954.58
25.013,-0.34,-1.04,-0.11,-1.02,2.58,-3.44,-0.24,-0.06,-0.33,954.58
25.018,-0.34,-1.04,-0.11,-1.02,2.58,-3.44,-0.14,0.61,-0.02,954.58
25.038,-0.34,-1.04,-0.11,-1.02,2.58,-3.44,-0.14,0.61,-0.02,954.60
25.073,-0.56,-3.27,-0.07,-1.02,2.58,-3.44,-0.14,0.61,-0.02,954.60
25.075,-0.56,-3.27,-0.07,0.81,24.69,-3.78,-0.14,0.61,-0.02,954.60
25.082,-0.56,-3.27,-0.07,0.81,24.69,-3.78,-0.29,-0.89,0.78,954.60
25.102,-0.56,-3.27,-0.07,0.81,24.69,-3.78,-0.29,-0.89,0.78,954.60
25.138,-0.56,-3.27,-0.07,0.09,22.31,-4.19,-0.29,-0.89,0.78,954.60
25.14,-0.50,-3.04,0.01,0.09,22.31,-4.19,-0.29,-0.89,0.78,954.60
25.184,-0.50,-3.04,0.01,0.09,22.31,-4.19,0.58,-0.37,-0.56,954.60
25.185,-0.50,-3.04,0.01,0.09,22.31,-4.19,0.58,-0.37,-0.56,954.60
25.2,-0.50,-3.04,0.01,-2.62,-0.89,-0.06,0.58,-0.37,-0.56,954.60
25.201,-0.17,-0.72,-0.39,-2.62,-0.89,-0.06,0.58,-0.37,-0.56,954.60
25.208,-0.17,-0.72,-0.39,-2.62,-0.89,-0.06,1.08,1.16,-0.32,954.60
25.236,-0.17,-0.72,-0.39,-2.62,-0.89,-0.06,1.08,1.16,-0.32,954.57
25.271,-0.02,0.22,-0.31,-2.62,-0.89,-0.06,1.08,1.16,-0.32,954.57
25.272,-0.02,0.22,-0.31,-4.07,-10.18,-0.77,1.08,1.16,-0.32,954.57
25.273,-0.02,0.22,-0.31,-4.07,-10.18,-0.77,0.28,0.11,0.10,954.57
25.301,-0.02,0.22,-0.31,-4.07,-10.18,-0.77,0.28,0.11,0.10,954.57
25.326,-0.02,0.22,-0.31,-3.42,-9.49,-2.48,0.28,0.11,0.10,954.57
25.327,-0.08,0.15,-0.14,-3.42,-9.49,-2.48,0.28,0.11,0.10,954.57
25.339,-0.08,0.15,-0.14,-3.42,-9.49,-2.48,-0.29,-0.02,-0.30,954.57
25.376,-0.08,0.15,-0.14,-3.42,-9.49,-2.48,-0.29,-0.02,-0.30,954.58
25.388,-0.21,-0.02,-0.04,-3.42,-9.49,-2.48,-0.29,-0.02,-0.30,954.58
25.389,-0.21,-0.02,-0.04,-2.00,-7.78,-3.76,-0.29,-0.02,-0.30,954.58
25.398,-0.21,-0.02,-0.04,-2.00,-7.78,-3.76,-0.51,-0.01,-0.34,954.58
25.435,-0.21,-0.02,-0.04,-2.00,-7.78,-3.76,-0.51,-0.01,-0.34,954.58
25.452,-0.21,-0.02,-0.04,-3.03,-6.25,-4.17,-0.51,-0.01,-0.34,954.58
25.453,-0.13,-0.16,-0.00,-3.03,-6.25,-4.17,-0.51,-0.01,-0.34,954.58
25.463,-0.13,-0.16,-0.00,-3.03,-6.25,-4.17,-0.30,-0.52,0.38,954.58
25.509,-0.13,-0.16,-0.00,-3.03,-6.25,-4.17,-0.30,-0.52,0.38,954.62
25.552,-0.15,-1.34,-0.06,-3.03,-6.25,-4.17,-0.30,-0.52,0.38,954.62
25.553,-0.15,-1.34,-0.06,-2.85,5.41,-3.64,-0.30,-0.52,0.38,954.62
25.554,-0.15,-1.34,-0.06,-2.85,5.41,-3.64,-0.02,0.46,0.22,954.62
25.573,-0.15,-1.34,-0.06,-2.85,5.41,-3.64,-0.02,0.46,0.22,954.62
25.58,-0.15,-1.34,-0.06,-0.23,25.45,-4.95,-0.02,0.46,0.22,954.62
25.58,-0.43,-3.38,0.06,-0.23,25.45,-4.95,-0.02,0.46,0.22,954.62
25.588,-0.43,-3.38,0.06,-0.23,25.45,-4.95,-0.38,-0.51,0.02,954.62
25.635,-0.43,-3.38,0.06,-0.23,25.45,-4.95,-0.38,-0.51,0.02,954.62
25.641,-0.42,-2.77,-0.06,-0.23,25.45,-4.95,-0.38,-0.51,0.02,954.62
25.642,-0.42,-2.77,-0.06,-0.40,19.25,-3.36,-0.38,-0.51,0.02,954.62
25.656,-0.42,-2.77,-0.06,-0.40,19.25,-3.36,0.37,-1.35,-0.75,954.62
25.702,-0.42,-2.77,-0.06,-0.40,19.25,-3.36,0.37,-1.35,-0.75,954.68
25.705,-0.06,-0.53,-0.35,-0.40,19.25,-3.36,0.37,-1.35,-0.75,954.68
25.706,-0.06,-0.53,-0.35,-3.81,-2.90,0.01,0.37,-1.35,-0.75,954.68
25.715,-0.06,-0.53,-0.35,-3.81,-2.90,0.01,0.86,0.14,0.06,954.68
25.769,-0.06,-0.53,-0.35,-3.81,-2.90,0.01,0.86,0.14,0.06,954.68
25.77,-0.00,0.23,-0.28,-3.81,-2.90,0.01,0.86,0.14,0.06,954.68
25.77,-0.00,0.23,-0.28,-4.49,-10.41,-0.53,0.86,0.14,0.06,954.68
25.791,-0.00,0.23,-0.28,-4.49,-10.41,-0.53,0.28,-0.03,0.10,954.68
25.833,-0.10,0.23,-0.15,-4.49,-10.41,-0.53,0.28,-0.03,0.10,954.68
25.834,-0.10,0.23,-0.15,-3.33,-10.44,-1.90,0.28,-0.03,0.10,954.68
25.835,-0.10,0.23,-0.15,-3.33,-10.44,-1.90,0.28,-0.03,0.10,954.64
25.841,-0.10,0.23,-0.15,-3.33,-10.44,-1.90,-0.07,0.40,-0.37,954.64
25.896,-0.21,0.10,-0.08,-3.33,-10.44,-1.90,-0.07,0.40,-0.37,954.64
25.897,-0.21,0.10,-0.08,-1.92,-9.21,-2.93,-0.07,0.40,-0.37,954.64
25.902,-0.21,0.10,-0.08,-1.92,-9.21,-2.93,-0.07,0.40,-0.37,954.64
25.905,-0.21,0.10,-0.08,-1.92,-9.21,-2.93,-0.49,0.43,-0.46,954.64
25.96,-0.32,-0.17,-0.09,-1.92,-9.21,-2.93,-0.49,0.43,-0.46,954.64
25.962,-0.32,-0.17,-0.09,-0.74,-6.34,-3.26,-0.49,0.43,-0.46,954.64
25.969,-0.32,-0.17,-0.09,-0.74,-6.34,-3.26,-0.75,0.46,-0.03,954.64
25.97,-0.32,-0.17,-0.09,-0.74,-6.34,-3.26,-0.75,0.46,-0.03,954.63
26.028,-0.32,-0.17,-0.09,0.08,12.08,-4.25,-0.75,0.46,-0.03,954.63
26.03,-0.42,-2.02,-0.03,0.08,12.08,-4.25,-0.75,0.46,-0.03,954.63
26.079,-0.42,-2.02,-0.03,0.08,12.08,-4.25,-0.78,-0.41,0.37,954.63
26.08,-0.42,-2.02,-0.03,0.08,12.08,-4.25,-0.78,-0.41,0.37,954.63
26.087,-0.19,-3.87,0.05,0.08,12.08,-4.25,-0.78,-0.41,0.37,954.63
26.087,-0.19,-3.87,0.05,-2.72,30.34,-4.80,-0.78,-0.41,0.37,954.63
26.095,-0.19,-3.87,0.05,-2.72,30.34,-4.80,-0.11,-1.41,0.10,954.63
26.105,-0.19,-3.87,0.05,-2.72,30.34,-4.80,-0.11,-1.41,0.10,954.66
26.162,0.01,-1.99,-0.16,-2.72,30.34,-4.80,-0.11,-1.41,0.10,954.66
26.163,0.01,-1.99,-0.16,-4.29,11.48,-2.38,-0.11,-1.41,0.10,954.66
26.164,0.01,-1.99,-0.16,-4.29,11.48,-2.38,1.03,1.29,-0.44,954.66
26.169,0.01,-1.99,-0.16,-4.29,11.48,-2.38,1.03,1.29,-0.44,954.66
26.216,-0.01,-0.13,-0.37,-4.29,11.48,-2.38,1.03,1.29,-0.44,954.66
26.217,-0.01,-0.13,-0.37,-3.59,-6.85,-0.48,1.03,1.29,-0.44,954.66
26.221,-0.01,-0.13,-0.37,-3.59,-6.85,-0.48,0.73,1.81,0.23,954.66
26.235,-0.01,-0.13,-0.37,-3.59,-6.85,-0.48,0.73,1.81,0.23,954.66
26.275,0.14,0.20,-0.12,-3.59,-6.85,-0.48,0.73,1.81,0.23,954.66
26.277,0.14,0.20,-0.12,-4.84,-10.14,-3.07,0.73,1.81,0.23,954.66
26.285,0.14,0.20,-0.12,-4.84,-10.14,-3.07,0.33,1.47,0.26,954.66
26.307,0.14,0.20,-0.12,-4.84,-10.14,-3.07,0.33,1.47,0.26,954.62
26.341,0.14,0.20,-0.12,-1.99,-9.58,-2.39,0.33,1.47,0.26,954.62
26.343,-0.12,0.14,-0.21,-1.99,-9.58,-2.39,0.33,1.47,0.26,954.62
26.348,-0.12,0.14,-0.21,-1.99,-9.58,-2.39,0.07,0.58,-0.25,954.62
26.369,-0.12,0.14,-0.21,-1.99,-9.58,-2.39,0.07,0.58,-0.25,954.62
26.402,-0.21,0.03,-0.12,-1.99,-9.58,-2.39,0.07,0.58,-0.25,954.62
26.404,-0.21,0.03,-0.12,-1.04,-8.51,-3.24,0.07,0.58,-0.25,954.62
26.411,-0.21,0.03,-0.12,-1.04,-8.51,-3.24,-0.33,-0.66,-0.36,954.62
26.441,-0.21,0.03,-0.12,-1.04,-8.51,-3.24,-0.33,-0.66,-0.36,954.59
26.475,-0.21,0.03,-0.12,-0.68,-5.86,-3.52,-0.33,-0.66,-0.36,954.59
26.476,-0.27,-0.22,-0.11,-0.68,-5.86,-3.52,-0.33,-0.66,-0.36,954.59
26.476,-0.27,-0.22,-0.11,-0.68,-5.86,-3.52,-0.61,-1.02,0.03,954.59
26.502,-0.27,-0.22,-0.11,-0.68,-5.86,-3.52,-0.61,-1.02,0.03,954.59
26.528,-0.44,-2.40,-0.00,-0.68,-5.86,-3.52,-0.61,-1.02,0.03,954.59
26.529,-0.44,-2.40,-0.00,0.48,15.71,-4.51,-0.61,-1.02,0.03,954.59
26.538,-0.44,-2.40,-0.00,0.48,15.71,-4.51,-0.62,-1.45,0.20,954.59
26.573,-0.44,-2.40,-0.00,0.48,15.71,-4.51,-0.62,-1.45,0.20,954.64
26.609,-0.40,-3.87,0.11,0.48,15.71,-4.51,-0.62,-1.45,0.20,954.64
26.61,-0.40,-3.87,0.11,-0.50,30.18,-5.24,-0.62,-1.45,0.20,954.64
26.61,-0.40,-3.87,0.11,-0.50,30.18,-5.24,-0.04,-1.79,0.01,954.64
26.635,-0.40,-3.87,0.11,-0.50,30.18,-5.24,-0.04,-1.79,0.01,954.64
26.656,-0.40,-3.87,0.11,-4.26,8.77,-1.16,-0.04,-1.79,0.01,954.64
26.657,-0.02,-1.71,-0.25,-4.26,8.77,-1.16,-0.04,-1.79,0.01,954.64
26.666,-0.02,-1.71,-0.25,-4.26,8.77,-1.16,1.22,0.68,0.26,954.64
26.703,-0.02,-1.71,-0.25,-4.26,8.77,-1.16,1.22,0.68,0.26,954.64
26.728,0.41,0.08,-0.28,-4.26,8.77,-1.16,1.22,0.68,0.26,954.64
26.73,0.41,0.08,-0.28,-7.81,-8.98,-1.14,1.22,0.68,0.26,954.64
26.731,0.41,0.08,-0.28,-7.81,-8.98,-1.14,0.65,3.08,-0.32,954.64
26.781,0.41,0.08,-0.28,-7.81,-8.98,-1.14,0.65,3.08,-0.32,954.57
26.783,-0.05,0.11,-0.51,-7.81,-8.98,-1.14,0.65,3.08,-0.32,954.57
26.783,-0.05,0.11,-0.51,-1.53,-9.51,0.40,0.65,3.08,-0.32,954.57
26.793,-0.05,0.11,-0.51,-1.53,-9.51,0.40,0.22,3.71,-1.41,954.57
26.836,-0.05,0.11,-0.51,-1.53,-9.51,0.40,0.22,3.71,-1.41,954.57
26.848,-0.36,0.05,-0.39,-1.53,-9.51,0.40,0.22,3.71,-1.41,954.57
26.849,-0.36,0.05,-0.39,2.15,-8.98,-0.99,0.22,3.71,-1.41,954.57
26.855,-0.36,0.05,-0.39,2.15,-8.98,-0.99,-0.59,-0.58,-0.83,954.57
26.903,-0.36,0.05,-0.39,2.15,-8.98,-0.99,-0.59,-0.58,-0.83,954.54
26.909,-0.23,-0.04,-0.08,2.15,-8.98,-0.99,-0.59,-0.58,-0.83,954.54
26.91,-0.23,-0.04,-0.08,0.23,-7.73,-4.41,-0.59,-0.58,-0.83,954.54
26.921,-0.23,-0.04,-0.08,0.23,-7.73,-4.41,-1.00,-1.90,0.16,954.54
26.969,-0.23,-0.04,-0.08,0.23,-7.73,-4.41,-1.00,-1.90,0.16,954.54
26.972,-0.23,-0.04,-0.08,-1.52,-2.87,-4.44,-1.00,-1.90,0.16,954.54
26.973,-0.14,-0.50,-0.09,-1.52,-2.87,-4.44,-1.00,-1.90,0.16,954.54
26.981,-0.14,-0.50,-0.09,-1.52,-2.87,-4.44,-0.64,-1.73,0.74,954.54
27.036,-0.18,-2.82,0.07,-1.52,-2.87,-4.44,-0.64,-1.73,0.74,954.54
27.038,-0.18,-2.82,0.07,-2.05,20.17,-5.78,-0.64,-1.73,0.74,954.54
27.038,-0.18,-2.82,0.07,-2.05,20.17,-5.78,-0.64,-1.73,0.74,954.57
27.046,-0.18,-2.82,0.07,-2.05,20.17,-5.78,-0.22,-0.94,0.95,954.57
27.099,-0.42,-3.40,-0.19,-2.05,20.17,-5.78,-0.22,-0.94,0.95,954.57
27.106,-0.42,-3.40,-0.19,0.29,25.93,-3.39,-0.22,-0.94,0.95,954.57
27.107,-0.42,-3.40,-0.19,0.29,25.93,-3.39,-0.22,-0.94,0.95,954.57
27.108,-0.42,-3.40,-0.19,0.29,25.93,-3.39,0.20,0.27,0.14,954.57
27.163,-0.07,-1.22,-0.35,0.29,25.93,-3.39,0.20,0.27,0.14,954.57
27.182,-0.07,-1.22,-0.35,-3.20,4.24,-1.36,0.20,0.27,0.14,954.57
27.184,-0.07,-1.22,-0.35,-3.20,4.24,-1.36,0.20,0.27,0.14,954.55
27.184,-0.07,-1.22,-0.35,-3.20,4.24,-1.36,0.85,0.17,0.29,954.55
27.225,0.21,0.12,-0.11,-3.20,4.24,-1.36,0.85,0.17,0.29,954.55
27.226,0.21,0.12,-0.11,-5.93,-8.81,-3.66,0.85,0.17,0.29,954.55
27.234,0.21,0.12,-0.11,-5.93,-8.81,-3.66,0.30,0.73,0.46,954.55
27.235,0.21,0.12,-0.11,-5.93,-8.81,-3.66,0.30,0.73,0.46,954.56
27.289,0.21,0.12,-0.11,-4.20,-8.79,-3.38,0.30,0.73,0.46,954.56
27.29,0.02,0.12,-0.15,-4.20,-8.79,-3.38,0.30,0.73,0.46,954.56
27.298,0.02,0.12,-0.15,-4.20,-8.79,-3.38,0.05,-0.18,0.09,954.56
27.315,0.02,0.12,-0.15,-4.20,-8.79,-3.38,0.05,-0.18,0.09,954.56
27.352,-0.09,-0.03,-0.05,-4.20,-8.79,-3.38,0.05,-0.18,0.09,954.56
27.353,-0.09,-0.03,-0.05,-3.30,-7.36,-4.16,0.05,-0.18,0.09,954.56
27.362,-0.09,-0.03,-0.05,-3.30,-7.36,-4.16,-0.00,-0.80,-0.04,954.56
27.369,-0.09,-0.03,-0.05,-3.30,-7.36,-4.16,-0.00,-0.80,-0.04,954.58
27.416,-0.09,-0.03,-0.05,-2.85,-6.64,-3.69,-0.00,-0.80,-0.04,954.58
27.418,-0.16,-0.10,-0.08,-2.85,-6.64,-3.69,-0.00,-0.80,-0.04,954.58
27.424,-0.16,-0.10,-0.08,-2.85,-6.64,-3.69,0.03,-0.28,0.20,954.58
27.446,-0.16,-0.10,-0.08,-2.85,-6.64,-3.69,0.03,-0.28,0.20,954.58
27.479,-0.16,-0.10,-0.08,-2.78,0.09,-3.09,0.03,-0.28,0.20,954.58
27.481,-0.18,-0.77,-0.15,-2.78,0.09,-3.09,0.03,-0.28,0.20,954.58
27.488,-0.18,-0.77,-0.15,-2.78,0.09,-3.09,-0.11,0.00,0.42,954.58
27.502,-0.18,-0.77,-0.15,-2.78,0.09,-3.09,-0.11,0.00,0.42,954.59
27.542,-0.40,-3.27,0.10,-2.78,0.09,-3.09,-0.11,0.00,0.42,954.59
27.543,-0.40,-3.27,0.10,-1.03,24.67,-5.33,-0.11,0.00,0.42,954.59
27.574,-0.40,-3.27,0.10,-1.03,24.67,-5.33,-0.37,-1.41,0.06,954.59
27.575,-0.40,-3.27,0.10,-1.03,24.67,-5.33,-0.37,-1.41,0.06,954.59
27.605,-0.40,-3.27,0.10,-0.43,24.11,-5.92,-0.37,-1.41,0.06,954.59
27.606,-0.49,-3.24,0.25,-0.43,24.11,-5.92,-0.37,-1.41,0.06,954.59
27.614,-0.49,-3.24,0.25,-0.43,24.11,-5.92,0.35,-2.59,-1.09,954.59
27.635,-0.49,-3.24,0.25,-0.43,24.11,-5.92,0.35,-2.59,-1.09,954.61
27.682,-0.31,-0.55,-0.64,-0.43,24.11,-5.92,0.35,-2.59,-1.09,954.61
27.683,-0.31,-0.55,-0.64,-1.84,-2.70,3.49,0.35,-2.59,-1.09,954.61
27.684,-0.31,-0.55,-0.64,-1.84,-2.70,3.49,0.94,-0.08,-0.68,954.61
27.721,-0.31,-0.55,-0.64,-1.84,-2.70,3.49,0.94,-0.08,-0.68,954.61
27.732,-0.48,0.02,-0.56,-1.84,-2.70,3.49,0.94,-0.08,-0.68,954.61
27.732,-0.48,0.02,-0.56,-0.37,-8.27,2.93,0.94,-0.08,-0.68,954.61
27.745,-0.48,0.02,-0.56,-0.37,-8.27,2.93,-0.54,-1.79,0.28,954.61
27.769,-0.48,0.02,-0.56,-0.37,-8.27,2.93,-0.54,-1.79,0.28,954.61
27.795,-0.05,0.13,0.08,-0.37,-8.27,2.93,-0.54,-1.79,0.28,954.61
27.796,-0.05,0.13,0.08,-5.12,-9.05,-3.29,-0.54,-1.79,0.28,954.61
27.813,-0.05,0.13,0.08,-5.12,-9.05,-3.29,-0.96,-0.91,0.22,954.61
27.86,-0.05,0.13,0.08,-5.12,-9.05,-3.29,-0.96,-0.91,0.22,954.64
27.861,-0.15,0.03,0.10,-5.12,-9.05,-3.29,-0.96,-0.91,0.22,954.64
27.862,-0.15,0.03,0.10,-3.82,-7.99,-4.11,-0.96,-0.91,0.22,954.64
27.869,-0.15,0.03,0.10,-3.82,-7.99,-4.11,-0.36,1.60,-0.25,954.64
27.903,-0.15,0.03,0.10,-3.82,-7.99,-4.11,-0.36,1.60,-0.25,954.64
27.922,-0.15,0.03,0.10,-1.62,-6.84,-4.38,-0.36,1.60,-0.25,954.64
27.923,-0.35,-0.08,0.07,-1.62,-6.84,-4.38,-0.36,1.60,-0.25,954.64
27.932,-0.35,-0.08,0.07,-1.62,-6.84,-4.38,-0.29,1.09,0.28,954.64
27.97,-0.35,-0.08,0.07,-1.62,-6.84,-4.38,-0.29,1.09,0.28,954.66
27.986,-0.35,-0.08,0.07,-1.40,6.61,-4.29,-0.29,1.09,0.28,954.66
27.987,-0.39,-1.43,0.04,-1.40,6.61,-4.29,-0.29,1.09,0.28,954.66
27.997,-0.39,-1.43,0.04,-1.40,6.61,-4.29,-0.12,0.48,0.71,954.66
28.036,-0.39,-1.43,0.04,-1.40,6.61,-4.29,-0.12,0.48,0.71,954.66
28.051,-0.39,-1.43,0.04,-1.22,26.50,-4.39,-0.12,0.48,0.71,954.66
28.052,-0.45,-3.43,0.06,-1.22,26.50,-4.39,-0.12,0.48,0.71,954.66
28.058,-0.45,-3.43,0.06,-1.22,26.50,-4.39,0.13,-0.59,0.67,954.66
28.103,-0.45,-3.43,0.06,-1.22,26.50,-4.39,0.13,-0.59,0.67,954.69
28.112,-0.42,-2.54,0.02,-1.22,26.50,-4.39,0.13,-0.59,0.67,954.69
28.113,-0.42,-2.54,0.02,-1.69,17.56,-3.39,0.13,-0.59,0.67,954.69
28.14,-0.42,-2.54,0.02,-1.69,17.56,-3.39,0.61,-0.86,-0.27,954.69
28.168,-0.42,-2.54,0.02,-1.69,17.56,-3.39,0.61,-0.86,-0.27,954.69
28.174,-0.22,-0.48,-0.30,-1.69,17.56,-3.39,0.61,-0.86,-0.27,954.69
28.175,-0.22,-0.48,-0.30,-3.52,-2.82,-0.16,0.61,-0.86,-0.27,954.69
28.184,-0.22,-0.48,-0.30,-3.52,-2.82,-0.16,0.48,0.67,-0.02,954.69
28.236,-0.22,-0.48,-0.30,-3.52,-2.82,-0.16,0.48,0.67,-0.02,954.69
28.238,-0.14,0.11,-0.23,-3.52,-2.82,-0.16,0.48,0.67,-0.02,954.69
28.239,-0.14,0.11,-0.23,-4.42,-8.39,-0.86,0.48,0.67,-0.02,954.69
28.273,-0.14,0.11,-0.23,-4.42,-8.39,-0.86,-0.03,-0.21,0.36,954.69
28.302,-0.02,0.12,-0.06,-4.42,-8.39,-0.86,-0.03,-0.21,0.36,954.69
28.303,-0.02,0.12,-0.06,-4.42,-8.39,-0.86,-0.03,-0.21,0.36,954.62
28.304,-0.02,0.12,-0.06,-5.74,-8.33,-2.53,-0.03,-0.21,0.36,954.62
28.311,-0.02,0.12,-0.06,-5.74,-8.33,-2.53,-0.20,-0.23,0.16,954.62
28.367,-0.02,0.12,-0.06,-5.06,-7.33,-3.60,-0.20,-0.23,0.16,954.62
28.368,-0.09,0.02,0.05,-5.06,-7.33,-3.60,-0.20,-0.23,0.16,954.62
28.414,-0.09,0.02,0.05,-5.06,-7.33,-3.60,-0.20,-0.23,0.16,954.62
28.415,-0.09,0.02,0.05,-5.06,-7.33,-3.60,-0.14,0.06,-0.11,954.62
28.43,-0.14,-0.03,-0.04,-5.06,-7.33,-3.60,-0.14,0.06,-0.11,954.62
28.431,-0.14,-0.03,-0.04,-4.57,-6.86,-2.96,-0.14,0.06,-0.11,954.62
28.435,-0.14,-0.03,-0.04,-4.57,-6.86,-2.96,-0.14,0.06,-0.11,954.61
28.437,-0.14,-0.03,-0.04,-4.57,-6.86,-2.96,-0.05,0.45,0.09,954.61
28.499,-0.43,-1.54,-0.11,-4.57,-6.86,-2.96,-0.05,0.45,0.09,954.61
28.5,-0.43,-1.54,-0.11,-1.73,7.98,-2.28,-0.05,0.45,0.09,954.61
28.501,-0.43,-1.54,-0.11,-1.73,7.98,-2.28,0.03,0.01,0.17,954.61
28.502,-0.43,-1.54,-0.11,-1.73,7.98,-2.28,0.03,0.01,0.17,954.61
28.556,-0.78,-3.63,0.05,-1.73,7.98,-2.28,0.03,0.01,0.17,954.61
28.557,-0.78,-3.63,0.05,1.46,28.52,-3.57,0.03,0.01,0.17,954.61
28.565,-0.78,-3.63,0.05,1.46,28.52,-3.57,-0.12,-1.15,-0.05,954.61
28.569,-0.78,-3.63,0.05,1.46,28.52,-3.57,-0.12,-1.15,-0.05,954.61
28.619,-0.49,-2.43,0.06,1.46,28.52,-3.57,-0.12,-1.15,-0.05,954.61
28.621,-0.49,-2.43,0.06,-1.36,16.58,-3.30,-0.12,-1.15,-0.05,954.61
28.628,-0.49,-2.43,0.06,-1.36,16.58,-3.30,0.33,-0.08,-0.19,954.61
28.636,-0.49,-2.43,0.06,-1.36,16.58,-3.30,0.33,-0.08,-0.19,954.61
28.682,-0.03,-0.53,-0.26,-1.36,16.58,-3.30,0.33,-0.08,-0.19,954.61
28.685,-0.03,-0.53,-0.26,-5.63,-2.14,-0.41,0.33,-0.08,-0.19,954.61
28.702,-0.03,-0.53,-0.26,-5.63,-2.14,-0.41,0.57,1.33,0.11,954.61
28.703,-0.03,-0.53,-0.26,-5.63,-2.14,-0.41,0.57,1.33,0.11,954.58
28.746,-0.02,0.18,-0.23,-5.63,-2.14,-0.41,0.57,1.33,0.11,954.58
28.747,-0.02,0.18,-0.23,-5.48,-9.11,-0.99,0.57,1.33,0.11,954.58
28.756,-0.02,0.18,-0.23,-5.48,-9.11,-0.99,-0.05,0.65,-0.23,954.58
28.769,-0.02,0.18,-0.23,-5.48,-9.11,-0.99,-0.05,0.65,-0.23,954.58
28.809,0.03,0.18,0.01,-5.48,-9.11,-0.99,-0.05,0.65,-0.23,954.58
28.81,0.03,0.18,0.01,-6.01,-9.10,-3.51,-0.05,0.65,-0.23,954.58
28.818,0.03,0.18,0.01,-6.01,-9.10,-3.51,-0.54,-0.45,-0.21,954.58
28.837,0.03,0.18,0.01,-6.01,-9.10,-3.51,-0.54,-0.45,-0.21,954.58
28.871,-0.09,-0.01,0.10,-6.01,-9.10,-3.51,-0.54,-0.45,-0.21,954.58
28.872,-0.09,-0.01,0.10,-4.80,-7.17,-4.40,-0.54,-0.45,-0.21,954.58
28.881,-0.09,-0.01,0.10,-4.80,-7.17,-4.40,-0.45,-0.42,-0.21,954.58
28.902,-0.09,-0.01,0.10,-4.80,-7.17,-4.40,-0.45,-0.42,-0.21,954.60
28.936,-0.23,-0.04,0.06,-4.80,-7.17,-4.40,-0.45,-0.42,-0.21,954.60
28.937,-0.23,-0.04,0.06,-3.58,-6.86,-4.00,-0.45,-0.42,-0.21,954.60
28.945,-0.23,-0.04,0.06,-3.58,-6.86,-4.00,-0.23,-0.36,0.12,954.60
28.97,-0.23,-0.04,0.06,-3.58,-6.86,-4.00,-0.23,-0.36,0.12,954.60
28.999,-0.36,-1.19,-0.02,-3.58,-6.86,-4.00,-0.23,-0.36,0.12,954.60
29.001,-0.36,-1.19,-0.02,-2.47,4.49,-3.04,-0.23,-0.36,0.12,954.60
29.008,-0.36,-1.19,-0.02,-2.47,4.49,-3.04,0.25,0.03,0.33,954.60
29.036,-0.36,-1.19,-0.02,-2.47,4.49,-3.04,0.25,0.03,0.33,954.60
29.062,-0.69,-3.52,0.04,-2.47,4.49,-3.04,0.25,0.03,0.33,954.60
29.063,-0.69,-3.52,0.04,0.81,27.35,-3.74,0.25,0.03,0.33,954.60
29.082,-0.69,-3.52,0.04,0.81,27.35,-3.74,-0.06,0.06,0.02,954.60
29.102,-0.69,-3.52,0.04,0.81,27.35,-3.74,-0.06,0.06,0.02,954.60
29.125,-0.58,-2.95,0.13,0.81,27.35,-3.74,-0.06,0.06,0.02,954.60
29.125,-0.58,-2.95,0.13,-0.07,21.48,-4.21,-0.06,0.06,0.02,954.60
29.134,-0.58,-2.95,0.13,-0.07,21.48,-4.21,0.57,-0.25,-0.68,954.60
29.169,-0.58,-2.95,0.13,-0.07,21.48,-4.21,0.57,-0.25,-0.68,954.59
29.198,0.02,-0.56,-0.29,-0.07,21.48,-4.21,0.57,-0.25,-0.68,954.59
29.199,0.02,-0.56,-0.29,-5.49,-2.28,-0.25,0.57,-0.25,-0.68,954.59
29.2,0.02,-0.56,-0.29,-5.49,-2.28,-0.25,1.00,1.96,-0.19,954.59
29.236,0.02,-0.56,-0.29,-5.49,-2.28,-0.25,1.00,1.96,-0.19,954.59
29.251,-0.11,0.21,-0.49,-5.49,-2.28,-0.25,1.00,1.96,-0.19,954.59
29.252,-0.11,0.21,-0.49,-3.99,-9.83,1.54,1.00,1.96,-0.19,954.59
29.261,-0.11,0.21,-0.49,-3.99,-9.83,1.54,0.06,0.30,-0.18,954.59
29.303,-0.11,0.21,-0.49,-3.99,-9.83,1.54,0.06,0.30,-0.18,954.59
29.343,-0.11,0.21,-0.49,-4.65,-8.34,-1.97,0.06,0.30,-0.18,954.59
29.345,-0.06,0.06,-0.12,-4.65,-8.34,-1.97,0.06,0.30,-0.18,954.59
29.345,-0.06,0.06,-0.12,-4.65,-8.34,-1.97,-0.59,-1.20,-0.18,954.59
29.369,-0.06,0.06,-0.12,-4.65,-8.34,-1.97,-0.59,-1.20,-0.18,954.56
29.378,-0.13,-0.10,0.04,-4.65,-8.34,-1.97,-0.59,-1.20,-0.18,954.56
29.378,-0.13,-0.10,0.04,-4.02,-6.69,-3.60,-0.59,-1.20,-0.18,954.56
29.388,-0.13,-0.10,0.04,-4.02,-6.69,-3.60,-0.51,-0.57,-0.05,954.56
29.436,-0.13,-0.10,0.04,-4.02,-6.69,-3.60,-0.51,-0.57,-0.05,954.56
29.474,-0.17,0.01,0.03,-4.02,-6.69,-3.60,-0.51,-0.57,-0.05,954.56
29.475,-0.17,0.01,0.03,-3.78,-7.66,-3.48,-0.51,-0.57,-0.05,954.56
29.476,-0.17,0.01,0.03,-3.78,-7.66,-3.48,-0.20,-0.15,0.13,954.56
29.503,-0.17,0.01,0.03,-3.78,-7.66,-3.48,-0.20,-0.15,0.13,954.56
29.505,-0.28,-0.76,-0.03,-3.78,-7.66,-3.48,-0.20,-0.15,0.13,954.56
29.506,-0.28,-0.76,-0.03,-2.71,-0.01,-2.96,-0.20,-0.15,0.13,954.56
29.515,-0.28,-0.76,-0.03,-2.71,-0.01,-2.96,-0.03,0.21,0.15,954.56
29.569,-0.53,-3.25,0.19,-2.71,-0.01,-2.96,-0.03,0.21,0.15,954.56
