time;gFx;gFy;gFz;ax;ay;az;wx;wy;wz;P
0.006;-0,40;0,44;0,92;-0,27;0,52;-0,68;-0,07;0,11;-0,14;0,00
0.02;-0,40;0,44;0,92;-0,51;0,48;-0,19;-0,07;0,11;-0,14;0,00
0.02;-0,40;0,44;0,92;-0,68;0,44;-0,24;-0,07;0,11;-0,14;0,00
0.049;-0,40;0,44;0,92;-0,68;0,44;-0,24;0,14;-0,54;-0,20;0,00
0.06;-0,28;0,45;0,70;-0,68;0,44;-0,24;0,14;-0,54;-0,20;0,00
0.089;-0,28;0,45;0,70;-0,61;0,31;-0,73;0,14;-0,54;-0,20;0,00
0.129;-0,28;0,45;0,70;-0,61;0,31;-0,73;0,19;0,13;-0,32;0,00
0.13;-0,36;0,50;0,85;-0,61;0,31;-0,73;0,19;0,13;-0,32;0,00
0.159;-0,36;0,50;0,85;-0,47;0,42;-0,56;0,19;0,13;-0,32;0,00
0.16;-0,36;0,50;0,85;-0,46;0,37;-0,52;0,19;0,13;-0,32;0,00
0.168;-0,36;0,50;0,85;-0,46;0,37;-0,52;0,22;-0,43;-0,23;0,00
0.199;-0,30;0,51;0,79;-0,46;0,37;-0,52;0,22;-0,43;-0,23;0,00
0.229;-0,30;0,51;0,79;-0,27;0,70;-0,27;0,22;-0,43;-0,23;0,00
0.229;-0,30;0,51;0,79;-0,28;0,55;-0,22;0,22;-0,43;-0,23;0,00
0.249;-0,30;0,51;0,79;-0,28;0,55;-0,22;0,33;-0,28;-0,26;0,00
0.268;-0,27;0,49;0,89;-0,28;0,55;-0,22;0,33;-0,28;-0,26;0,00
0.299;-0,27;0,49;0,89;-0,11;0,37;-0,07;0,33;-0,28;-0,26;0,00
0.3;-0,27;0,49;0,89;-0,18;0,31;-0,08;0,33;-0,28;-0,26;0,00
0.328;-0,27;0,49;0,89;-0,18;0,31;-0,08;0,11;-0,41;-0,20;0,00
0.338;-0,24;0,37;0,92;-0,18;0,31;-0,08;0,11;-0,41;-0,20;0,00
0.369;-0,24;0,37;0,92;-0,18;0,31;-0,08;0,00;-0,50;-0,12;0,00
0.37;-0,24;0,37;0,92;-0,02;-0,24;1,07;0,00;-0,50;-0,12;0,00
0.409;-0,14;0,36;0,88;-0,02;-0,24;1,07;0,00;-0,50;-0,12;0,00
0.439;-0,14;0,36;0,88;0,65;-1,05;-0,05;0,00;-0,50;-0,12;0,00
0.441;-0,14;0,36;0,88;0,62;-1,03;-0,04;0,00;-0,50;-0,12;0,00
0.449;-0,14;0,36;0,88;0,62;-1,03;-0,04;0,08;0,01;-0,23;0,00
0.479;-0,17;0,31;0,93;0,62;-1,03;-0,04;0,08;0,01;-0,23;0,00
0.509;-0,17;0,31;0,93;0,80;-1,31;0,76;0,08;0,01;-0,23;0,00
0.51;-0,17;0,31;0,93;0,85;-1,19;0,72;0,08;0,01;-0,23;0,00
0.54;-0,17;0,31;0,93;0,85;-1,19;0,72;-0,16;0,07;-0,35;0,00
0.549;-0,20;0,31;0,90;0,85;-1,19;0,72;-0,16;0,07;-0,35;0,00
0.568;-0,20;0,31;0,90;0,85;-1,19;0,72;-0,22;0,14;-0,41;0,00
0.579;-0,20;0,31;0,90;1,06;-1,18;0,60;-0,22;0,14;-0,41;0,00
0.58;-0,20;0,31;0,90;1,15;-1,03;0,56;-0,22;0,14;-0,41;0,00
0.619;-0,21;0,39;0,85;1,15;-1,03;0,56;-0,22;0,14;-0,41;0,00
0.649;-0,21;0,39;0,85;1,15;-1,03;0,56;-0,08;0,44;-0,46;0,00
0.652;-0,21;0,39;0,85;0,76;-0,62;0,13;-0,08;0,44;-0,46;0,00
0.689;-0,28;0,41;0,85;0,76;-0,62;0,13;-0,08;0,44;-0,46;0,00
0.719;-0,28;0,41;0,85;0,59;0,08;-0,09;-0,08;0,44;-0,46;0,00
0.721;-0,28;0,41;0,85;0,84;0,14;-0,02;-0,08;0,44;-0,46;0,00
0.728;-0,28;0,41;0,85;0,84;0,14;-0,02;-0,03;0,59;-0,46;0,00
0.759;-0,31;0,42;0,82;0,84;0,14;-0,02;-0,03;0,59;-0,46;0,00
0.769;-0,31;0,42;0,82;0,84;0,14;-0,02;0,01;0,47;-0,46;0,00
0.79;-0,31;0,42;0,82;0,65;0,34;-0,16;0,01;0,47;-0,46;0,00
0.792;-0,31;0,42;0,82;0,84;0,39;-0,09;0,01;0,47;-0,46;0,00
0.829;-0,37;0,46;0,82;0,84;0,39;-0,09;0,01;0,47;-0,46;0,00
0.849;-0,37;0,46;0,82;0,84;0,39;-0,09;0,05;0,51;-0,35;0,00
0.859;-0,37;0,46;0,82;0,88;0,64;0,10;0,05;0,51;-0,35;0,00
0.86;-0,37;0,46;0,82;1,02;0,67;0,16;0,05;0,51;-0,35;0,00
0.899;-0,39;0,45;0,86;1,02;0,67;0,16;0,05;0,51;-0,35;0,00
0.929;-0,39;0,45;0,86;0,18;0,72;0,14;0,05;0,51;-0,35;0,00
0.931;-0,39;0,45;0,86;0,18;0,72;0,14;-0,04;0,25;-0,28;0,00
0.97;-0,46;0,45;0,87;0,18;0,72;0,14;-0,04;0,25;-0,28;0,00
0.972;-0,46;0,45;0,87;0,18;0,72;0,14;0,02;0,26;-0,29;0,00
0.999;-0,46;0,45;0,87;0,22;0,88;0,46;0,02;0,26;-0,29;0,00
1.001;-0,46;0,45;0,87;0,33;0,90;0,49;0,02;0,26;-0,29;0,00
1.039;-0,48;0,33;0,80;0,33;0,90;0,49;0,02;0,26;-0,29;0,00
1.049;-0,48;0,33;0,80;0,33;0,90;0,49;-0,08;0,14;-0,34;0,00
1.07;-0,48;0,33;0,80;0,08;0,46;0,71;-0,08;0,14;-0,34;0,00
1.071;-0,48;0,33;0,80;0,14;0,55;0,68;-0,08;0,14;-0,34;0,00
1.109;-0,55;0,26;0,86;0,14;0,55;0,68;-0,08;0,14;-0,34;0,00
1.129;-0,55;0,26;0,86;0,14;0,55;0,68;-0,25;0,26;-0,26;0,00
1.139;-0,55;0,26;0,86;-0,13;-0,13;-0,56;-0,25;0,26;-0,26;0,00
1.14;-0,55;0,26;0,86;-0,04;-0,00;-0,54;-0,25;0,26;-0,26;0,00
1.17;-0,55;0,26;0,86;-0,04;-0,00;-0,54;-0,18;-0,33;-0,21;0,00
1.179;-0,54;0,20;0,81;-0,04;-0,00;-0,54;-0,18;-0,33;-0,21;0,00
1.209;-0,54;0,20;0,81;-0,93;-1,23;0,87;-0,18;-0,33;-0,21;0,00
1.25;-0,54;0,20;0,81;-0,93;-1,23;0,87;-0,17;0,04;-0,01;0,00
1.252;-0,54;0,21;0,84;-0,93;-1,23;0,87;-0,17;0,04;-0,01;0,00
1.279;-0,54;0,21;0,84;-0,47;-0,83;-0,20;-0,17;0,04;-0,01;0,00
1.28;-0,54;0,21;0,84;-0,46;-0,73;-0,22;-0,17;0,04;-0,01;0,00
1.319;-0,52;0,21;0,79;-0,46;-0,73;-0,22;-0,17;0,04;-0,01;0,00
1.329;-0,52;0,21;0,79;-0,46;-0,73;-0,22;-0,17;-0,22;-0,10;0,00
1.349;-0,52;0,21;0,79;-0,50;-0,78;-0,05;-0,17;-0,22;-0,10;0,00
1.351;-0,52;0,21;0,79;-0,50;-0,72;-0,07;-0,17;-0,22;-0,10;0,00
1.371;-0,52;0,21;0,79;-0,50;-0,72;-0,07;-0,01;0,06;-0,04;0,00
1.388;-0,52;0,24;0,76;-0,50;-0,72;-0,07;-0,01;0,06;-0,04;0,00
1.419;-0,52;0,24;0,76;-0,19;-0,52;-0,48;-0,01;0,06;-0,04;0,00
1.42;-0,52;0,24;0,76;-0,19;-0,50;-0,48;-0,01;0,06;-0,04;0,00
1.449;-0,52;0,24;0,76;-0,19;-0,50;-0,48;0,02;-0,01;-0,07;0,00
1.459;-0,51;0,28;0,72;-0,19;-0,50;-0,48;0,02;-0,01;-0,07;0,00
1.489;-0,51;0,28;0,72;-0,33;-0,17;-0,86;0,02;-0,01;-0,07;0,00
1.529;-0,51;0,28;0,72;-0,33;-0,17;-0,86;-0,00;0,04;-0,07;0,00
1.53;-0,56;0,32;0,75;-0,33;-0,17;-0,86;-0,00;0,04;-0,07;0,00
1.56;-0,56;0,32;0,75;-0,39;0,22;-0,91;-0,00;0,04;-0,07;0,00
1.564;-0,56;0,32;0,75;-0,38;0,23;-0,89;-0,00;0,04;-0,07;0,00
1.569;-0,56;0,32;0,75;-0,38;0,23;-0,89;0,07;-0,01;-0,14;0,00
1.599;-0,59;0,34;0,77;-0,38;0,23;-0,89;0,07;-0,01;-0,14;0,00
1.629;-0,59;0,34;0,77;-0,68;0,58;-0,59;0,07;-0,01;-0,14;0,00
1.631;-0,59;0,34;0,77;-0,64;0,56;-0,55;0,07;-0,01;-0,14;0,00
1.649;-0,59;0,34;0,77;-0,64;0,56;-0,55;0,18;-0,01;-0,24;0,00
1.669;-0,56;0,33;0,82;-0,64;0,56;-0,55;0,18;-0,01;-0,24;0,00
1.699;-0,56;0,33;0,82;-0,91;0,52;-0,21;0,18;-0,01;-0,24;0,00
1.7;-0,56;0,33;0,82;-0,90;0,53;-0,22;0,18;-0,01;-0,24;0,00
1.729;-0,56;0,33;0,82;-0,90;0,53;-0,22;0,10;-0,13;-0,34;0,00
1.739;-0,56;0,22;1,03;-0,90;0,53;-0,22;0,10;-0,13;-0,34;0,00
1.769;-0,56;0,22;1,03;-0,90;0,53;-0,22;-0,06;-0,27;-0,53;0,00
1.77;-0,56;0,22;1,03;-0,44;0,32;1,05;-0,06;-0,27;-0,53;0,00
1.809;-0,42;0,21;0,86;-0,44;0,32;1,05;-0,06;-0,27;-0,53;0,00
1.839;-0,42;0,21;0,86;-0,09;-0,69;1,29;-0,06;-0,27;-0,53;0,00
1.84;-0,42;0,21;0,86;-0,09;-0,58;1,23;-0,06;-0,27;-0,53;0,00
1.851;-0,42;0,21;0,86;-0,09;-0,58;1,23;0,08;-0,00;-0,48;0,00
1.879;-0,39;0,19;0,93;-0,09;-0,58;1,23;0,08;-0,00;-0,48;0,00
1.911;-0,39;0,19;0,93;1,14;-0,16;0,66;0,08;-0,00;-0,48;0,00
1.912;-0,39;0,19;0,93;1,18;-0,11;0,68;0,08;-0,00;-0,48;0,00
1.929;-0,39;0,19;0,93;1,18;-0,11;0,68;0,11;0,07;-0,41;0,00
1.949;-0,40;0,14;0,87;1,18;-0,11;0,68;0,11;0,07;-0,41;0,00
1.968;-0,40;0,14;0,87;1,18;-0,11;0,68;-0,01;-0,02;-0,24;0,00
1.979;-0,40;0,14;0,87;1,25;-0,65;0,62;-0,01;-0,02;-0,24;0,00
1.98;-0,40;0,14;0,87;1,23;-0,58;0,60;-0,01;-0,02;-0,24;0,00
2.019;-0,38;0,20;0,77;1,23;-0,58;0,60;-0,01;-0,02;-0,24;0,00
2.049;-0,38;0,20;0,77;1,23;-0,58;0,60;0,11;-0,17;-0,18;0,00
2.05;-0,38;0,20;0,77;1,14;-0,58;0,18;0,11;-0,17;-0,18;0,00
2.089;-0,42;0,25;0,78;1,14;-0,58;0,18;0,11;-0,17;-0,18;0,00
2.119;-0,42;0,25;0,78;1,00;0,04;-0,82;0,11;-0,17;-0,18;0,00
2.121;-0,42;0,25;0,78;1,00;0,03;-0,78;0,11;-0,17;-0,18;0,00
2.131;-0,42;0,25;0,78;1,00;0,03;-0,78;0,18;0,06;-0,21;0,00
2.159;-0,45;0,28;0,82;1,00;0,03;-0,78;0,18;0,06;-0,21;0,00
2.169;-0,45;0,28;0,82;1,00;0,03;-0,78;0,17;0,10;-0,06;0,00
2.189;-0,45;0,28;0,82;0,74;0,41;-0,34;0,17;0,10;-0,06;0,00
2.19;-0,45;0,28;0,82;0,76;0,36;-0,31;0,17;0,10;-0,06;0,00
2.229;-0,51;0,26;0,87;0,76;0,36;-0,31;0,17;0,10;-0,06;0,00
2.249;-0,51;0,26;0,87;0,76;0,36;-0,31;0,12;0,18;-0,00;0,00
2.261;-0,51;0,26;0,87;0,51;0,47;0,51;0,12;0,18;-0,00;0,00
2.262;-0,51;0,26;0,87;0,56;0,44;0,54;0,12;0,18;-0,00;0,00
2.303;-0,56;0,26;0,89;0,56;0,44;0,54;0,12;0,18;-0,00;0,00
2.329;-0,56;0,26;0,89;0,56;0,44;0,54;0,01;0,21;-0,04;0,00
2.331;-0,56;0,26;0,89;-0,16;0,05;0,42;0,01;0,21;-0,04;0,00
2.368;-0,56;0,26;0,89;-0,16;0,05;0,42;-0,13;0,25;-0,08;0,00
2.37;-0,61;0,12;0,96;-0,16;0,05;0,42;-0,13;0,25;-0,08;0,00
2.398;-0,61;0,12;0,96;-0,48;-0,13;1,52;-0,13;0,25;-0,08;0,00
2.399;-0,61;0,12;0,96;-0,40;-0,06;1,52;-0,13;0,25;-0,08;0,00
2.438;-0,54;0,09;0,80;-0,40;-0,06;1,52;-0,13;0,25;-0,08;0,00
2.448;-0,54;0,09;0,80;-0,40;-0,06;1,52;-0,19;0,04;-0,03;0,00
2.468;-0,54;0,09;0,80;-0,23;-1,36;0,64;-0,19;0,04;-0,03;0,00
2.469;-0,54;0,09;0,80;-0,20;-1,30;0,64;-0,19;0,04;-0,03;0,00
2.508;-0,61;0,08;0,80;-0,20;-1,30;0,64;-0,19;0,04;-0,03;0,00
2.528;-0,61;0,08;0,80;-0,20;-1,30;0,64;-0,22;0,08;0,23;0,00
2.538;-0,61;0,08;0,80;-0,36;-1,22;0,09;-0,22;0,08;0,23;0,00
2.539;-0,61;0,08;0,80;-0,41;-1,17;0,04;-0,22;0,08;0,23;0,00
2.569;-0,61;0,08;0,80;-0,41;-1,17;0,04;-0,22;0,20;0,16;0,00
2.578;-0,50;0,10;0,75;-0,41;-1,17;0,04;-0,22;0,20;0,16;0,00
2.608;-0,50;0,10;0,75;0,24;-1,15;-0,57;-0,22;0,20;0,16;0,00
2.649;-0,50;0,10;0,75;0,24;-1,15;-0,57;0,07;0,31;-0,01;0,00
2.651;-0,60;0,19;0,68;0,24;-1,15;-0,57;0,07;0,31;-0,01;0,00
2.679;-0,60;0,19;0,68;0,12;-0,62;-0,48;0,07;0,31;-0,01;0,00
2.681;-0,60;0,19;0,68;0,14;-0,63;-0,45;0,07;0,31;-0,01;0,00
2.729;-0,58;0,21;0,68;0,14;-0,63;-0,45;0,07;0,31;-0,01;0,00
2.731;-0,58;0,21;0,68;0,14;-0,63;-0,45;0,14;-0,18;-0,02;0,00
2.75;-0,58;0,21;0,68;-0,28;0,08;-1,27;0,14;-0,18;-0,02;0,00
2.752;-0,58;0,21;0,68;-0,27;0,02;-1,23;0,14;-0,18;-0,02;0,00
2.769;-0,58;0,21;0,68;-0,27;0,02;-1,23;0,18;-0,08;-0,05;0,00
2.789;-0,62;0,23;0,69;-0,27;0,02;-1,23;0,18;-0,08;-0,05;0,00
2.819;-0,62;0,23;0,69;-0,23;0,03;-1,23;0,18;-0,08;-0,05;0,00
2.822;-0,62;0,23;0,69;-0,29;0,03;-1,25;0,18;-0,08;-0,05;0,00
2.85;-0,62;0,23;0,69;-0,29;0,03;-1,25;0,10;-0,35;-0,13;0,00
2.859;-0,64;0,28;0,76;-0,29;0,03;-1,25;0,10;-0,35;-0,13;0,00
2.889;-0,64;0,28;0,76;-0,93;0,44;-0,48;0,10;-0,35;-0,13;0,00
2.929;-0,66;0,27;0,81;-0,93;0,44;-0,48;0,10;-0,35;-0,13;0,00
2.93;-0,66;0,27;0,81;-0,93;0,44;-0,48;0,09;-0,18;-0,09;0,00
2.96;-0,66;0,27;0,81;-0,97;0,56;-0,32;0,09;-0,18;-0,09;0,00
2.961;-0,66;0,27;0,81;-0,96;0,51;-0,31;0,09;-0,18;-0,09;0,00
2.978;-0,66;0,27;0,81;-0,96;0,51;-0,31;0,14;-0,08;-0,06;0,00
2.998;-0,65;0,19;1,04;-0,96;0,51;-0,31;0,14;-0,08;-0,06;0,00
3.029;-0,65;0,19;1,04;-0,99;0,45;0,79;0,14;-0,08;-0,06;0,00
3.03;-0,65;0,19;1,04;-1,06;0,48;0,71;0,14;-0,08;-0,06;0,00
3.048;-0,65;0,19;1,04;-1,06;0,48;0,71;-0,01;-0,36;-0,15;0,00
3.069;-0,50;0,11;0,91;-1,06;0,48;0,71;-0,01;-0,36;-0,15;0,00
3.098;-0,50;0,11;0,91;-0,77;-0,95;1,82;-0,01;-0,36;-0,15;0,00
3.099;-0,50;0,11;0,91;-0,78;-0,93;1,78;-0,01;-0,36;-0,15;0,00
3.128;-0,50;0,11;0,91;-0,78;-0,93;1,78;0,09;-0,06;-0,13;0,00
3.139;-0,43;0,15;0,94;-0,78;-0,93;1,78;0,09;-0,06;-0,13;0,00
3.169;-0,43;0,15;0,94;-0,78;-0,93;1,78;0,18;0,09;-0,17;0,00
3.17;-0,43;0,15;0,94;0,62;-0,80;1,34;0,18;0,09;-0,17;0,00
3.209;-0,43;0,14;0,80;0,62;-0,80;1,34;0,18;0,09;-0,17;0,00
3.239;-0,43;0,14;0,80;1,18;-0,75;0,26;0,18;0,09;-0,17;0,00
3.241;-0,43;0,14;0,80;1,19;-0,71;0,27;0,18;0,09;-0,17;0,00
3.249;-0,43;0,14;0,80;1,19;-0,71;0,27;0,08;0,04;-0,24;0,00
3.279;-0,46;0,19;0,71;1,19;-0,71;0,27;0,08;0,04;-0,24;0,00
3.309;-0,46;0,19;0,71;0,90;-0,53;-0,38;0,08;0,04;-0,24;0,00
3.311;-0,46;0,19;0,71;0,89;-0,51;-0,37;0,08;0,04;-0,24;0,00
3.329;-0,46;0,19;0,71;0,89;-0,51;-0,37;0,11;-0,04;-0,21;0,00
3.349;-0,46;0,24;0,72;0,89;-0,51;-0,37;0,11;-0,04;-0,21;0,00
3.369;-0,46;0,24;0,72;0,89;-0,51;-0,37;0,03;-0,04;-0,09;0,00
3.382;-0,46;0,24;0,72;0,70;0,08;-1,19;0,03;-0,04;-0,09;0,00
3.383;-0,46;0,24;0,72;0,69;0,08;-1,18;0,03;-0,04;-0,09;0,00
3.419;-0,45;0,25;0,76;0,69;0,08;-1,18;0,03;-0,04;-0,09;0,00
3.449;-0,45;0,25;0,76;0,63;0,40;-0,65;0,03;-0,04;-0,09;0,00
3.45;-0,45;0,25;0,76;0,63;0,40;-0,65;-0,03;-0,05;-0,01;0,00
3.489;-0,55;0,27;0,79;0,63;0,40;-0,65;-0,03;-0,05;-0,01;0,00
3.52;-0,55;0,27;0,79;0,39;0,52;-0,39;-0,03;-0,05;-0,01;0,00
3.523;-0,55;0,27;0,79;0,44;0,51;-0,34;-0,03;-0,05;-0,01;0,00
3.528;-0,55;0,27;0,79;0,44;0,51;-0,34;-0,03;0,21;0,02;0,00
3.559;-0,63;0,29;0,78;0,44;0,51;-0,34;-0,03;0,21;0,02;0,00
3.569;-0,63;0,29;0,78;0,44;0,51;-0,34;-0,13;0,29;-0,10;0,00
3.59;-0,63;0,29;0,78;-0,12;0,75;-0,58;-0,13;0,29;-0,10;0,00
3.592;-0,63;0,29;0,78;-0,01;0,80;-0,52;-0,13;0,29;-0,10;0,00
3.628;-0,63;0,26;0,88;-0,01;0,80;-0,52;-0,13;0,29;-0,10;0,00
3.648;-0,63;0,26;0,88;-0,01;0,80;-0,52;-0,03;0,30;-0,01;0,00
3.659;-0,63;0,26;0,88;-0,93;0,89;0,73;-0,03;0,30;-0,01;0,00
3.662;-0,63;0,26;0,88;-0,80;0,89;0,80;-0,03;0,30;-0,01;0,00
3.699;-0,67;0,10;0,85;-0,80;0,89;0,80;-0,03;0,30;-0,01;0,00
3.73;-0,67;0,10;0,85;-0,80;0,89;0,80;-0,44;0,29;-0,27;0,00
3.732;-0,67;0,10;0,85;-0,43;0,07;0,68;-0,44;0,29;-0,27;0,00
3.768;-0,67;0,10;0,85;-0,43;0,07;0,68;-0,43;-0,03;-0,17;0,00
3.769;-0,66;0,05;0,93;-0,43;0,07;0,68;-0,43;-0,03;-0,17;0,00
3.798;-0,66;0,05;0,93;-1,04;-0,89;1,18;-0,43;-0,03;-0,17;0,00
3.8;-0,66;0,05;0,93;-1,04;-0,73;1,12;-0,43;-0,03;-0,17;0,00
3.839;-0,54;0,05;0,74;-1,04;-0,73;1,12;-0,43;-0,03;-0,17;0,00
3.849;-0,54;0,05;0,74;-1,04;-0,73;1,12;-0,17;-0,27;0,06;0,00
3.869;-0,54;0,05;0,74;-0,00;-0,73;0,46;-0,17;-0,27;0,06;0,00
3.871;-0,54;0,05;0,74;-0,08;-0,68;0,39;-0,17;-0,27;0,06;0,00
3.908;-0,60;0,06;0,60;-0,08;-0,68;0,39;-0,17;-0,27;0,06;0,00
3.928;-0,60;0,06;0,60;-0,08;-0,68;0,39;-0,24;-0,02;0,27;0,00
3.938;-0,60;0,06;0,60;0,21;-0,81;-1,60;-0,24;-0,02;0,27;0,00
3.939;-0,60;0,06;0,60;0,21;-0,81;-1,57;-0,24;-0,02;0,27;0,00
3.968;-0,60;0,06;0,60;0,21;-0,81;-1,57;-0,11;-0,09;0,32;0,00
3.983;-0,56;0,17;0,62;0,21;-0,81;-1,57;-0,11;-0,09;0,32;0,00
4.009;-0,56;0,17;0,62;-0,27;-0,20;-1,90;-0,11;-0,09;0,32;0,00
4.048;-0,56;0,17;0,62;-0,27;-0,20;-1,90;-0,02;-0,04;0,16;0,00
4.05;-0,59;0,20;0,61;-0,27;-0,20;-1,90;-0,02;-0,04;0,16;0,00
4.079;-0,59;0,20;0,61;0,22;0,71;-2,09;-0,02;-0,04;0,16;0,00
4.081;-0,59;0,20;0,61;0,24;0,68;-2,04;-0,02;-0,04;0,16;0,00
4.118;-0,71;0,21;0,76;0,24;0,68;-2,04;-0,02;-0,04;0,16;0,00
4.128;-0,71;0,21;0,76;0,24;0,68;-2,04;0,04;-0,12;-0,06;0,00
4.148;-0,71;0,21;0,76;-0,66;0,64;-1,16;0,04;-0,12;-0,06;0,00
4.149;-0,71;0,21;0,76;-0,66;0,61;-1,14;0,04;-0,12;-0,06;0,00
4.169;-0,71;0,21;0,76;-0,66;0,61;-1,14;0,12;-0,16;-0,11;0,00
4.189;-0,68;0,20;0,88;-0,66;0,61;-1,14;0,12;-0,16;-0,11;0,00
4.224;-0,68;0,20;0,88;-1,81;0,77;0,18;0,12;-0,16;-0,11;0,00
4.225;-0,68;0,20;0,88;-1,89;0,75;0,10;0,12;-0,16;-0,11;0,00
4.249;-0,68;0,20;0,88;-1,89;0,75;0,10;0,21;-0,23;-0,37;0,00
4.258;-0,69;0,16;1,07;-1,89;0,75;0,10;0,21;-0,23;-0,37;0,00
4.289;-0,69;0,16;1,07;-0,62;0,60;1,33;0,21;-0,23;-0,37;0,00
4.336;-0,69;0,16;1,07;-0,62;0,60;1,33;0,18;0,32;-0,62;0,00
4.337;-0,63;0,06;0,88;-0,62;0,60;1,33;0,18;0,32;-0,62;0,00
4.358;-0,63;0,06;0,88;-1,61;-0,47;2,49;0,18;0,32;-0,62;0,00
4.359;-0,63;0,06;0,88;-1,49;-0,41;2,50;0,18;0,32;-0,62;0,00
4.368;-0,63;0,06;0,88;-1,49;-0,41;2,50;0,09;0,23;-0,40;0,00
4.398;-0,51;0,04;0,97;-1,49;-0,41;2,50;0,09;0,23;-0,40;0,00
4.429;-0,51;0,04;0,97;0,77;-0,42;0,60;0,09;0,23;-0,40;0,00
4.43;-0,51;0,04;0,97;0,86;-0,34;0,66;0,09;0,23;-0,40;0,00
4.449;-0,51;0,04;0,97;0,86;-0,34;0,66;0,06;0,05;-0,35;0,00
4.471;-0,44;0,06;0,77;0,86;-0,34;0,66;0,06;0,05;-0,35;0,00
4.499;-0,44;0,06;0,77;0,83;-0,63;1,08;0,06;0,05;-0,35;0,00
4.5;-0,44;0,06;0,77;0,72;-0,62;0,99;0,06;0,05;-0,35;0,00
4.529;-0,44;0,06;0,77;0,72;-0,62;0,99;0,16;-0,29;-0,18;0,00
4.539;-0,44;0,14;0,58;0,72;-0,62;0,99;0,16;-0,29;-0,18;0,00
4.568;-0,44;0,14;0,58;0,72;-0,62;0,99;0,28;0,51;0,07;0,00
4.57;-0,44;0,14;0,58;1,46;-0,05;-1,43;0,28;0,51;0,07;0,00
4.608;-0,53;0,16;0,68;1,46;-0,05;-1,43;0,28;0,51;0,07;0,00
4.638;-0,53;0,16;0,68;1,42;0,30;-1,64;0,28;0,51;0,07;0,00
4.64;-0,53;0,16;0,68;1,85;0,08;-1,22;0,28;0,51;0,07;0,00
4.648;-0,53;0,16;0,68;1,85;0,08;-1,22;0,60;1,89;0,34;0,00
4.678;-0,68;0,29;0,60;1,85;0,08;-1,22;0,60;1,89;0,34;0,00
4.709;-0,68;0,29;0,60;1,08;0,49;-0,33;0,60;1,89;0,34;0,00
4.712;-0,68;0,29;0,60;1,90;0,15;0,76;0,60;1,89;0,34;0,00
4.728;-0,68;0,29;0,60;1,90;0,15;0,76;0,75;3,66;0,47;0,00
4.748;-1,02;0,25;0,51;1,90;0,15;0,76;0,75;3,66;0,47;0,00
4.768;-1,02;0,25;0,51;1,90;0,15;0,76;0,37;2,35;-0,13;0,00
4.778;-1,02;0,25;0,51;0,34;0,51;1,28;0,37;2,35;-0,13;0,00
4.78;-1,02;0,25;0,51;0,67;0,53;1,97;0,37;2,35;-0,13;0,00
4.819;-1,14;0,21;0,40;0,67;0,53;1,97;0,37;2,35;-0,13;0,00
4.85;-1,14;0,21;0,40;0,67;0,53;1,97;-0,11;-0,96;-0,89;0,00
4.854;-1,14;0,21;0,40;-1,78;0,36;1,14;-0,11;-0,96;-0,89;0,00
4.888;-0,89;-0,01;0,39;-1,78;0,36;1,14;-0,11;-0,96;-0,89;0,00
4.919;-0,89;-0,01;0,39;-1,23;-0,24;-1,20;-0,11;-0,96;-0,89;0,00
4.92;-0,89;-0,01;0,39;-1,43;0,09;-1,70;-0,11;-0,96;-0,89;0,00
4.931;-0,89;-0,01;0,39;-1,43;0,09;-1,70;-0,44;-1,32;-0,64;0,00
4.958;-1,08;-0,12;0,73;-1,43;0,09;-1,70;-0,44;-1,32;-0,64;0,00
4.968;-1,08;-0,12;0,73;-1,43;0,09;-1,70;-0,88;-0,98;0,02;0,00
4.989;-1,08;-0,12;0,73;-1,85;-1,93;0,67;-0,88;-0,98;0,02;0,00
4.989;-1,08;-0,12;0,73;-2,04;-1,72;0,27;-0,88;-0,98;0,02;0,00
5.028;-0,60;0,09;0,49;-2,04;-1,72;0,27;-0,88;-0,98;0,02;0,00
5.049;-0,60;0,09;0,49;-2,04;-1,72;0,27;-0,67;-1,53;0,44;0,00
5.058;-0,60;0,09;0,49;-0,87;-1,22;0,51;-0,67;-1,53;0,44;0,00
5.059;-0,60;0,09;0,49;-1,16;-1,27;0,14;-0,67;-1,53;0,44;0,00
5.099;-0,71;0,21;0,27;-1,16;-1,27;0,14;-0,67;-1,53;0,44;0,00
5.128;-0,71;0,21;0,27;-1,16;-1,27;0,14;-0,03;-0,05;1,03;0,00
5.13;-0,71;0,21;0,27;1,48;0,56;-2,75;-0,03;-0,05;1,03;0,00
5.168;-0,71;0,21;0,27;1,48;0,56;-2,75;-0,39;0,09;1,20;0,00
5.169;-0,80;0,09;0,20;1,48;0,56;-2,75;-0,39;0,09;1,20;0,00
5.199;-0,80;0,09;0,20;0,10;0,38;-3,97;-0,39;0,09;1,20;0,00
5.201;-0,80;0,09;0,20;0,05;0,14;-3,91;-0,39;0,09;1,20;0,00
5.238;-0,79;-0,06;0,24;0,05;0,14;-3,91;-0,39;0,09;1,20;0,00
5.249;-0,79;-0,06;0,24;0,05;0,14;-3,91;-1,18;-0,29;0,57;0,00
5.271;-0,79;-0,06;0,24;-1,11;-1,42;-4,82;-1,18;-0,29;0,57;0,00
5.272;-0,79;-0,06;0,24;-1,25;-1,08;-5,00;-1,18;-0,29;0,57;0,00
5.308;-0,53;-0,16;0,54;-1,25;-1,08;-5,00;-1,18;-0,29;0,57;0,00
5.329;-0,53;-0,16;0,54;-1,25;-1,08;-5,00;-1,93;-0,04;-0,90;0,00
5.338;-0,53;-0,16;0,54;0,83;-1,57;-2,29;-1,93;-0,04;-0,90;0,00
5.339;-0,53;-0,16;0,54;1,14;-0,53;-1,90;-1,93;-0,04;-0,90;0,00
5.368;-0,53;-0,16;0,54;1,14;-0,53;-1,90;-2,69;1,69;-2,39;0,00
5.378;-0,82;-0,51;0,75;1,14;-0,53;-1,90;-2,69;1,69;-2,39;0,00
5.409;-0,82;-0,51;0,75;1,17;-0,97;0,94;-2,69;1,69;-2,39;0,00
5.448;-0,82;-0,51;0,75;1,17;-0,97;0,94;-3,07;1,25;-3,30;0,00
5.449;-0,71;-0,83;0,66;1,17;-0,97;0,94;-3,07;1,25;-3,30;0,00
5.478;-0,71;-0,83;0,66;0,20;-2,78;1,67;-3,07;1,25;-3,30;0,00
5.48;-0,71;-0,83;0,66;-0,10;-1,24;2,61;-3,07;1,25;-3,30;0,00
5.525;-0,83;-0,91;0,63;-0,10;-1,24;2,61;-3,07;1,25;-3,30;0,00
5.529;-0,83;-0,91;0,63;-0,10;-1,24;2,61;-2,75;1,91;-3,28;0,00
5.548;-0,83;-0,91;0,63;-0,84;-2,37;3,77;-2,75;1,91;-3,28;0,00
5.549;-0,83;-0,91;0,63;-1,57;-1,31;4,74;-2,75;1,91;-3,28;0,00
5.568;-0,83;-0,91;0,63;-1,57;-1,31;4,74;-1,70;1,03;-2,70;0,00
5.588;-0,90;-0,83;0,56;-1,57;-1,31;4,74;-1,70;1,03;-2,70;0,00
5.618;-0,90;-0,83;0,56;-3,36;-0,81;4,87;-1,70;1,03;-2,70;0,00
5.62;-0,90;-0,83;0,56;-3,77;-0,48;5,11;-1,70;1,03;-2,70;0,00
5.65;-0,90;-0,83;0,56;-3,77;-0,48;5,11;-0,10;0,56;-0,94;0,00
5.658;-0,79;-0,54;0,48;-3,77;-0,48;5,11;-0,10;0,56;-0,94;0,00
5.688;-0,79;-0,54;0,48;-3,55;1,58;3,86;-0,10;0,56;-0,94;0,00
5.728;-0,79;-0,54;0,48;-3,55;1,58;3,86;0,74;0,04;0,34;0,00
5.73;-0,78;-0,54;0,49;-3,55;1,58;3,86;0,74;0,04;0,34;0,00
5.758;-0,78;-0,54;0,49;-2,74;3,65;3,49;0,74;0,04;0,34;0,00
5.759;-0,78;-0,54;0,49;-2,47;3,40;3,17;0,74;0,04;0,34;0,00
5.77;-0,78;-0,54;0,49;-2,47;3,40;3,17;1,00;0,12;0,99;0,00
5.798;-0,87;-0,85;0,43;-2,47;3,40;3,17;1,00;0,12;0,99;0,00
5.828;-0,87;-0,85;0,43;-2,28;1,32;2,62;1,00;0,12;0,99;0,00
5.83;-0,87;-0,85;0,43;-1,79;0,87;2,30;1,00;0,12;0,99;0,00
5.848;-0,87;-0,85;0,43;-1,79;0,87;2,30;1,31;0,57;1,47;0,00
5.868;-0,86;-1,01;0,30;-1,79;0,87;2,30;1,31;0,57;1,47;0,00
5.898;-0,86;-1,01;0,30;-1,77;-2,44;0,86;1,31;0,57;1,47;0,00
5.9;-0,86;-1,01;0,30;-1,26;-2,95;0,74;1,31;0,57;1,47;0,00
5.928;-0,86;-1,01;0,30;-1,26;-2,95;0,74;1,45;0,93;1,49;0,00
5.938;-0,62;-0,80;0,12;-1,26;-2,95;0,74;1,45;0,93;1,49;0,00
5.968;-0,62;-0,80;0,12;-1,26;-2,95;0,74;1,81;1,28;1,42;0,00
5.97;-0,62;-0,80;0,12;-0,17;-3,59;-0,42;1,81;1,28;1,42;0,00
6.008;-0,59;-0,59;0,27;-0,17;-3,59;-0,42;1,81;1,28;1,42;0,00
6.039;-0,59;-0,59;0,27;2,30;-1,67;-1,26;1,81;1,28;1,42;0,00
6.04;-0,59;-0,59;0,27;2,61;-2,17;-1,13;1,81;1,28;1,42;0,00
6.048;-0,59;-0,59;0,27;2,61;-2,17;-1,13;1,43;0,80;0,89;0,00
6.079;-0,50;-0,44;0,29;2,61;-2,17;-1,13;1,43;0,80;0,89;0,00
6.109;-0,50;-0,44;0,29;2,88;-0,90;0,09;1,43;0,80;0,89;0,00
6.11;-0,50;-0,44;0,29;2,87;-1,13;-0,18;1,43;0,80;0,89;0,00
6.128;-0,50;-0,44;0,29;2,87;-1,13;-0,18;1,43;-0,08;0,21;0,00
6.148;-0,45;-0,35;0,31;2,87;-1,13;-0,18;1,43;-0,08;0,21;0,00
6.168;-0,45;-0,35;0,31;2,87;-1,13;-0,18;1,89;0,44;-0,40;0,00
6.178;-0,45;-0,35;0,31;3,96;0,22;-0,49;1,89;0,44;-0,40;0,00
6.179;-0,45;-0,35;0,31;3,90;0,11;-0,61;1,89;0,44;-0,40;0,00
6.218;-0,72;-0,43;0,25;3,90;0,11;-0,61;1,89;0,44;-0,40;0,00
6.249;-0,72;-0,43;0,25;3,90;0,11;-0,61;2,24;1,49;-1,05;0,00
6.251;-0,72;-0,43;0,25;3,17;0,20;-0,43;2,24;1,49;-1,05;0,00
6.288;-1,05;-0,73;0,16;3,17;0,20;-0,43;2,24;1,49;-1,05;0,00
6.319;-1,05;-0,73;0,16;-0,47;-1,45;-0,87;2,24;1,49;-1,05;0,00
6.32;-1,05;-0,73;0,16;-0,49;-1,34;-0,85;2,24;1,49;-1,05;0,00
6.328;-1,05;-0,73;0,16;-0,49;-1,34;-0,85;2,41;1,20;-1,07;0,00
6.358;-1,23;-0,97;0,14;-0,49;-1,34;-0,85;2,41;1,20;-1,07;0,00
6.369;-1,23;-0,97;0,14;-0,49;-1,34;-0,85;1,51;1,36;-0,36;0,00
6.39;-1,23;-0,97;0,14;-2,86;-4,18;-1,70;1,51;1,36;-0,36;0,00
6.391;-1,23;-0,97;0,14;-2,71;-4,16;-1,43;1,51;1,36;-0,36;0,00
6.428;-0,88;-0,87;0,29;-2,71;-4,16;-1,43;1,51;1,36;-0,36;0,00
6.449;-0,88;-0,87;0,29;-2,71;-4,16;-1,43;0,60;0,55;-0,39;0,00
6.459;-0,88;-0,87;0,29;-2,30;-5,68;-1,33;0,60;0,55;-0,39;0,00
6.459;-0,88;-0,87;0,29;-2,28;-5,50;-1,24;0,60;0,55;-0,39;0,00
6.506;-0,90;-0,54;0,58;-2,28;-5,50;-1,24;0,60;0,55;-0,39;0,00
6.53;-0,90;-0,54;0,58;-2,28;-5,50;-1,24;0,29;-0,15;-0,81;0,00
6.531;-0,90;-0,54;0,58;0,27;-2,30;2,00;0,29;-0,15;-0,81;0,00
6.568;-0,90;-0,54;0,58;0,27;-2,30;2,00;0,01;-0,22;-0,14;0,00
6.57;-0,81;-0,30;0,05;0,27;-2,30;2,00;0,01;-0,22;-0,14;0,00
6.598;-0,81;-0,30;0,05;-1,38;0,74;1,32;0,01;-0,22;-0,14;0,00
6.599;-0,81;-0,30;0,05;-1,38;0,73;1,26;0,01;-0,22;-0,14;0,00
6.638;-0,28;-0,20;0,10;-1,38;0,73;1,26;0,01;-0,22;-0,14;0,00
6.649;-0,28;-0,20;0,10;-1,38;0,73;1,26;0,28;1,38;-0,03;0,00
6.669;-0,28;-0,20;0,10;3,58;2,47;-2,07;0,28;1,38;-0,03;0,00
6.67;-0,28;-0,20;0,10;3,61;2,45;-1,64;0,28;1,38;-0,03;0,00
6.709;-0,62;-0,26;0,13;3,61;2,45;-1,64;0,28;1,38;-0,03;0,00
6.728;-0,62;-0,26;0,13;3,61;2,45;-1,64;-0,09;0,29;-0,49;0,00
6.738;-0,62;-0,26;0,13;4,41;2,98;-1,19;-0,09;0,29;-0,49;0,00
6.739;-0,62;-0,26;0,13;4,18;3,16;-1,25;-0,09;0,29;-0,49;0,00
6.768;-0,62;-0,26;0,13;4,18;3,16;-1,25;-0,63;-0,27;-0,43;0,00
6.778;-1,28;-0,65;0,19;4,18;3,16;-1,25;-0,63;-0,27;-0,43;0,00
6.809;-1,28;-0,65;0,19;-0,56;1,14;-0,27;-0,63;-0,27;-0,43;0,00
6.848;-1,28;-0,65;0,19;-0,56;1,14;-0,27;-1,10;-0,12;0,17;0,00
6.85;-1,26;-0,75;0,15;-0,56;1,14;-0,27;-1,10;-0,12;0,17;0,00
6.883;-1,26;-0,75;0,15;-5,01;-1,56;-0,26;-1,10;-0,12;0,17;0,00
6.885;-1,26;-0,75;0,15;-4,92;-1,53;-0,18;-1,10;-0,12;0,17;0,00
6.918;-0,86;-0,64;0,37;-4,92;-1,53;-0,18;-1,10;-0,12;0,17;0,00
6.928;-0,86;-0,64;0,37;-4,92;-1,53;-0,18;-0,84;-0,82;-0,06;0,00
6.949;-0,86;-0,64;0,37;-2,94;-1,83;1,40;-0,84;-0,82;-0,06;0,00
6.951;-0,86;-0,64;0,37;-2,85;-1,81;1,53;-0,84;-0,82;-0,06;0,00
6.968;-0,86;-0,64;0,37;-2,85;-1,81;1,53;-0,34;0,74;0,22;0,00
6.992;-0,80;-0,73;0,19;-2,85;-1,81;1,53;-0,34;0,74;0,22;0,00
7.018;-0,80;-0,73;0,19;0,74;-1,52;1,59;-0,34;0,74;0,22;0,00
7.019;-0,80;-0,73;0,19;0,69;-1,46;1,47;-0,34;0,74;0,22;0,00
7.048;-0,80;-0,73;0,19;0,69;-1,46;1,47;-0,41;-0,73;-0,08;0,00
7.058;-0,62;-0,33;0,15;0,69;-1,46;1,47;-0,41;-0,73;-0,08;0,00
7.088;-0,62;-0,33;0,15;0,39;-0,38;0,36;-0,41;-0,73;-0,08;0,00
7.128;-0,62;-0,33;0,15;0,39;-0,38;0,36;0,16;-0,07;0,17;0,00
7.129;-0,35;-0,21;0,00;0,39;-0,38;0,36;0,16;-0,07;0,17;0,00
7.158;-0,35;-0,21;0,00;3,84;3,95;-1,14;0,16;-0,07;0,17;0,00
7.16;-0,35;-0,21;0,00;3,77;3,88;-1,19;0,16;-0,07;0,17;0,00
7.168;-0,35;-0,21;0,00;3,77;3,88;-1,19;0,10;0,01;-0,24;0,00
7.198;-0,61;-0,58;0,08;3,77;3,88;-1,19;0,10;0,01;-0,24;0,00
7.229;-0,61;-0,58;0,08;4,60;1,32;-0,10;0,10;0,01;-0,24;0,00
7.23;-0,61;-0,58;0,08;4,52;1,32;-0,01;0,10;0,01;-0,24;0,00
7.248;-0,61;-0,58;0,08;4,52;1,32;-0,01;0,31;-0,11;0,00;0,00
7.268;-1,08;-0,86;-0,04;4,52;1,32;-0,01;0,31;-0,11;0,00;0,00
7.3;-1,08;-0,86;-0,04;-1,55;-1,58;-2,72;0,31;-0,11;0,00;0,00
7.304;-1,08;-0,86;-0,04;-1,52;-1,67;-3,00;0,31;-0,11;0,00;0,00
7.329;-1,08;-0,86;-0,04;-1,52;-1,67;-3,00;-0,07;-1,09;0,37;0,00
7.338;-1,16;-0,98;-0,25;-1,52;-1,67;-3,00;-0,07;-1,09;0,37;0,00
7.368;-1,16;-0,98;-0,25;-1,52;-1,67;-3,00;-0,60;-1,55;0,09;0,00
7.37;-1,16;-0,98;-0,25;-2,46;-3,83;-3,05;-0,60;-1,55;0,09;0,00
7.408;-0,94;-0,66;0,01;-2,46;-3,83;-3,05;-0,60;-1,55;0,09;0,00
7.438;-0,94;-0,66;0,01;-3,31;-3,57;-4,18;-0,60;-1,55;0,09;0,00
7.44;-0,94;-0,66;0,01;-3,19;-3,55;-4,00;-0,60;-1,55;0,09;0,00
7.448;-0,94;-0,66;0,01;-3,19;-3,55;-4,00;-1,70;0,02;0,85;0,00
7.478;-0,94;-0,74;0,28;-3,19;-3,55;-4,00;-1,70;0,02;0,85;0,00
7.508;-0,94;-0,74;0,28;-1,01;-0,84;-0,94;-1,70;0,02;0,85;0,00
7.509;-0,94;-0,74;0,28;-0,91;-0,85;-0,56;-1,70;0,02;0,85;0,00
7.528;-0,94;-0,74;0,28;-0,91;-0,85;-0,56;-2,59;-0,72;0,49;0,00
7.548;-0,50;-0,80;0,27;-0,91;-0,85;-0,56;-2,59;-0,72;0,49;0,00
7.568;-0,50;-0,80;0,27;-0,91;-0,85;-0,56;-2,66;-1,21;0,26;0,00
7.579;-0,50;-0,80;0,27;0,99;-2,49;2,14;-2,66;-1,21;0,26;0,00
7.579;-0,50;-0,80;0,27;0,97;-2,39;2,31;-2,66;-1,21;0,26;0,00
7.618;-0,23;-0,53;0,22;0,97;-2,39;2,31;-2,66;-1,21;0,26;0,00
7.648;-0,23;-0,53;0,22;0,97;-2,39;2,31;-2,22;-0,18;-0,05;0,00
7.649;-0,23;-0,53;0,22;4,32;-1,45;1,54;-2,22;-0,18;-0,05;0,00
7.688;-0,31;-0,58;0,13;4,32;-1,45;1,54;-2,22;-0,18;-0,05;0,00
7.718;-0,31;-0,58;0,13;6,21;1,22;1,09;-2,22;-0,18;-0,05;0,00
7.719;-0,31;-0,58;0,13;6,03;1,33;1,41;-2,22;-0,18;-0,05;0,00
7.728;-0,31;-0,58;0,13;6,03;1,33;1,41;-1,73;-0,12;-0,41;0,00
7.758;-0,44;-1,11;0,12;6,03;1,33;1,41;-1,73;-0,12;-0,41;0,00
7.769;-0,44;-1,11;0,12;6,03;1,33;1,41;-2,08;0,07;-1,62;0,00
7.788;-0,44;-1,11;0,12;3,81;-2,08;1,27;-2,08;0,07;-1,62;0,00
7.789;-0,44;-1,11;0,12;3,30;-1,57;1,79;-2,08;0,07;-1,62;0,00
7.828;-1,02;-1,40;0,55;3,30;-1,57;1,79;-2,08;0,07;-1,62;0,00
7.848;-1,02;-1,40;0,55;3,30;-1,57;1,79;-2,05;-1,94;-2,49;0,00
7.858;-1,02;-1,40;0,55;0,34;-5,08;4,26;-2,05;-1,94;-2,49;0,00
7.859;-1,02;-1,40;0,55;-0,25;-4,48;3,93;-2,05;-1,94;-2,49;0,00
7.898;-1,33;-1,01;0,41;-0,25;-4,48;3,93;-2,05;-1,94;-2,49;0,00
7.928;-1,33;-1,01;0,41;-6,97;-4,74;4,16;-2,05;-1,94;-2,49;0,00
7.929;-1,33;-1,01;0,41;-6,97;-4,74;4,16;-1,90;-5,52;-1,13;0,00
7.968;-1,33;-1,01;0,41;-6,97;-4,74;4,16;-0,20;-3,70;1,37;0,00
7.969;-1,26;-0,74;0,68;-6,97;-4,74;4,16;-0,20;-3,70;1,37;0,00
7.999;-1,26;-0,74;0,68;-6,49;-0,51;4,89;-0,20;-3,70;1,37;0,00
8.0;-1,26;-0,74;0,68;-6,04;-0,88;4,02;-0,20;-3,70;1,37;0,00
8.038;-1,03;-0,44;0,54;-6,04;-0,88;4,02;-0,20;-3,70;1,37;0,00
8.048;-1,03;-0,44;0,54;-6,04;-0,88;4,02;1,46;-2,77;2,53;0,00
8.068;-1,03;-0,44;0,54;-5,22;1,07;4,37;1,46;-2,77;2,53;0,00
8.069;-1,03;-0,44;0,54;-4,84;0,06;2,95;1,46;-2,77;2,53;0,00
8.109;-0,51;-0,31;0,28;-4,84;0,06;2,95;1,46;-2,77;2,53;0,00
8.128;-0,51;-0,31;0,28;-4,84;0,06;2,95;2,72;-2,65;2,94;0,00
8.138;-0,51;-0,31;0,28;-0,12;1,10;-1,50;2,72;-2,65;2,94;0,00
8.139;-0,51;-0,31;0,28;-0,15;-0,43;-2,51;2,72;-2,65;2,94;0,00
8.168;-0,51;-0,31;0,28;-0,15;-0,43;-2,51;2,97;-1,56;2,31;0,00
8.178;-0,43;-0,24;0,24;-0,15;-0,43;-2,51;2,97;-1,56;2,31;0,00
8.208;-0,43;-0,24;0,24;2,57;-1,09;-4,79;2,97;-1,56;2,31;0,00
8.248;-0,52;-0,07;0,35;2,57;-1,09;-4,79;2,97;-1,56;2,31;0,00
8.249;-0,52;-0,07;0,35;2,57;-1,09;-4,79;2,12;-0,43;0,88;0,00
8.279;-0,52;-0,07;0,35;2,45;-1,02;-4,34;2,12;-0,43;0,88;0,00
8.28;-0,52;-0,07;0,35;2,42;-1,64;-4,29;2,12;-0,43;0,88;0,00
8.318;-0,46;-0,19;0,20;2,42;-1,64;-4,29;2,12;-0,43;0,88;0,00
8.328;-0,46;-0,19;0,20;2,42;-1,64;-4,29;1,05;0,94;-0,80;0,00
8.348;-0,46;-0,19;0,20;1,85;-0,86;-4,05;1,05;0,94;-0,80;0,00
8.349;-0,46;-0,19;0,20;2,41;-0,43;-3,34;1,05;0,94;-0,80;0,00
8.368;-0,46;-0,19;0,20;2,41;-0,43;-3,34;-0,39;2,60;-2,59;0,00
8.388;-0,67;-0,75;0,40;2,41;-0,43;-3,34;-0,39;2,60;-2,59;0,00
8.418;-0,67;-0,75;0,40;1,89;-3,31;-1,65;-0,39;2,60;-2,59;0,00
8.419;-0,67;-0,75;0,40;1,90;-1,85;-1,01;-0,39;2,60;-2,59;0,00
8.448;-0,67;-0,75;0,40;1,90;-1,85;-1,01;-1,34;2,90;-4,03;0,00
8.458;-0,36;-1,04;0,04;1,90;-1,85;-1,01;-1,34;2,90;-4,03;0,00
8.488;-0,36;-1,04;0,04;3,71;-3,67;-1,71;-1,34;2,90;-4,03;0,00
8.528;-0,36;-1,04;0,04;3,71;-3,67;-1,71;-1,66;6,35;-4,91;0,00
8.529;-0,54;-1,26;-0,02;3,71;-3,67;-1,71;-1,66;6,35;-4,91;0,00
8.558;-0,54;-1,26;-0,02;3,25;-5,41;-0,27;-1,66;6,35;-4,91;0,00
8.559;-0,54;-1,26;-0,02;1,55;-3,81;1,50;-1,66;6,35;-4,91;0,00
8.568;-0,54;-1,26;-0,02;1,55;-3,81;1,50;-0,90;3,03;-6,23;0,00
8.598;-0,55;-1,31;-0,18;1,55;-3,81;1,50;-0,90;3,03;-6,23;0,00
8.632;-0,55;-1,31;-0,18;-2,12;-3,61;0,55;-0,90;3,03;-6,23;0,00
8.633;-0,55;-1,31;-0,18;-4,14;-3,11;1,01;-0,90;3,03;-6,23;0,00
8.648;-0,55;-1,31;-0,18;-4,14;-3,11;1,01;-1,08;-0,32;-4,87;0,00
8.668;-0,32;-1,32;-0,08;-4,14;-3,11;1,01;-1,08;-0,32;-4,87;0,00
8.698;-0,32;-1,32;-0,08;-4,47;-3,23;1,58;-1,08;-0,32;-4,87;0,00
8.699;-0,32;-1,32;-0,08;-5,18;-3,24;1,70;-1,08;-0,32;-4,87;0,00
8.728;-0,32;-1,32;-0,08;-5,18;-3,24;1,70;-0,27;-1,24;-2,26;0,00
8.738;-0,32;-1,55;-0,08;-5,18;-3,24;1,70;-0,27;-1,24;-2,26;0,00
8.768;-0,32;-1,55;-0,08;-5,18;-3,24;1,70;-0,03;-1,57;-1,04;0,00
8.768;-0,32;-1,55;-0,08;-3,58;-4,20;1,81;-0,03;-1,57;-1,04;0,00
8.809;-0,30;-1,24;0,05;-3,58;-4,20;1,81;-0,03;-1,57;-1,04;0,00
8.838;-0,30;-1,24;0,05;-4,40;-4,99;2,48;-0,03;-1,57;-1,04;0,00
8.839;-0,30;-1,24;0,05;-4,59;-4,96;2,53;-0,03;-1,57;-1,04;0,00
8.848;-0,30;-1,24;0,05;-4,59;-4,96;2,53;0,07;-1,17;-1,08;0,00
8.878;-0,11;-0,93;-0,21;-4,59;-4,96;2,53;0,07;-1,17;-1,08;0,00
8.91;-0,11;-0,93;-0,21;-3,55;-0,54;2,93;0,07;-1,17;-1,08;0,00
8.911;-0,11;-0,93;-0,21;-3,77;-0,51;2,65;0,07;-1,17;-1,08;0,00
8.928;-0,11;-0,93;-0,21;-3,77;-0,51;2,65;0,69;-0,32;-0,81;0,00
8.948;-0,26;-0,96;-0,38;-3,77;-0,51;2,65;0,69;-0,32;-0,81;0,00
8.968;-0,26;-0,96;-0,38;-3,77;-0,51;2,65;0,52;0,42;0,09;0,00
8.979;-0,26;-0,96;-0,38;-3,20;-0,66;-1,17;0,52;0,42;0,09;0,00
8.98;-0,26;-0,96;-0,38;-3,11;-0,59;-1,37;0,52;0,42;0,09;0,00
9.018;-0,49;-0,36;-0,45;-3,11;-0,59;-1,37;0,52;0,42;0,09;0,00
9.048;-0,49;-0,36;-0,45;-3,11;-0,59;-1,37;0,26;-1,78;1,36;0,00
9.049;-0,49;-0,36;-0,45;-4,46;3,32;-2,62;0,26;-1,78;1,36;0,00
9.088;-0,74;-0,69;-0,25;-4,46;3,32;-2,62;0,26;-1,78;1,36;0,00
9.118;-0,74;-0,69;-0,25;-5,80;5,61;-1,36;0,26;-1,78;1,36;0,00
9.119;-0,74;-0,69;-0,25;-4,27;5,52;-1,74;0,26;-1,78;1,36;0,00
9.128;-0,74;-0,69;-0,25;-4,27;5,52;-1,74;0,98;-2,02;3,56;0,00
9.158;-1,41;-1,34;0,12;-4,27;5,52;-1,74;0,98;-2,02;3,56;0,00
9.168;-1,41;-1,34;0,12;-4,27;5,52;-1,74;1,40;-1,90;4,94;0,00
9.19;-1,41;-1,34;0,12;-7,26;0,07;0,42;1,40;-1,90;4,94;0,00
9.192;-1,41;-1,34;0,12;-5,35;-0,72;-0,43;1,40;-1,90;4,94;0,00
9.228;-1,01;-1,66;0,43;-5,35;-0,72;-0,43;1,40;-1,90;4,94;0,00
9.249;-1,01;-1,66;0,43;-5,35;-0,72;-0,43;2,72;-4,03;4,59;0,00
9.258;-1,01;-1,66;0,43;-6,78;-8,31;0,53;2,72;-4,03;4,59;0,00
9.259;-1,01;-1,66;0,43;-5,88;-9,74;-1,40;2,72;-4,03;4,59;0,00
9.299;-1,02;-1,40;0,80;-5,88;-9,74;-1,40;2,72;-4,03;4,59;0,00
9.328;-1,02;-1,40;0,80;-0,33;-10,89;1,93;2,72;-4,03;4,59;0,00
9.33;-1,02;-1,40;0,80;-0,33;-10,89;1,93;4,13;-1,82;3,97;0,00
9.368;-1,02;-1,40;0,80;-0,33;-10,89;1,93;3,58;-1,97;2,98;0,00
9.369;-0,68;-0,93;0,62;-0,33;-10,89;1,93;3,58;-1,97;2,98;0,00
9.398;-0,68;-0,93;0,62;-1,38;-9,87;0,78;3,58;-1,97;2,98;0,00
9.4;-0,68;-0,93;0,62;-1,68;-11,52;-0,04;3,58;-1,97;2,98;0,00
9.438;-0,43;-0,46;0,37;-1,68;-11,52;-0,04;3,58;-1,97;2,98;0,00
9.449;-0,43;-0,46;0,37;-1,68;-11,52;-0,04;2,63;-0,95;2,14;0,00
9.468;-0,43;-0,46;0,37;2,17;-7,57;-2,10;2,63;-0,95;2,14;0,00
9.469;-0,43;-0,46;0,37;1,80;-8,61;-2,19;2,63;-0,95;2,14;0,00
9.508;-0,27;-0,15;0,32;1,80;-8,61;-2,19;2,63;-0,95;2,14;0,00
9.528;-0,27;-0,15;0,32;1,80;-8,61;-2,19;1,81;-1,30;1,12;0,00
9.538;-0,27;-0,15;0,32;3,41;-5,81;-4,00;1,81;-1,30;1,12;0,00
9.539;-0,27;-0,15;0,32;2,81;-6,42;-4,11;1,81;-1,30;1,12;0,00
9.568;-0,27;-0,15;0,32;2,81;-6,42;-4,11;1,54;-0,97;0,77;0,00
9.58;-0,22;0,01;0,34;2,81;-6,42;-4,11;1,54;-0,97;0,77;0,00
9.608;-0,22;0,01;0,34;3,42;-4,38;-4,46;1,54;-0,97;0,77;0,00
9.65;-0,33;0,20;0,50;3,42;-4,38;-4,46;1,54;-0,97;0,77;0,00
9.65;-0,33;0,20;0,50;3,42;-4,38;-4,46;0,95;-0,77;0,54;0,00
9.678;-0,33;0,20;0,50;2,76;-3,24;-3,45;0,95;-0,77;0,54;0,00
9.679;-0,33;0,20;0,50;2,44;-3,51;-3,39;0,95;-0,77;0,54;0,00
9.718;-0,60;0,47;0,77;2,44;-3,51;-3,39;0,95;-0,77;0,54;0,00
9.728;-0,60;0,47;0,77;2,44;-3,51;-3,39;0,52;-0,23;0,34;0,00
9.748;-0,60;0,47;0,77;0,36;-1,89;-0,95;0,52;-0,23;0,34;0,00
9.749;-0,60;0,47;0,77;0,19;-1,99;-0,95;0,52;-0,23;0,34;0,00
9.768;-0,60;0,47;0,77;0,19;-1,99;-0,95;0,18;-0,13;0,27;0,00
9.788;-0,69;0,59;0,98;0,19;-1,99;-0,95;0,18;-0,13;0,27;0,00
9.824;-0,69;0,59;0,98;-1,62;1,10;0,55;0,18;-0,13;0,27;0,00
9.825;-0,69;0,59;0,98;-1,62;1,06;0,54;0,18;-0,13;0,27;0,00
9.848;-0,69;0,59;0,98;-1,62;1,06;0,54;-0,13;-0,11;0,09;0,00
9.859;-0,69;0,36;0,78;-1,62;1,06;0,54;-0,13;-0,11;0,09;0,00
9.888;-0,69;0,36;0,78;-2,82;-0,01;2,66;-0,13;-0,11;0,09;0,00
9.928;-0,69;0,36;0,78;-2,82;-0,01;2,66;-0,80;0,60;-0,38;0,00
9.929;-0,41;0,05;0,28;-2,82;-0,01;2,66;-0,80;0,60;-0,38;0,00
9.958;-0,41;0,05;0,28;-1,01;-2,03;-1,85;-0,80;0,60;-0,38;0,00
9.959;-0,41;0,05;0,28;-0,37;-1,46;-1,70;-0,80;0,60;-0,38;0,00
9.968;-0,41;0,05;0,28;-0,37;-1,46;-1,70;-1,60;3,39;-1,24;0,00
9.998;-0,22;-0,24;0,01;-0,37;-1,46;-1,70;-1,60;3,39;-1,24;0,00
10.028;-0,22;-0,24;0,01;3,68;-4,09;-5,36;-1,60;3,39;-1,24;0,00
10.029;-0,22;-0,24;0,01;5,03;-3,01;-3,97;-1,60;3,39;-1,24;0,00
10.048;-0,22;-0,24;0,01;5,03;-3,01;-3,97;-1,37;5,10;-2,92;0,00
10.068;-0,24;-0,51;-0,02;5,03;-3,01;-3,97;-1,37;5,10;-2,92;0,00
10.103;-0,24;-0,51;-0,02;6,84;-3,96;-3,48;-1,37;5,10;-2,92;0,00
10.104;-0,24;-0,51;-0,02;7,11;-2,10;-1,82;-1,37;5,10;-2,92;0,00
10.128;-0,24;-0,51;-0,02;7,11;-2,10;-1,82;-1,29;4,13;-4,90;0,00
10.138;-0,63;-0,98;0,13;7,11;-2,10;-1,82;-1,29;4,13;-4,90;0,00
10.169;-0,63;-0,98;0,13;7,11;-2,10;-1,82;-1,59;0,57;-6,99;0,00
10.17;-0,63;-0,98;0,13;4,87;-3,16;-0,27;-1,59;0,57;-6,99;0,00
10.208;-0,91;-1,72;-0,06;4,87;-3,16;-0,27;-1,59;0,57;-6,99;0,00
10.238;-0,91;-1,72;-0,06;-0,35;-6,29;0,67;-1,59;0,57;-6,99;0,00
10.239;-0,91;-1,72;-0,06;-2,52;-4,26;1,24;-1,59;0,57;-6,99;0,00
10.248;-0,91;-1,72;-0,06;-2,52;-4,26;1,24;-2,71;0,74;-7,88;0,00
10.278;-1,11;-2,53;-0,23;-2,52;-4,26;1,24;-2,71;0,74;-7,88;0,00
10.308;-1,11;-2,53;-0,23;-7,23;-11,74;-0,28;-2,71;0,74;-7,88;0,00
10.309;-1,11;-2,53;-0,23;-9,96;-11,54;0,96;-2,71;0,74;-7,88;0,00
10.328;-1,11;-2,53;-0,23;-9,96;-11,54;0,96;-2,90;2,75;-6,74;0,00
10.348;-1,10;-1,72;-0,16;-9,96;-11,54;0,96;-2,90;2,75;-6,74;0,00
10.368;-1,10;-1,72;-0,16;-9,96;-11,54;0,96;-0,46;-1,42;-2,86;0,00
10.379;-1,10;-1,72;-0,16;-13,90;-14,09;2,10;-0,46;-1,42;-2,86;0,00
10.38;-1,10;-1,72;-0,16;-14,24;-14,12;2,32;-0,46;-1,42;-2,86;0,00
10.418;-0,54;-1,07;-0,30;-14,24;-14,12;2,32;-0,46;-1,42;-2,86;0,00
10.448;-0,54;-1,07;-0,30;-14,24;-14,12;2,32;0,74;-0,37;0,66;0,00
10.449;-0,54;-1,07;-0,30;-9,79;-4,09;0,05;0,74;-0,37;0,66;0,00
10.491;-0,55;-0,50;-0,00;-9,79;-4,09;0,05;0,74;-0,37;0,66;0,00
10.518;-0,55;-0,50;-0,00;-7,46;1,55;2,33;0,74;-0,37;0,66;0,00
10.519;-0,55;-0,50;-0,00;-6,69;1,73;1,93;0,74;-0,37;0,66;0,00
10.528;-0,55;-0,50;-0,00;-6,69;1,73;1,93;0,96;0,37;1,92;0,00
10.559;-0,46;-0,58;-0,09;-6,69;1,73;1,93;0,96;0,37;1,92;0,00
10.568;-0,46;-0,58;-0,09;-6,69;1,73;1,93;1,32;0,79;2,96;0,00
10.589;-0,46;-0,58;-0,09;-4,69;5,21;1,99;1,32;0,79;2,96;0,00
10.591;-0,46;-0,58;-0,09;-3,51;5,15;1,47;1,32;0,79;2,96;0,00
10.629;-0,74;-1,12;0,07;-3,51;5,15;1,47;1,32;0,79;2,96;0,00
10.648;-0,74;-1,12;0,07;-3,51;5,15;1,47;0,96;0,40;4,30;0,00
10.658;-0,74;-1,12;0,07;-2,68;1,81;0,80;0,96;0,40;4,30;0,00
10.659;-0,74;-1,12;0,07;-0,99;1,17;0,43;0,96;0,40;4,30;0,00
10.699;-0,84;-1,65;-0,00;-0,99;1,17;0,43;0,96;0,40;4,30;0,00
10.729;-0,84;-1,65;-0,00;-1,90;-6,04;1,11;0,96;0,40;4,30;0,00
10.73;-0,84;-1,65;-0,00;-1,90;-6,04;1,11;0,57;-2,62;4,27;0,00
10.769;-0,41;-1,56;-0,10;-1,90;-6,04;1,11;0,57;-2,62;4,27;0,00
10.77;-0,41;-1,56;-0,10;-1,90;-6,04;1,11;0,54;-2,52;3,53;0,00
10.798;-0,41;-1,56;-0,10;0,07;-8,94;-0,93;0,54;-2,52;3,53;0,00
10.799;-0,41;-1,56;-0,10;0,86;-9,85;-1,77;0,54;-2,52;3,53;0,00
10.838;-0,03;-1,32;-0,38;0,86;-9,85;-1,77;0,54;-2,52;3,53;0,00
10.848;-0,03;-1,32;-0,38;0,86;-9,85;-1,77;0,83;-0,17;2,28;0,00
10.868;-0,03;-1,32;-0,38;6,40;-9,28;-3,97;0,83;-0,17;2,28;0,00
10.869;-0,03;-1,32;-0,38;6,67;-9,77;-3,85;0,83;-0,17;2,28;0,00
10.908;-0,14;-0,97;-0,22;6,67;-9,77;-3,85;0,83;-0,17;2,28;0,00
10.928;-0,14;-0,97;-0,22;6,67;-9,77;-3,85;0,12;1,67;-0,20;0,00
10.938;-0,14;-0,97;-0,22;8,19;-7,05;-4,84;0,12;1,67;-0,20;0,00
10.939;-0,14;-0,97;-0,22;7,77;-6,38;-4,21;0,12;1,67;-0,20;0,00
10.968;-0,14;-0,97;-0,22;7,77;-6,38;-4,21;-0,18;0,86;-2,45;0,00
10.978;-0,13;-0,55;-0,17;7,77;-6,38;-4,21;-0,18;0,86;-2,45;0,00
11.008;-0,13;-0,55;-0,17;6,07;-0,90;-1,77;-0,18;0,86;-2,45;0,00
11.048;-0,22;-0,56;-0,07;6,07;-0,90;-1,77;-0,18;0,86;-2,45;0,00
11.049;-0,22;-0,56;-0,07;6,07;-0,90;-1,77;-0,46;0,98;-2,97;0,00
11.078;-0,22;-0,56;-0,07;5,34;2,18;-1,43;-0,46;0,98;-2,97;0,00
11.079;-0,22;-0,56;-0,07;4,31;2,89;-0,91;-0,46;0,98;-2,97;0,00
11.118;-0,54;-1,02;-0,10;4,31;2,89;-0,91;-0,46;0,98;-2,97;0,00
11.128;-0,54;-1,02;-0,10;4,31;2,89;-0,91;-1,12;1,05;-4,05;0,00
11.154;-0,54;-1,02;-0,10;0,99;1,76;0,84;-1,12;1,05;-4,05;0,00
11.156;-0,54;-1,02;-0,10;-0,74;2,30;1,39;-1,12;1,05;-4,05;0,00
11.17;-0,54;-1,02;-0,10;-0,74;2,30;1,39;-2,33;-1,46;-5,49;0,00
11.188;-0,68;-1,65;-0,22;-0,74;2,30;1,39;-2,33;-1,46;-5,49;0,00
11.218;-0,68;-1,65;-0,22;-5,68;-3,46;0,81;-2,33;-1,46;-5,49;0,00
11.219;-0,68;-1,65;-0,22;-7,26;-3,79;1,89;-2,33;-1,46;-5,49;0,00
11.248;-0,68;-1,65;-0,22;-7,26;-3,79;1,89;-2,44;-1,70;-4,35;0,00
11.258;-0,81;-1,71;-0,20;-7,26;-3,79;1,89;-2,44;-1,70;-4,35;0,00
11.289;-0,81;-1,71;-0,20;-8,54;-9,43;2,31;-2,44;-1,70;-4,35;0,00
11.329;-0,81;-1,71;-0,20;-8,54;-9,43;2,31;0,48;-0,48;-0,13;0,00
11.329;-0,51;-1,10;-0,27;-8,54;-9,43;2,31;0,48;-0,48;-0,13;0,00
11.358;-0,51;-1,10;-0,27;-7,86;-4,37;1,13;0,48;-0,48;-0,13;0,00
11.358;-0,51;-1,10;-0,27;-7,37;-4,06;0,71;0,48;-0,48;-0,13;0,00
11.368;-0,51;-1,10;-0,27;-7,37;-4,06;0,71;1,24;1,07;2,03;0,00
11.398;-0,58;-1,13;0,03;-7,37;-4,06;0,71;1,24;1,07;2,03;0,00
11.428;-0,58;-1,13;0,03;-6,60;-1,63;3,05;1,24;1,07;2,03;0,00
11.429;-0,58;-1,13;0,03;-5,60;-1,45;2,44;1,24;1,07;2,03;0,00
11.448;-0,58;-1,13;0,03;-5,60;-1,45;2,44;1,52;1,19;2,91;0,00
11.468;-0,38;-0,86;-0,13;-5,60;-1,45;2,44;1,52;1,19;2,91;0,00
11.498;-0,38;-0,86;-0,13;-2,74;-0,67;1,23;1,52;1,19;2,91;0,00
11.499;-0,38;-0,86;-0,13;-1,49;-0,88;0,75;1,52;1,19;2,91;0,00
11.528;-0,38;-0,86;-0,13;-1,49;-0,88;0,75;1,50;1,03;3,53;0,00
11.538;-0,40;-0,94;-0,03;-1,49;-0,88;0,75;1,50;1,03;3,53;0,00
11.568;-0,40;-0,94;-0,03;-1,49;-0,88;0,75;1,35;1,26;4,03;0,00
11.569;-0,40;-0,94;-0,03;0,70;0,73;0,52;1,35;1,26;4,03;0,00
11.608;-0,43;-1,20;-0,06;0,70;0,73;0,52;1,35;1,26;4,03;0,00
11.638;-0,43;-1,20;-0,06;1,43;-2,28;0,68;1,35;1,26;4,03;0,00
11.639;-0,43;-1,20;-0,06;2,57;-3,20;0,69;1,35;1,26;4,03;0,00
11.649;-0,43;-1,20;-0,06;2,57;-3,20;0,69;0,49;0,84;3,90;0,00
11.678;-0,34;-1,31;-0,06;2,57;-3,20;0,69;0,49;0,84;3,90;0,00
11.709;-0,34;-1,31;-0,06;3,90;-6,39;0,44;0,49;0,84;3,90;0,00
11.711;-0,34;-1,31;-0,06;4,58;-7,33;0,39;0,49;0,84;3,90;0,00
11.736;-0,34;-1,31;-0,06;4,58;-7,33;0,39;-0,45;-0,58;3,06;0,00
11.753;-0,18;-1,17;-0,08;4,58;-7,33;0,39;-0,45;-0,58;3,06;0,00
11.768;-0,18;-1,17;-0,08;4,58;-7,33;0,39;-0,47;-1,45;1,09;0,00
11.778;-0,18;-1,17;-0,08;6,03;-7,51;-0,05;-0,47;-1,45;1,09;0,00
11.779;-0,18;-1,17;-0,08;6,11;-7,70;-0,48;-0,47;-1,45;1,09;0,00
11.818;-0,09;-1,16;-0,16;6,11;-7,70;-0,48;-0,47;-1,45;1,09;0,00
11.848;-0,09;-1,16;-0,16;6,11;-7,70;-0,48;-0,37;-0,78;-1,50;0,00
11.849;-0,09;-1,16;-0,16;7,47;-6,49;-0,80;-0,37;-0,78;-1,50;0,00
11.888;-0,25;-1,24;-0,22;7,47;-6,49;-0,80;-0,37;-0,78;-1,50;0,00
11.918;-0,25;-1,24;-0,22;6,71;-6,34;-2,23;-0,37;-0,78;-1,50;0,00
11.919;-0,25;-1,24;-0,22;5,75;-5,19;-1,81;-0,37;-0,78;-1,50;0,00
11.929;-0,25;-1,24;-0,22;5,75;-5,19;-1,81;-0,51;1,00;-3,67;0,00
11.958;-0,38;-0,95;-0,21;5,75;-5,19;-1,81;-0,51;1,00;-3,67;0,00
11.968;-0,38;-0,95;-0,21;5,75;-5,19;-1,81;-0,48;1,30;-4,87;0,00
11.989;-0,38;-0,95;-0,21;2,51;-3,23;-1,24;-0,48;1,30;-4,87;0,00
11.99;-0,38;-0,95;-0,21;0,76;-2,26;-0,82;-0,48;1,30;-4,87;0,00
12.029;-0,38;-0,93;-0,19;0,76;-2,26;-0,82;-0,48;1,30;-4,87;0,00
12.048;-0,38;-0,93;-0,19;0,76;-2,26;-0,82;-0,57;0,97;-4,90;0,00
12.058;-0,38;-0,93;-0,19;-1,62;1,20;-0,16;-0,57;0,97;-4,90;0,00
12.059;-0,38;-0,93;-0,19;-3,49;1,35;0,13;-0,57;0,97;-4,90;0,00
12.098;-0,60;-1,48;-0,29;-3,49;1,35;0,13;-0,57;0,97;-4,90;0,00
12.129;-0,60;-1,48;-0,29;-6,10;-2,19;0,10;-0,57;0,97;-4,90;0,00
12.131;-0,60;-1,48;-0,29;-6,10;-2,19;0,10;-0,96;0,64;-4,90;0,00
12.168;-0,60;-1,48;-0,29;-6,10;-2,19;0,10;-0,63;-0,68;-3,76;0,00
12.169;-0,75;-1,38;-0,42;-6,10;-2,19;0,10;-0,63;-0,68;-3,76;0,00
12.198;-0,75;-1,38;-0,42;-10,11;-5,87;-1,03;-0,63;-0,68;-3,76;0,00
12.199;-0,75;-1,38;-0,42;-11,07;-6,37;-0,70;-0,63;-0,68;-3,76;0,00
12.238;-0,65;-1,23;-0,39;-11,07;-6,37;-0,70;-0,63;-0,68;-3,76;0,00
12.248;-0,65;-1,23;-0,39;-11,07;-6,37;-0,70;0,40;0,90;0,30;0,00
12.269;-0,65;-1,23;-0,39;-11,04;-4,71;-1,42;0,40;0,90;0,30;0,00
12.269;-0,65;-1,23;-0,39;-10,49;-4,34;-1,79;0,40;0,90;0,30;0,00
12.308;-0,56;-1,23;-0,37;-10,49;-4,34;-1,79;0,40;0,90;0,30;0,00
12.328;-0,56;-1,23;-0,37;-10,49;-4,34;-1,79;0,41;-0,56;2,75;0,00
12.339;-0,56;-1,23;-0,37;-9,08;-1,94;-0,88;0,41;-0,56;2,75;0,00
12.339;-0,56;-1,23;-0,37;-7,61;-1,63;-0,84;0,41;-0,56;2,75;0,00
12.368;-0,56;-1,23;-0,37;-7,61;-1,63;-0,84;0,09;-1,11;3,61;0,00
12.378;-0,42;-1,29;-0,26;-7,61;-1,63;-0,84;0,09;-1,11;3,61;0,00
12.409;-0,42;-1,29;-0,26;-4,38;-3,22;-0,99;0,09;-1,11;3,61;0,00
12.448;-0,43;-1,13;-0,21;-4,38;-3,22;-0,99;0,09;-1,11;3,61;0,00
12.448;-0,43;-1,13;-0,21;-4,38;-3,22;-0,99;0,12;-1,03;4,11;0,00
12.478;-0,43;-1,13;-0,21;-2,10;-2,02;0,20;0,12;-1,03;4,11;0,00
12.478;-0,43;-1,13;-0,21;-0,40;-2,44;-0,02;0,12;-1,03;4,11;0,00
12.519;-0,35;-1,44;-0,19;-0,40;-2,44;-0,02;0,12;-1,03;4,11;0,00
12.529;-0,35;-1,44;-0,19;-0,40;-2,44;-0,02;0,48;-1,50;4,91;0,00
12.548;-0,35;-1,44;-0,19;1,57;-3,82;-0,25;0,48;-1,50;4,91;0,00
12.549;-0,35;-1,44;-0,19;3,22;-5,04;-0,82;0,48;-1,50;4,91;0,00
12.569;-0,35;-1,44;-0,19;3,22;-5,04;-0,82;0,81;-0,92;5,22;0,00
12.588;-0,28;-1,43;-0,20;3,22;-5,04;-0,82;0,81;-0,92;5,22;0,00
12.618;-0,28;-1,43;-0,20;5,17;-9,24;-1,38;0,81;-0,92;5,22;0,00
12.619;-0,28;-1,43;-0,20;5,96;-10,65;-1,64;0,81;-0,92;5,22;0,00
12.648;-0,28;-1,43;-0,20;5,96;-10,65;-1,64;0,61;-0,22;4,00;0,00
12.658;-0,16;-1,19;-0,13;5,96;-10,65;-1,64;0,61;-0,22;4,00;0,00
12.688;-0,16;-1,19;-0,13;7,41;-10,05;-1,15;0,61;-0,22;4,00;0,00
12.728;-0,16;-1,04;-0,08;7,41;-10,05;-1,15;0,61;-0,22;4,00;0,00
12.729;-0,16;-1,04;-0,08;7,41;-10,05;-1,15;0,25;0,52;1,55;0,00
12.758;-0,16;-1,04;-0,08;8,23;-8,14;-0,67;0,25;0,52;1,55;0,00
12.759;-0,16;-1,04;-0,08;8,09;-8,05;-0,48;0,25;0,52;1,55;0,00
12.768;-0,16;-1,04;-0,08;8,09;-8,05;-0,48;-0,27;-0,12;-1,57;0,00
12.799;-0,26;-1,09;-0,10;8,09;-8,05;-0,48;-0,27;-0,12;-1,57;0,00
12.828;-0,26;-1,09;-0,10;7,09;-6,84;0,21;-0,27;-0,12;-1,57;0,00
12.829;-0,26;-1,09;-0,10;6,38;-5,44;0,14;-0,27;-0,12;-1,57;0,00
12.848;-0,26;-1,09;-0,10;6,38;-5,44;0,14;-0,70;-0,21;-4,56;0,00
12.868;-0,38;-1,06;-0,16;6,38;-5,44;0,14;-0,70;-0,21;-4,56;0,00
12.899;-0,38;-1,06;-0,16;4,10;-4,25;-0,51;-0,70;-0,21;-4,56;0,00
12.9;-0,38;-1,06;-0,16;2,23;-2,69;-0,13;-0,70;-0,21;-4,56;0,00
12.928;-0,38;-1,06;-0,16;2,23;-2,69;-0,13;-0,69;0,80;-6,22;0,00
12.938;-0,46;-1,11;-0,24;2,23;-2,69;-0,13;-0,69;0,80;-6,22;0,00
12.968;-0,46;-1,11;-0,24;2,23;-2,69;-0,13;-0,47;2,29;-6,29;0,00
12.968;-0,46;-1,11;-0,24;-0,98;-0,87;-0,09;-0,47;2,29;-6,29;0,00
13.009;-0,67;-1,55;-0,29;-0,98;-0,87;-0,09;-0,47;2,29;-6,29;0,00
13.038;-0,67;-1,55;-0,29;-4,90;-3,31;-1,01;-0,47;2,29;-6,29;0,00
13.04;-0,67;-1,55;-0,29;-7,25;-3,47;-0,87;-0,47;2,29;-6,29;0,00
13.048;-0,67;-1,55;-0,29;-7,25;-3,47;-0,87;-0,45;2,36;-5,52;0,00
13.079;-0,80;-1,37;-0,52;-7,25;-3,47;-0,87;-0,45;2,36;-5,52;0,00
13.11;-0,80;-1,37;-0,52;-11,11;-6,59;-1,04;-0,45;2,36;-5,52;0,00
13.111;-0,80;-1,37;-0,52;-12,06;-7,05;-0,98;-0,45;2,36;-5,52;0,00
13.128;-0,80;-1,37;-0,52;-12,06;-7,05;-0,98;0,25;-0,48;-3,06;0,00
13.148;-0,63;-1,25;-0,57;-12,06;-7,05;-0,98;0,25;-0,48;-3,06;0,00
13.168;-0,63;-1,25;-0,57;-12,06;-7,05;-0,98;0,52;0,58;0,59;0,00
13.178;-0,63;-1,25;-0,57;-11,61;-3,73;-4,04;0,52;0,58;0,59;0,00
13.178;-0,63;-1,25;-0,57;-11,18;-3,47;-4,28;0,52;0,58;0,59;0,00
13.218;-0,55;-1,10;-0,35;-11,18;-3,47;-4,28;0,52;0,58;0,59;0,00
13.25;-0,55;-1,10;-0,35;-11,18;-3,47;-4,28;-0,00;-0,17;2,60;0,00
13.25;-0,55;-1,10;-0,35;-9,89;-2,43;-2,67;-0,00;-0,17;2,60;0,00
13.288;-0,43;-1,44;-0,36;-9,89;-2,43;-2,67;-0,00;-0,17;2,60;0,00
13.318;-0,43;-1,44;-0,36;-6,50;-3,07;-1,83;-0,00;-0,17;2,60;0,00
13.319;-0,43;-1,44;-0,36;-5,06;-2,84;-1,66;-0,00;-0,17;2,60;0,00
13.33;-0,43;-1,44;-0,36;-5,06;-2,84;-1,66;-0,46;0,33;3,64;0,00
13.358;-0,40;-1,24;-0,16;-5,06;-2,84;-1,66;-0,46;0,33;3,64;0,00
13.368;-0,40;-1,24;-0,16;-5,06;-2,84;-1,66;-0,78;0,43;3,81;0,00
13.388;-0,40;-1,24;-0,16;-3,44;-3,84;-0,19;-0,78;0,43;3,81;0,00
13.389;-0,40;-1,24;-0,16;-1,99;-4,07;0,13;-0,78;0,43;3,81;0,00
13.428;-0,31;-1,27;-0,04;-1,99;-4,07;0,13;-0,78;0,43;3,81;0,00
13.448;-0,31;-1,27;-0,04;-1,99;-4,07;0,13;-0,68;-1,27;3,98;0,00
13.458;-0,31;-1,27;-0,04;0,03;-3,18;2,01;-0,68;-1,27;3,98;0,00
13.459;-0,31;-1,27;-0,04;1,57;-3,90;1,87;-0,68;-1,27;3,98;0,00
13.501;-0,25;-1,40;-0,12;1,57;-3,90;1,87;-0,68;-1,27;3,98;0,00
13.529;-0,25;-1,40;-0,12;1,57;-3,90;1,87;-0,14;-1,49;4,25;0,00
13.53;-0,25;-1,40;-0,12;3,99;-5,76;1,61;-0,14;-1,49;4,25;0,00
13.568;-0,25;-1,40;-0,12;3,99;-5,76;1,61;0,44;-1,14;4,23;0,00
13.569;-0,20;-1,45;-0,11;3,99;-5,76;1,61;0,44;-1,14;4,23;0,00
13.598;-0,20;-1,45;-0,11;5,51;-8,02;0,78;0,44;-1,14;4,23;0,00
13.6;-0,20;-1,45;-0,11;6,39;-9,23;0,30;0,44;-1,14;4,23;0,00
13.638;-0,16;-1,34;-0,13;6,39;-9,23;0,30;0,44;-1,14;4,23;0,00
13.648;-0,16;-1,34;-0,13;6,39;-9,23;0,30;0,92;-0,28;3,26;0,00
13.668;-0,16;-1,34;-0,13;7,63;-9,62;0,10;0,92;-0,28;3,26;0,00
13.669;-0,16;-1,34;-0,13;7,87;-10,47;-0,02;0,92;-0,28;3,26;0,00
13.708;-0,26;-1,08;-0,12;7,87;-10,47;-0,02;0,92;-0,28;3,26;0,00
13.728;-0,26;-1,08;-0,12;7,87;-10,47;-0,02;0,77;-0,19;0,94;0,00
13.738;-0,26;-1,08;-0,12;7,35;-9,81;-0,13;0,77;-0,19;0,94;0,00
13.739;-0,26;-1,08;-0,12;7,18;-9,40;-0,45;0,77;-0,19;0,94;0,00
13.768;-0,26;-1,08;-0,12;7,18;-9,40;-0,45;0,34;-0,44;-2,08;0,00
13.783;-0,27;-0,89;-0,20;7,18;-9,40;-0,45;0,34;-0,44;-2,08;0,00
13.808;-0,27;-0,89;-0,20;6,44;-5,73;-1,34;0,34;-0,44;-2,08;0,00
13.848;-0,27;-0,89;-0,20;6,44;-5,73;-1,34;-0,28;0,03;-4,43;0,00
13.849;-0,35;-0,67;-0,17;6,44;-5,73;-1,34;-0,28;0,03;-4,43;0,00
13.879;-0,35;-0,67;-0,17;4,95;-2,23;-1,60;-0,28;0,03;-4,43;0,00
13.881;-0,35;-0,67;-0,17;3,69;-0,77;-1,45;-0,28;0,03;-4,43;0,00
13.918;-0,47;-0,97;-0,17;3,69;-0,77;-1,45;-0,28;0,03;-4,43;0,00
13.929;-0,47;-0,97;-0,17;3,69;-0,77;-1,45;-0,75;-0,25;-5,42;0,00
13.948;-0,47;-0,97;-0,17;1,29;1,13;-0,55;-0,75;-0,25;-5,42;0,00
13.949;-0,47;-0,97;-0,17;-0,66;2,02;-0,28;-0,75;-0,25;-5,42;0,00
13.968;-0,47;-0,97;-0,17;-0,66;2,02;-0,28;-1,07;0,33;-6,04;0,00
13.989;-0,56;-1,62;-0,31;-0,66;2,02;-0,28;-1,07;0,33;-6,04;0,00
14.019;-0,56;-1,62;-0,31;-3,93;-2,72;-0,70;-1,07;0,33;-6,04;0,00
14.021;-0,56;-1,62;-0,31;-6,27;-2,81;-0,26;-1,07;0,33;-6,04;0,00
14.048;-0,56;-1,62;-0,31;-6,27;-2,81;-0,26;-1,03;1,33;-5,80;0,00
14.065;-0,69;-1,74;-0,52;-6,27;-2,81;-0,26;-1,03;1,33;-5,80;0,00
14.089;-0,69;-1,74;-0,52;-9,38;-8,40;-1,67;-1,03;1,33;-5,80;0,00
14.128;-0,69;-1,74;-0,52;-9,38;-8,40;-1,67;-0,21;1,03;-2,94;0,00
14.129;-0,64;-1,32;-0,48;-9,38;-8,40;-1,67;-0,21;1,03;-2,94;0,00
14.158;-0,64;-1,32;-0,48;-11,24;-7,35;-2,99;-0,21;1,03;-2,94;0,00
14.159;-0,64;-1,32;-0,48;-11,47;-7,40;-3,20;-0,21;1,03;-2,94;0,00
14.168;-0,64;-1,32;-0,48;-11,47;-7,40;-3,20;0,17;1,16;0,48;0,00
14.198;-0,56;-1,00;-0,37;-11,47;-7,40;-3,20;0,17;1,16;0,48;0,00
14.228;-0,56;-1,00;-0,37;-10,03;-1,95;-2,72;0,17;1,16;0,48;0,00
14.229;-0,56;-1,00;-0,37;-9,34;-1,65;-2,82;0,17;1,16;0,48;0,00
14.248;-0,56;-1,00;-0,37;-9,34;-1,65;-2,82;-0,50;1,38;2,03;0,00
14.268;-0,45;-1,08;-0,25;-9,34;-1,65;-2,82;-0,50;1,38;2,03;0,00
14.298;-0,45;-1,08;-0,25;-7,79;-1,25;-1,46;-0,50;1,38;2,03;0,00
14.299;-0,45;-1,08;-0,25;-6,70;-1,08;-1,08;-0,50;1,38;2,03;0,00
14.328;-0,45;-1,08;-0,25;-6,70;-1,08;-1,08;-1,11;0,23;2,79;0,00
14.34;-0,39;-1,01;-0,17;-6,70;-1,08;-1,08;-1,11;0,23;2,79;0,00
14.368;-0,39;-1,01;-0,17;-6,70;-1,08;-1,08;-0,93;-2,37;3,57;0,00
14.369;-0,39;-1,01;-0,17;-4,37;-0,70;0,53;-0,93;-2,37;3,57;0,00
14.408;-0,24;-1,24;-0,16;-4,37;-0,70;0,53;-0,93;-2,37;3,57;0,00
14.438;-0,24;-1,24;-0,16;-1,76;-1,13;1,25;-0,93;-2,37;3,57;0,00
14.439;-0,24;-1,24;-0,16;0,03;-1,56;1,19;-0,93;-2,37;3,57;0,00
14.448;-0,24;-1,24;-0,16;0,03;-1,56;1,19;-0,43;-2,23;4,36;0,00
14.478;-0,25;-1,57;-0,19;0,03;-1,56;1,19;-0,43;-2,23;4,36;0,00
14.508;-0,25;-1,57;-0,19;2,69;-5,46;0,84;-0,43;-2,23;4,36;0,00
14.509;-0,25;-1,57;-0,19;4,21;-6,45;0,48;-0,43;-2,23;4,36;0,00
14.528;-0,25;-1,57;-0,19;4,21;-6,45;0,48;-0,00;-1,54;4,69;0,00
14.549;-0,23;-1,62;-0,32;4,21;-6,45;0,48;-0,00;-1,54;4,69;0,00
14.568;-0,23;-1,62;-0,32;4,21;-6,45;0,48;0,07;-0,87;3,79;0,00
14.578;-0,23;-1,62;-0,32;5,11;-10,74;-0,80;0,07;-0,87;3,79;0,00
14.578;-0,23;-1,62;-0,32;5,86;-11,72;-1,05;0,07;-0,87;3,79;0,00
14.618;-0,23;-1,26;-0,32;5,86;-11,72;-1,05;0,07;-0,87;3,79;0,00
14.648;-0,23;-1,26;-0,32;5,86;-11,72;-1,05;0,22;-0,18;1,63;0,00
14.649;-0,23;-1,26;-0,32;6,78;-9,94;-1,32;0,22;-0,18;1,63;0,00
14.688;-0,24;-1,02;-0,34;6,78;-9,94;-1,32;0,22;-0,18;1,63;0,00
14.718;-0,24;-1,02;-0,34;6,48;-6,72;-2,44;0,22;-0,18;1,63;0,00
14.718;-0,24;-1,02;-0,34;6,31;-6,46;-2,47;0,22;-0,18;1,63;0,00
14.728;-0,24;-1,02;-0,34;6,31;-6,46;-2,47;0,18;-0,14;-0,64;0,00
14.758;-0,23;-0,57;-0,22;6,31;-6,46;-2,47;0,18;-0,14;-0,64;0,00
14.768;-0,23;-0,57;-0,22;6,31;-6,46;-2,47;-0,17;-0,48;-2,46;0,00
14.788;-0,23;-0,57;-0,22;5,75;-3,25;-1,39;-0,17;-0,48;-2,46;0,00
14.789;-0,23;-0,57;-0,22;5,11;-2,39;-1,48;-0,17;-0,48;-2,46;0,00
14.828;-0,19;-0,37;-0,09;5,11;-2,39;-1,48;-0,17;-0,48;-2,46;0,00
14.847;-0,19;-0,37;-0,09;5,11;-2,39;-1,48;-0,35;-0,31;-3,15;0,00
14.858;-0,19;-0,37;-0,09;4,73;2,79;-0,41;-0,35;-0,31;-3,15;0,00
14.858;-0,19;-0,37;-0,09;3,71;3,55;-0,34;-0,35;-0,31;-3,15;0,00
14.898;-0,32;-0,95;-0,14;3,71;3,55;-0,34;-0,35;-0,31;-3,15;0,00
14.928;-0,32;-0,95;-0,14;3,71;3,55;-0,34;-0,49;0,55;-4,18;0,00
14.928;-0,32;-0,95;-0,14;2,37;3,22;0,59;-0,49;0,55;-4,18;0,00
14.968;-0,58;-1,72;-0,36;2,37;3,22;0,59;-0,49;0,55;-4,18;0,00
14.969;-0,58;-1,72;-0,36;2,37;3,22;0,59;-0,88;1,37;-5,99;0,00
14.998;-0,58;-1,72;-0,36;-1,70;-3,77;-0,37;-0,88;1,37;-5,99;0,00
14.998;-0,58;-1,72;-0,36;-4,02;-3,44;0,05;-0,88;1,37;-5,99;0,00
15.039;-0,80;-1,80;-0,44;-4,02;-3,44;0,05;-0,88;1,37;-5,99;0,00
15.048;-0,80;-1,80;-0,44;-4,02;-3,44;0,05;-0,78;1,25;-5,23;0,00
15.069;-0,80;-1,80;-0,44;-8,46;-9,71;-1,77;-0,78;1,25;-5,23;0,00
15.07;-0,80;-1,80;-0,44;-9,95;-10,10;-1,66;-0,78;1,25;-5,23;0,00
15.108;-0,36;-1,21;-0,43;-9,95;-10,10;-1,66;-0,78;1,25;-5,23;0,00
15.128;-0,36;-1,21;-0,43;-9,95;-10,10;-1,66;0,47;1,55;-0,32;0,00
15.138;-0,36;-1,21;-0,43;-10,05;-5,66;-1,96;0,47;1,55;-0,32;0,00
15.139;-0,36;-1,21;-0,43;-9,48;-5,31;-2,33;0,47;1,55;-0,32;0,00
15.168;-0,36;-1,21;-0,43;-9,48;-5,31;-2,33;0,03;0,27;2,20;0,00
15.182;-0,58;-1,01;-0,20;-9,48;-5,31;-2,33;0,03;0,27;2,20;0,00
15.208;-0,58;-1,01;-0,20;-6,95;-1,45;-0,90;0,03;0,27;2,20;0,00
15.248;-0,58;-1,01;-0,20;-6,95;-1,45;-0,90;-0,14;-0,84;2,72;0,00
15.249;-0,36;-0,76;-0,25;-6,95;-1,45;-0,90;-0,14;-0,84;2,72;0,00
15.278;-0,36;-0,76;-0,25;-5,52;0,76;-0,30;-0,14;-0,84;2,72;0,00
15.28;-0,36;-0,76;-0,25;-4,27;0,79;-0,23;-0,14;-0,84;2,72;0,00
15.318;-0,31;-0,79;-0,08;-4,27;0,79;-0,23;-0,14;-0,84;2,72;0,00
15.33;-0,31;-0,79;-0,08;-4,27;0,79;-0,23;0,05;-1,14;3,40;0,00
15.348;-0,31;-0,79;-0,08;-2,03;2,51;0,53;0,05;-1,14;3,40;0,00
15.349;-0,31;-0,79;-0,08;-0,50;2,14;0,29;0,05;-1,14;3,40;0,00
15.368;-0,31;-0,79;-0,08;-0,50;2,14;0,29;0,39;-0,55;3,97;0,00
15.388;-0,31;-1,29;-0,12;-0,50;2,14;0,29;0,39;-0,55;3,97;0,00
15.418;-0,31;-1,29;-0,12;2,04;-0,74;0,99;0,39;-0,55;3,97;0,00
15.419;-0,31;-1,29;-0,12;3,14;-1,48;1,12;0,39;-0,55;3,97;0,00
15.448;-0,31;-1,29;-0,12;3,14;-1,48;1,12;-0,23;0,57;3,44;0,00
15.465;-0,37;-1,56;-0,12;3,14;-1,48;1,12;-0,23;0,57;3,44;0,00
15.488;-0,37;-1,56;-0,12;2,61;-7,63;0,60;-0,23;0,57;3,44;0,00
15.528;-0,37;-1,56;-0,12;2,61;-7,63;0,60;-0,42;-1,44;2,65;0,00
15.529;-0,05;-1,41;-0,14;2,61;-7,63;0,60;-0,42;-1,44;2,65;0,00
15.558;-0,05;-1,41;-0,14;4,78;-8,97;0,44;-0,42;-1,44;2,65;0,00
15.558;-0,05;-1,41;-0,14;5,30;-9,42;-0,09;-0,42;-1,44;2,65;0,00
15.571;-0,05;-1,41;-0,14;5,30;-9,42;-0,09;-0,03;-1,67;0,51;0,00
15.598;0,04;-1,18;-0,27;5,30;-9,42;-0,09;-0,03;-1,67;0,51;0,00
15.628;0,04;-1,18;-0,27;8,57;-5,46;-1,19;-0,03;-1,67;0,51;0,00
15.629;0,04;-1,18;-0,27;8,18;-5,04;-1,38;-0,03;-1,67;0,51;0,00
15.648;0,04;-1,18;-0,27;8,18;-5,04;-1,38;-0,24;-0,14;-1,76;0,00
15.668;-0,15;-1,08;-0,26;8,18;-5,04;-1,38;-0,24;-0,14;-1,76;0,00
15.704;-0,15;-1,08;-0,26;6,12;-5,11;-1,81;-0,24;-0,14;-1,76;0,00
15.705;-0,15;-1,08;-0,26;5,07;-4,29;-1,45;-0,24;-0,14;-1,76;0,00
15.728;-0,15;-1,08;-0,26;5,07;-4,29;-1,45;-0,29;0,94;-3,14;0,00
15.738;-0,31;-0,66;-0,19;5,07;-4,29;-1,45;-0,29;0,94;-3,14;0,00
15.768;-0,31;-0,66;-0,19;5,07;-4,29;-1,45;-0,06;0,82;-3,48;0,00
15.769;-0,31;-0,66;-0,19;2,06;0,38;-0,81;-0,06;0,82;-3,48;0,00
15.808;-0,32;-0,79;-0,16;2,06;0,38;-0,81;-0,06;0,82;-3,48;0,00
15.838;-0,32;-0,79;-0,16;0,07;2,83;-0,20;-0,06;0,82;-3,48;0,00
15.839;-0,32;-0,79;-0,16;-1,28;3,10;-0,03;-0,06;0,82;-3,48;0,00
15.848;-0,32;-0,79;-0,16;-1,28;3,10;-0,03;-0,08;1,81;-3,40;0,00
15.878;-0,48;-1,29;-0,24;-1,28;3,10;-0,03;-0,08;1,81;-3,40;0,00
15.909;-0,48;-1,29;-0,24;-3,22;-0,30;0,15;-0,08;1,81;-3,40;0,00
15.909;-0,48;-1,29;-0,24;-4,59;-0,36;0,14;-0,08;1,81;-3,40;0,00
15.928;-0,48;-1,29;-0,24;-4,59;-0,36;0,14;-0,03;1,43;-3,47;0,00
15.948;-0,66;-1,44;-0,46;-4,59;-0,36;0,14;-0,03;1,43;-3,47;0,00
15.968;-0,66;-1,44;-0,46;-4,59;-0,36;0,14;0,17;-0,07;-2,59;0,00
15.978;-0,66;-1,44;-0,46;-7,97;-4,38;-1,48;0,17;-0,07;-2,59;0,00
15.978;-0,66;-1,44;-0,46;-8,71;-4,55;-1,51;0,17;-0,07;-2,59;0,00
16.018;-0,58;-1,22;-0,58;-8,71;-4,55;-1,51;0,17;-0,07;-2,59;0,00
16.048;-0,58;-1,22;-0,58;-8,71;-4,55;-1,51;0,06;0,63;-0,05;0,00
16.048;-0,58;-1,22;-0,58;-9,51;-4,84;-3,90;0,06;0,63;-0,05;0,00
16.088;-0,46;-1,15;-0,33;-9,51;-4,84;-3,90;0,06;0,63;-0,05;0,00
16.118;-0,46;-1,15;-0,33;-7,80;-1,13;-2,75;0,06;0,63;-0,05;0,00
16.119;-0,46;-1,15;-0,33;-7,00;-0,94;-2,69;0,06;0,63;-0,05;0,00
16.129;-0,46;-1,15;-0,33;-7,00;-0,94;-2,69;-0,48;1,28;2,19;0,00
16.157;-0,43;-1,16;-0,26;-7,00;-0,94;-2,69;-0,48;1,28;2,19;0,00
16.168;-0,43;-1,16;-0,26;-7,00;-0,94;-2,69;-0,95;-0,35;3,17;0,00
16.188;-0,43;-1,16;-0,26;-5,11;-2,60;-1,03;-0,95;-0,35;3,17;0,00
16.188;-0,43;-1,16;-0,26;-3,76;-2,60;-0,65;-0,95;-0,35;3,17;0,00
16.228;-0,33;-1,00;-0,17;-3,76;-2,60;-0,65;-0,95;-0,35;3,17;0,00
16.248;-0,33;-1,00;-0,17;-3,76;-2,60;-0,65;-0,53;-2,57;3,70;0,00
16.258;-0,33;-1,00;-0,17;-2,07;-0,81;0,43;-0,53;-2,57;3,70;0,00
16.259;-0,33;-1,00;-0,17;-0,38;-1,26;0,21;-0,53;-2,57;3,70;0,00
16.298;-0,18;-1,19;-0,20;-0,38;-1,26;0,21;-0,53;-2,57;3,70;0,00
16.327;-0,18;-1,19;-0,20;-0,38;-1,26;0,21;-0,07;-1,47;3,97;0,00
16.329;-0,18;-1,19;-0,20;2,97;-2,24;0,31;-0,07;-1,47;3,97;0,00
16.368;-0,23;-1,36;-0,18;2,97;-2,24;0,31;-0,07;-1,47;3,97;0,00
16.369;-0,23;-1,36;-0,18;2,97;-2,24;0,31;-0,00;0,26;4,07;0,00
16.409;-0,23;-1,36;-0,18;4,43;-5,07;-0,01;-0,00;0,26;4,07;0,00
16.411;-0,23;-1,36;-0,18;5,42;-6,11;0,08;-0,00;0,26;4,07;0,00
16.438;-0,17;-1,32;-0,13;5,42;-6,11;0,08;-0,00;0,26;4,07;0,00
16.448;-0,17;-1,32;-0,13;5,42;-6,11;0,08;0,01;-0,31;3,23;0,00
16.468;-0,17;-1,32;-0,13;6,10;-8,44;0,45;0,01;-0,31;3,23;0,00
16.469;-0,17;-1,32;-0,13;6,55;-9,21;0,28;0,01;-0,31;3,23;0,00
16.508;-0,10;-1,08;-0,10;6,55;-9,21;0,28;0,01;-0,31;3,23;0,00
16.528;-0,10;-1,08;-0,10;6,55;-9,21;0,28;-0,15;-0,97;0,57;0,00
16.538;-0,10;-1,08;-0,10;7,58;-7,54;0,93;-0,15;-0,97;0,57;0,00
16.538;-0,10;-1,08;-0,10;7,36;-7,09;0,43;-0,15;-0,97;0,57;0,00
16.569;-0,10;-1,08;-0,10;7,36;-7,09;0,43;-0,38;-1,21;-2,22;0,00
16.578;-0,13;-1,16;-0,28;7,36;-7,09;0,43;-0,38;-1,21;-2,22;0,00
16.61;-0,13;-1,16;-0,28;6,88;-4,93;-1,21;-0,38;-1,21;-2,22;0,00
16.648;-0,13;-1,16;-0,28;6,88;-4,93;-1,21;-0,61;0,23;-4,02;0,00
16.648;-0,31;-0,88;-0,16;6,88;-4,93;-1,21;-0,61;0,23;-4,02;0,00
16.678;-0,31;-0,88;-0,16;4,91;-3,82;-1,52;-0,61;0,23;-4,02;0,00
16.678;-0,31;-0,88;-0,16;3,54;-2,69;-1,23;-0,61;0,23;-4,02;0,00
16.717;-0,32;-0,85;-0,23;3,54;-2,69;-1,23;-0,61;0,23;-4,02;0,00
16.729;-0,32;-0,85;-0,23;3,54;-2,69;-1,23;-0,47;-0,15;-4,97;0,00
16.748;-0,32;-0,85;-0,23;0,65;1,20;-0,01;-0,47;-0,15;-4,97;0,00
16.748;-0,32;-0,85;-0,23;-1,21;1,75;0,19;-0,47;-0,15;-4,97;0,00
16.769;-0,32;-0,85;-0,23;-1,21;1,75;0,19;-0,81;1,48;-5,10;0,00
16.788;-0,51;-1,49;-0,21;-1,21;1,75;0,19;-0,81;1,48;-5,10;0,00
16.818;-0,51;-1,49;-0,21;-3,58;-1,31;-0,53;-0,81;1,48;-5,10;0,00
16.819;-0,51;-1,49;-0,21;-5,60;-1,56;-0,27;-0,81;1,48;-5,10;0,00
16.848;-0,51;-1,49;-0,21;-5,60;-1,56;-0,27;-0,67;1,11;-4,90;0,00
16.862;-0,76;-1,53;-0,39;-5,60;-1,56;-0,27;-0,67;1,11;-4,90;0,00
16.888;-0,76;-1,53;-0,39;-9,76;-7,08;-0,39;-0,67;1,11;-4,90;0,00
16.928;-0,76;-1,53;-0,39;-9,76;-7,08;-0,39;0,33;0,88;-1,82;0,00
16.929;-0,46;-1,36;-0,45;-9,76;-7,08;-0,39;0,33;0,88;-1,82;0,00
16.958;-0,46;-1,36;-0,45;-10,03;-5,48;-1,77;0,33;0,88;-1,82;0,00
16.96;-0,46;-1,36;-0,45;-10,02;-5,34;-2,33;0,33;0,88;-1,82;0,00
16.967;-0,46;-1,36;-0,45;-10,02;-5,34;-2,33;0,63;1,76;0,95;0,00
16.997;-0,61;-1,02;-0,34;-10,02;-5,34;-2,33;0,63;1,76;0,95;0,00
17.028;-0,61;-1,02;-0,34;-9,56;-2,44;-2,69;0,63;1,76;0,95;0,00
17.029;-0,61;-1,02;-0,34;-8,72;-2,14;-2,78;0,63;1,76;0,95;0,00
17.047;-0,61;-1,02;-0,34;-8,72;-2,14;-2,78;-0,17;0,30;2,24;0,00
17.068;-0,39;-1,32;-0,28;-8,72;-2,14;-2,78;-0,17;0,30;2,24;0,00
17.098;-0,39;-1,32;-0,28;-6,65;-1,67;-2,00;-0,17;0,30;2,24;0,00
17.098;-0,39;-1,32;-0,28;-5,44;-1,56;-1,62;-0,17;0,30;2,24;0,00
17.128;-0,39;-1,32;-0,28;-5,44;-1,56;-1,62;-0,86;-0,33;2,92;0,00
17.138;-0,31;-1,12;-0,21;-5,44;-1,56;-1,62;-0,86;-0,33;2,92;0,00
17.168;-0,31;-1,12;-0,21;-5,44;-1,56;-1,62;-0,65;-0,79;3,64;0,00
17.169;-0,31;-1,12;-0,21;-2,56;-3,04;-0,21;-0,65;-0,79;3,64;0,00
17.208;-0,29;-1,13;-0,15;-2,56;-3,04;-0,21;-0,65;-0,79;3,64;0,00
17.238;-0,29;-1,13;-0,15;-0,92;-0,99;0,37;-0,65;-0,79;3,64;0,00
17.238;-0,29;-1,13;-0,15;0,67;-1,50;0,36;-0,65;-0,79;3,64;0,00
17.247;-0,29;-1,13;-0,15;0,67;-1,50;0,36;-0,50;-1,62;4,09;0,00
17.278;-0,24;-1,38;-0,19;0,67;-1,50;0,36;-0,50;-1,62;4,09;0,00
17.308;-0,24;-1,38;-0,19;2,79;-4,08;0,47;-0,50;-1,62;4,09;0,00
17.309;-0,24;-1,38;-0,19;4,14;-5,07;0,25;-0,50;-1,62;4,09;0,00
17.328;-0,24;-1,38;-0,19;4,14;-5,07;0,25;-0,34;-1,36;4,33;0,00
17.348;-0,17;-1,45;-0,17;4,14;-5,07;0,25;-0,34;-1,36;4,33;0,00
17.367;-0,17;-1,45;-0,17;4,14;-5,07;0,25;-0,01;-0,95;3,88;0,00
17.384;-0,17;-1,45;-0,17;5,74;-8,28;-0,36;-0,01;-0,95;3,88;0,00
17.385;-0,17;-1,45;-0,17;6,49;-9,38;-0,64;-0,01;-0,95;3,88;0,00
17.418;-0,21;-1,20;-0,15;6,49;-9,38;-0,64;-0,01;-0,95;3,88;0,00
17.448;-0,21;-1,20;-0,15;6,49;-9,38;-0,64;-0,02;0,24;1,71;0,00
17.449;-0,21;-1,20;-0,15;7,38;-8,92;-0,39;-0,02;0,24;1,71;0,00
17.488;-0,26;-0,96;-0,18;7,38;-8,92;-0,39;-0,02;0,24;1,71;0,00
17.518;-0,26;-0,96;-0,18;6,42;-6,74;0,05;-0,02;0,24;1,71;0,00
17.518;-0,26;-0,96;-0,18;6,19;-6,36;0,08;-0,02;0,24;1,71;0,00
17.542;-0,26;-0,96;-0,18;6,19;-6,36;0,08;0,08;0,04;-0,99;0,00
17.557;-0,25;-0,88;-0,19;6,19;-6,36;0,08;0,08;0,04;-0,99;0,00
17.567;-0,25;-0,88;-0,19;6,19;-6,36;0,08;0,12;-0,18;-3,20;0,00
17.589;-0,25;-0,88;-0,19;5,73;-4,32;-0,62;0,12;-0,18;-3,20;0,00
17.589;-0,25;-0,88;-0,19;4,89;-3,20;-0,69;0,12;-0,18;-3,20;0,00
17.628;-0,25;-0,62;-0,14;4,89;-3,20;-0,69;0,12;-0,18;-3,20;0,00
17.647;-0,25;-0,62;-0,14;4,89;-3,20;-0,69;0,08;0,71;-4,25;0,00
17.658;-0,25;-0,62;-0,14;3,73;0,04;-0,37;0,08;0,71;-4,25;0,00
17.66;-0,25;-0,62;-0,14;2,26;0,99;-0,18;0,08;0,71;-4,25;0,00
17.698;-0,34;-0,88;-0,14;2,26;0,99;-0,18;0,08;0,71;-4,25;0,00
17.728;-0,34;-0,88;-0,14;2,26;0,99;-0,18;-0,07;1,27;-4,52;0,00
17.729;-0,34;-0,88;-0,14;0,35;2,54;0,47;-0,07;1,27;-4,52;0,00
17.768;-0,34;-0,88;-0,14;0,35;2,54;0,47;-0,56;0,65;-5,05;0,00
17.769;-0,53;-1,54;-0,21;0,35;2,54;0,47;-0,56;0,65;-5,05;0,00
17.798;-0,53;-1,54;-0,21;-2,67;-2,15;0,38;-0,56;0,65;-5,05;0,00
17.799;-0,53;-1,54;-0,21;-4,56;-2,11;0,61;-0,56;0,65;-5,05;0,00
17.838;-0,69;-1,64;-0,55;-4,56;-2,11;0,61;-0,56;0,65;-5,05;0,00
17.847;-0,69;-1,64;-0,55;-4,56;-2,11;0,61;-0,51;-0,88;-4,68;0,00
17.868;-0,69;-1,64;-0,55;-8,58;-7,30;-1,00;-0,51;-0,88;-4,68;0,00
17.868;-0,69;-1,64;-0,55;-9,76;-7,72;-0,71;-0,51;-0,88;-4,68;0,00
17.909;-0,55;-1,29;-0,44;-9,76;-7,72;-0,71;-0,51;-0,88;-4,68;0,00
17.927;-0,55;-1,29;-0,44;-9,76;-7,72;-0,71;0,18;1,06;-1,12;0,00
17.938;-0,55;-1,29;-0,44;-10,69;-6,32;-2,62;0,18;1,06;-1,12;0,00
17.938;-0,55;-1,29;-0,44;-10,46;-6,05;-3,08;0,18;1,06;-1,12;0,00
17.968;-0,55;-1,29;-0,44;-10,46;-6,05;-3,08;0,28;1,47;2,01;0,00
17.977;-0,58;-1,20;-0,29;-10,46;-6,05;-3,08;0,28;1,47;2,01;0,00
18.009;-0,58;-1,20;-0,29;-7,79;-2,08;-1,52;0,28;1,47;2,01;0,00
18.048;-0,58;-1,20;-0,29;-7,79;-2,08;-1,52;-0,14;-0,39;3,10;0,00
18.048;-0,37;-1,09;-0,37;-7,79;-2,08;-1,52;-0,14;-0,39;3,10;0,00
18.078;-0,37;-1,09;-0,37;-6,83;-2,54;-1,38;-0,14;-0,39;3,10;0,00
18.079;-0,37;-1,09;-0,37;-5,39;-2,37;-1,27;-0,14;-0,39;3,10;0,00
18.117;-0,30;-0,90;-0,20;-5,39;-2,37;-1,27;-0,14;-0,39;3,10;0,00
18.129;-0,30;-0,90;-0,20;-5,39;-2,37;-1,27;-0,22;0,20;3,86;0,00
18.149;-0,30;-0,90;-0,20;-1,92;0,34;-0,81;-0,22;0,20;3,86;0,00
18.152;-0,30;-0,90;-0,20;-0,43;-0,00;-0,66;-0,22;0,20;3,86;0,00
18.168;-0,30;-0,90;-0,20;-0,43;-0,00;-0,66;-0,49;0,24;4,07;0,00
18.188;-0,29;-1,16;-0,15;-0,43;-0,00;-0,66;-0,49;0,24;4,07;0,00
18.218;-0,29;-1,16;-0,15;1,28;-0,80;1,09;-0,49;0,24;4,07;0,00
18.218;-0,29;-1,16;-0,15;2,64;-1,65;1,26;-0,49;0,24;4,07;0,00
18.248;-0,29;-1,16;-0,15;2,64;-1,65;1,26;-0,84;-0,87;4,20;0,00
18.258;-0,26;-1,55;-0,18;2,64;-1,65;1,26;-0,84;-0,87;4,20;0,00
18.289;-0,26;-1,55;-0,18;3,96;-6,34;0,94;-0,84;-0,87;4,20;0,00
18.328;-0,26;-1,55;-0,18;3,96;-6,34;0,94;-0,57;-2,23;4,15;0,00
18.329;-0,13;-1,55;-0,20;3,96;-6,34;0,94;-0,57;-2,23;4,15;0,00
18.358;-0,13;-1,55;-0,20;5,96;-10,26;0,18;-0,57;-2,23;4,15;0,00
18.358;-0,13;-1,55;-0,20;6,71;-11,29;-0,42;-0,57;-2,23;4,15;0,00
18.368;-0,13;-1,55;-0,20;6,71;-11,29;-0,42;-0,14;-0,91;2,16;0,00
18.398;-0,19;-1,14;-0,16;6,71;-11,29;-0,42;-0,14;-0,91;2,16;0,00
18.428;-0,19;-1,14;-0,16;7,67;-9,12;-0,17;-0,14;-0,91;2,16;0,00
18.428;-0,19;-1,14;-0,16;7,58;-9,03;-0,20;-0,14;-0,91;2,16;0,00
18.448;-0,19;-1,14;-0,16;7,58;-9,03;-0,20;0,18;-0,03;-0,57;0,00
18.467;-0,23;-0,98;-0,22;7,58;-9,03;-0,20;0,18;-0,03;-0,57;0,00
18.498;-0,23;-0,98;-0,22;6,46;-6,12;-0,95;0,18;-0,03;-0,57;0,00
18.498;-0,23;-0,98;-0,22;5,80;-5,12;-1,06;0,18;-0,03;-0,57;0,00
18.528;-0,23;-0,98;-0,22;5,80;-5,12;-1,06;0,54;-0,05;-2,87;0,00
18.537;-0,23;-0,58;-0,18;5,80;-5,12;-1,06;0,54;-0,05;-2,87;0,00
18.568;-0,23;-0,58;-0,18;5,80;-5,12;-1,06;0,49;0,35;-4,04;0,00
18.57;-0,23;-0,58;-0,18;4,55;-1,16;-1,11;0,49;0,35;-4,04;0,00
18.608;-0,32;-0,68;-0,21;4,55;-1,16;-1,11;0,49;0,35;-4,04;0,00
18.638;-0,32;-0,68;-0,21;3,30;2,58;-0,46;0,49;0,35;-4,04;0,00
18.639;-0,32;-0,68;-0,21;1,73;3,41;-0,36;0,49;0,35;-4,04;0,00
18.648;-0,32;-0,68;-0,21;1,73;3,41;-0,36;0,00;1,32;-4,77;0,00
18.678;-0,56;-1,25;-0,18;1,73;3,41;-0,36;0,00;1,32;-4,77;0,00
18.708;-0,56;-1,25;-0,18;-2,07;0,63;-1,44;0,00;1,32;-4,77;0,00
18.708;-0,56;-1,25;-0,18;-4,21;0,80;-1,02;0,00;1,32;-4,77;0,00
18.728;-0,56;-1,25;-0,18;-4,21;0,80;-1,02;-0,89;0,74;-5,77;0,00
18.748;-0,76;-1,89;-0,50;-4,21;0,80;-1,02;-0,89;0,74;-5,77;0,00
18.768;-0,76;-1,89;-0,50;-4,21;0,80;-1,02;-0,79;-2,36;-5,38;0,00
18.778;-0,76;-1,89;-0,50;-8,44;-6,52;0,34;-0,79;-2,36;-5,38;0,00
18.779;-0,76;-1,89;-0,50;-9,89;-7,08;0,91;-0,79;-2,36;-5,38;0,00
18.818;-0,48;-1,45;-0,59;-9,89;-7,08;0,91;-0,79;-2,36;-5,38;0,00
18.847;-0,48;-1,45;-0,59;-9,89;-7,08;0,91;0,24;1,05;-0,94;0,00
18.848;-0,48;-1,45;-0,59;-10,99;-8,63;-2,93;0,24;1,05;-0,94;0,00
18.888;-0,64;-0,81;-0,24;-10,99;-8,63;-2,93;0,24;1,05;-0,94;0,00
18.918;-0,64;-0,81;-0,24;-8,63;-2,59;-2,73;0,24;1,05;-0,94;0,00
18.919;-0,64;-0,81;-0,24;-8,12;-2,28;-3,13;0,24;1,05;-0,94;0,00
18.928;-0,64;-0,81;-0,24;-8,12;-2,28;-3,13;0,01;2,35;1,84;0,00
18.959;-0,42;-1,22;-0,28;-8,12;-2,28;-3,13;0,01;2,35;1,84;0,00
18.967;-0,42;-1,22;-0,28;-8,12;-2,28;-3,13;-0,52;-0,39;2,78;0,00
18.988;-0,42;-1,22;-0,28;-8,46;-0,11;-0,00;-0,52;-0,39;2,78;0,00
18.988;-0,42;-1,22;-0,28;-7,24;0,07;0,24;-0,52;-0,39;2,78;0,00
19.028;-0,37;-1,21;-0,29;-7,24;0,07;0,24;-0,52;-0,39;2,78;0,00
19.047;-0,37;-1,21;-0,29;-7,24;0,07;0,24;-0,46;-1,24;3,67;0,00
19.058;-0,37;-1,21;-0,29;-3,43;-3,04;-0,59;-0,46;-1,24;3,67;0,00
19.058;-0,37;-1,21;-0,29;-1,76;-3,16;-0,53;-0,46;-1,24;3,67;0,00
19.098;-0,25;-1,23;-0,24;-1,76;-3,16;-0,53;-0,46;-1,24;3,67;0,00
19.127;-0,25;-1,23;-0,24;-1,76;-3,16;-0,53;0,14;-2,15;4,43;0,00
19.128;-0,25;-1,23;-0,24;0,09;-2,94;-0,34;0,14;-2,15;4,43;0,00
19.168;-0,16;-1,27;-0,22;0,09;-2,94;-0,34;0,14;-2,15;4,43;0,00
19.169;-0,16;-1,27;-0,22;0,09;-2,94;-0,34;0,53;-0,54;5,03;0,00
19.197;-0,16;-1,27;-0,22;3,67;-3,82;-0,39;0,53;-0,54;5,03;0,00
19.198;-0,16;-1,27;-0,22;5,15;-4,94;-0,62;0,53;-0,54;5,03;0,00
19.238;-0,23;-1,33;-0,12;5,15;-4,94;-0,62;0,53;-0,54;5,03;0,00
19.248;-0,23;-1,33;-0,12;5,15;-4,94;-0,62;0,26;0,39;4,34;0,00
19.268;-0,23;-1,33;-0,12;5,93;-7,18;-0,24;0,26;0,39;4,34;0,00
19.268;-0,23;-1,33;-0,12;6,59;-8,31;-0,16;0,26;0,39;4,34;0,00
19.307;-0,22;-1,17;-0,10;6,59;-8,31;-0,16;0,26;0,39;4,34;0,00
19.327;-0,22;-1,17;-0,10;6,59;-8,31;-0,16;0,10;-0,07;2,11;0,00
19.338;-0,22;-1,17;-0,10;6,47;-8,32;0,72;0,10;-0,07;2,11;0,00
19.338;-0,22;-1,17;-0,10;6,51;-8,47;0,61;0,10;-0,07;2,11;0,00
19.368;-0,22;-1,17;-0,10;6,51;-8,47;0,61;0,06;-0,41;-0,75;0,00
19.378;-0,26;-1,16;-0,21;6,51;-8,47;0,61;0,06;-0,41;-0,75;0,00
19.408;-0,26;-1,16;-0,21;6,33;-7,15;0,25;0,06;-0,41;-0,75;0,00
19.448;-0,32;-0,87;-0,23;6,33;-7,15;0,25;0,06;-0,41;-0,75;0,00
19.448;-0,32;-0,87;-0,23;6,33;-7,15;0,25;-0,15;-0,35;-3,32;0,00
19.478;-0,32;-0,87;-0,23;5,21;-5,59;-1,43;-0,15;-0,35;-3,32;0,00
19.479;-0,32;-0,87;-0,23;4,23;-4,33;-1,44;-0,15;-0,35;-3,32;0,00
19.518;-0,24;-0,62;-0,19;4,23;-4,33;-1,44;-0,15;-0,35;-3,32;0,00
19.529;-0,24;-0,62;-0,19;4,23;-4,33;-1,44;-0,26;-0,37;-4,51;0,00
19.547;-0,24;-0,62;-0,19;2,97;1,03;-0,56;-0,26;-0,37;-4,51;0,00
19.548;-0,24;-0,62;-0,19;1,45;1,90;-0,51;-0,26;-0,37;-4,51;0,00
19.568;-0,24;-0,62;-0,19;1,45;1,90;-0,51;-0,48;0,68;-4,70;0,00
19.587;-0,36;-1,17;-0,19;1,45;1,90;-0,51;-0,48;0,68;-4,70;0,00
19.618;-0,36;-1,17;-0,19;-0,07;1,55;-0,43;-0,48;0,68;-4,70;0,00
19.618;-0,36;-1,17;-0,19;-1,99;1,76;-0,01;-0,48;0,68;-4,70;0,00
19.648;-0,36;-1,17;-0,19;-1,99;1,76;-0,01;-0,86;1,06;-5,12;0,00
19.657;-0,56;-1,63;-0,26;-1,99;1,76;-0,01;-0,86;1,06;-5,12;0,00
19.688;-0,56;-1,63;-0,26;-5,70;-5,12;0,77;-0,86;1,06;-5,12;0,00
19.734;-0,56;-1,63;-0,26;-5,70;-5,12;0,77;-0,48;-0,86;-4,50;0,00
19.735;-0,57;-1,55;-0,43;-5,70;-5,12;0,77;-0,48;-0,86;-4,50;0,00
19.757;-0,57;-1,55;-0,43;-8,77;-6,79;-1,36;-0,48;-0,86;-4,50;0,00
19.758;-0,57;-1,55;-0,43;-9,60;-7,09;-1,22;-0,48;-0,86;-4,50;0,00
19.767;-0,57;-1,55;-0,43;-9,60;-7,09;-1,22;0,39;1,03;-1,14;0,00
19.798;-0,47;-1,21;-0,39;-9,60;-7,09;-1,22;0,39;1,03;-1,14;0,00
19.828;-0,47;-1,21;-0,39;-8,70;-5,64;-1,65;0,39;1,03;-1,14;0,00
19.828;-0,47;-1,21;-0,39;-8,48;-5,39;-2,08;0,39;1,03;-1,14;0,00
19.847;-0,47;-1,21;-0,39;-8,48;-5,39;-2,08;0,34;1,61;1,30;0,00
19.867;-0,48;-1,14;-0,31;-8,48;-5,39;-2,08;0,34;1,61;1,30;0,00
19.898;-0,48;-1,14;-0,31;-8,22;-1,90;-1,42;0,34;1,61;1,30;0,00
19.899;-0,48;-1,14;-0,31;-7,24;-1,63;-1,40;0,34;1,61;1,30;0,00
19.928;-0,48;-1,14;-0,31;-7,24;-1,63;-1,40;-0,28;0,85;2,57;0,00
19.938;-0,34;-0,94;-0,27;-7,24;-1,63;-1,40;-0,28;0,85;2,57;0,00
19.967;-0,34;-0,94;-0,27;-7,24;-1,63;-1,40;-0,47;-0,09;3,28;0,00
19.968;-0,34;-0,94;-0,27;-4,66;-1,07;-0,87;-0,47;-0,09;3,28;0,00
20.007;-0,28;-0,90;-0,18;-4,66;-1,07;-0,87;-0,47;-0,09;3,28;0,00
20.038;-0,28;-0,90;-0,18;-2,74;0,95;-0,20;-0,47;-0,09;3,28;0,00
20.04;-0,28;-0,90;-0,18;-1,27;0,71;-0,04;-0,47;-0,09;3,28;0,00
20.048;-0,28;-0,90;-0,18;-1,27;0,71;-0,04;-0,54;-0,60;3,85;0,00
20.078;-0,26;-1,22;-0,17;-1,27;0,71;-0,04;-0,54;-0,60;3,85;0,00
20.107;-0,26;-1,22;-0,17;1,06;-0,89;0,80;-0,54;-0,60;3,85;0,00
20.109;-0,26;-1,22;-0,17;2,53;-1,64;0,88;-0,54;-0,60;3,85;0,00
20.128;-0,26;-1,22;-0,17;2,53;-1,64;0,88;-0,70;-0,96;4,22;0,00
20.149;-0,25;-1,53;-0,18;2,53;-1,64;0,88;-0,70;-0,96;4,22;0,00
20.168;-0,25;-1,53;-0,18;2,53;-1,64;0,88;-0,63;-2,20;4,04;0,00
20.179;-0,25;-1,53;-0,18;3,64;-6,52;0,68;-0,63;-2,20;4,04;0,00
20.179;-0,25;-1,53;-0,18;4,81;-7,55;0,19;-0,63;-2,20;4,04;0,00
20.217;-0,21;-1,34;-0,23;4,81;-7,55;0,19;-0,63;-2,20;4,04;0,00
20.248;-0,21;-1,34;-0,23;4,81;-7,55;0,19;-0,35;-1,35;2,60;0,00
20.249;-0,21;-1,34;-0,23;6,12;-9,21;-0,44;-0,35;-1,35;2,60;0,00
20.288;-0,31;-1,20;-0,21;6,12;-9,21;-0,44;-0,35;-1,35;2,60;0,00
20.318;-0,31;-1,20;-0,21;5,95;-7,84;-1,21;-0,35;-1,35;2,60;0,00
20.318;-0,31;-1,20;-0,21;6,04;-7,98;-1,55;-0,35;-1,35;2,60;0,00
20.328;-0,31;-1,20;-0,21;6,04;-7,98;-1,55;-0,73;-1,59;0,45;0,00
20.357;-0,23;-0,94;-0,23;6,04;-7,98;-1,55;-0,73;-1,59;0,45;0,00
20.367;-0,23;-0,94;-0,23;6,04;-7,98;-1,55;-0,79;-1,82;-1,96;0,00
20.393;-0,23;-0,94;-0,23;5,70;-6,14;-2,06;-0,79;-1,82;-1,96;0,00
20.394;-0,23;-0,94;-0,23;5,16;-5,34;-2,43;-0,79;-1,82;-1,96;0,00
20.427;-0,18;-0,56;-0,18;5,16;-5,34;-2,43;-0,79;-1,82;-1,96;0,00
20.447;-0,18;-0,56;-0,18;5,16;-5,34;-2,43;-0,44;0,58;-3,38;0,00
20.458;-0,18;-0,56;-0,18;5,02;-0,63;-2,01;-0,44;0,58;-3,38;0,00
20.459;-0,18;-0,56;-0,18;3,92;0,30;-1,56;-0,44;0,58;-3,38;0,00
20.497;-0,30;-0,69;-0,18;3,92;0,30;-1,56;-0,44;0,58;-3,38;0,00
20.527;-0,30;-0,69;-0,18;3,92;0,30;-1,56;-0,26;2,75;-3,76;0,00
20.528;-0,30;-0,69;-0,18;2,71;2,91;-0,61;-0,26;2,75;-3,76;0,00
20.567;-0,30;-0,69;-0,18;2,71;2,91;-0,61;-1,24;1,63;-4,24;0,00
20.568;-0,62;-1,19;-0,13;2,71;2,91;-0,61;-1,24;1,63;-4,24;0,00
20.598;-0,62;-1,19;-0,13;-1,38;0,09;-0,56;-1,24;1,63;-4,24;0,00
20.599;-0,62;-1,19;-0,13;-3,00;0,37;0,07;-1,24;1,63;-4,24;0,00
20.638;-0,66;-1,56;-0,39;-3,00;0,37;0,07;-1,24;1,63;-4,24;0,00
20.648;-0,66;-1,56;-0,39;-3,00;0,37;0,07;-1,99;-2,83;-5,09;0,00
20.667;-0,66;-1,56;-0,39;-6,34;-3,95;1,72;-1,99;-2,83;-5,09;0,00
20.668;-0,66;-1,56;-0,39;-7,55;-4,31;2,55;-1,99;-2,83;-5,09;0,00
20.708;-0,72;-1,46;-0,25;-7,55;-4,31;2,55;-1,99;-2,83;-5,09;0,00
20.728;-0,72;-1,46;-0,25;-7,55;-4,31;2,55;-1,66;-0,98;-3,14;0,00
20.737;-0,72;-1,46;-0,25;-8,62;-7,81;-0,05;-1,66;-0,98;-3,14;0,00
20.738;-0,72;-1,46;-0,25;-9,01;-7,86;-0,01;-1,66;-0,98;-3,14;0,00
20.768;-0,72;-1,46;-0,25;-9,01;-7,86;-0,01;0,53;2,31;0,60;0,00
20.777;-0,47;-1,22;-0,21;-9,01;-7,86;-0,01;0,53;2,31;0,60;0,00
20.808;-0,47;-1,22;-0,21;-8,05;-3,87;1,82;0,53;2,31;0,60;0,00
20.848;-0,47;-1,22;-0,21;-8,05;-3,87;1,82;0,73;2,36;2,44;0,00
20.849;-0,55;-1,18;-0,07;-8,05;-3,87;1,82;0,73;2,36;2,44;0,00
20.877;-0,55;-1,18;-0,07;-8,44;-3,03;2,91;0,73;2,36;2,44;0,00
20.878;-0,55;-1,18;-0,07;-7,52;-2,70;2,45;0,73;2,36;2,44;0,00
20.918;-0,33;-0,88;-0,15;-7,52;-2,70;2,45;0,73;2,36;2,44;0,00
20.928;-0,33;-0,88;-0,15;-7,52;-2,70;2,45;0,85;0,67;3,28;0,00
20.95;-0,33;-0,88;-0,15;-3,68;-0,91;1,13;0,85;0,67;3,28;0,00
20.951;-0,33;-0,88;-0,15;-2,29;-0,90;0,77;0,85;0,67;3,28;0,00
20.974;-0,33;-0,88;-0,15;-2,29;-0,90;0,77;0,98;-0,59;3,84;0,00
20.987;-0,31;-0,96;-0,11;-2,29;-0,90;0,77;0,98;-0,59;3,84;0,00
21.018;-0,31;-0,96;-0,11;-0,33;0,82;0,81;0,98;-0,59;3,84;0,00
21.019;-0,31;-0,96;-0,11;1,15;0,28;0,34;0,98;-0,59;3,84;0,00
21.048;-0,31;-0,96;-0,11;1,15;0,28;0,34;0,85;-0,63;4,03;0,00
21.057;-0,34;-1,23;-0,18;1,15;0,28;0,34;0,85;-0,63;4,03;0,00
21.087;-0,34;-1,23;-0,18;2,77;-2,30;-0,39;0,85;-0,63;4,03;0,00
21.127;-0,34;-1,23;-0,18;2,77;-2,30;-0,39;0,33;-0,81;3,91;0,00
21.128;-0,34;-1,50;-0,20;2,77;-2,30;-0,39;0,33;-0,81;3,91;0,00
21.158;-0,34;-1,50;-0,20;3,30;-6,63;-1,01;0,33;-0,81;3,91;0,00
21.158;-0,34;-1,50;-0,20;4,18;-7,53;-1,44;0,33;-0,81;3,91;0,00
21.168;-0,34;-1,50;-0,20;4,18;-7,53;-1,44;0,19;-1,32;2,81;0,00
21.198;-0,23;-1,44;-0,17;4,18;-7,53;-1,44;0,19;-1,32;2,81;0,00
21.229;-0,23;-1,44;-0,17;5,43;-9,34;-2,29;0,19;-1,32;2,81;0,00
21.23;-0,23;-1,44;-0,17;5,65;-9,71;-2,52;0,19;-1,32;2,81;0,00
21.248;-0,23;-1,44;-0,17;5,65;-9,71;-2,52;0,07;-0,63;0,84;0,00
21.268;-0,23;-1,26;-0,23;5,65;-9,71;-2,52;0,07;-0,63;0,84;0,00
21.298;-0,23;-1,26;-0,23;6,29;-8,03;-2,23;0,07;-0,63;0,84;0,00
21.298;-0,23;-1,26;-0,23;5,99;-7,60;-2,18;0,07;-0,63;0,84;0,00
21.328;-0,23;-1,26;-0,23;5,99;-7,60;-2,18;0,11;0,18;-1,10;0,00
21.337;-0,21;-0,86;-0,10;5,99;-7,60;-2,18;0,11;0,18;-1,10;0,00
21.368;-0,21;-0,86;-0,10;5,99;-7,60;-2,18;-0,02;0,50;-2,28;0,00
21.368;-0,21;-0,86;-0,10;5,39;-4,95;-2,04;-0,02;0,50;-2,28;0,00
21.408;-0,21;-0,50;-0,02;5,39;-4,95;-2,04;-0,02;0,50;-2,28;0,00
21.437;-0,21;-0,50;-0,02;5,04;0,67;-0,78;-0,02;0,50;-2,28;0,00
21.439;-0,21;-0,50;-0,02;4,23;1,32;-0,59;-0,02;0,50;-2,28;0,00
21.447;-0,21;-0,50;-0,02;4,23;1,32;-0,59;-0,13;0,70;-2,61;0,00
21.477;-0,39;-0,75;-0,00;4,23;1,32;-0,59;-0,13;0,70;-2,61;0,00
21.507;-0,39;-0,75;-0,00;2,63;2,85;0,31;-0,13;0,70;-2,61;0,00
21.508;-0,39;-0,75;-0,00;1,61;3,33;0,58;-0,13;0,70;-2,61;0,00
21.529;-0,39;-0,75;-0,00;1,61;3,33;0,58;-0,27;1,03;-3,00;0,00
21.548;-0,72;-1,19;-0,03;1,61;3,33;0,58;-0,27;1,03;-3,00;0,00
21.567;-0,72;-1,19;-0,03;1,61;3,33;0,58;-0,69;0,11;-4,35;0,00
21.578;-0,72;-1,19;-0,03;-2,46;-0,38;0,87;-0,69;0,11;-4,35;0,00
21.579;-0,72;-1,19;-0,03;-4,07;-0,02;1,13;-0,69;0,11;-4,35;0,00
21.617;-0,81;-1,54;-0,30;-4,07;-0,02;1,13;-0,69;0,11;-4,35;0,00
21.648;-0,81;-1,54;-0,30;-4,07;-0,02;1,13;-1,27;0,44;-4,74;0,00
21.648;-0,81;-1,54;-0,30;-7,99;-3,34;0,08;-1,27;0,44;-4,74;0,00
21.688;-0,84;-1,46;-0,33;-7,99;-3,34;0,08;-1,27;0,44;-4,74;0,00
21.718;-0,84;-1,46;-0,33;-10,13;-6,72;-0,97;-1,27;0,44;-4,74;0,00
21.718;-0,84;-1,46;-0,33;-11,15;-7,01;-0,66;-1,27;0,44;-4,74;0,00
21.727;-0,84;-1,46;-0,33;-11,15;-7,01;-0,66;-0,87;0,73;-2,66;0,00
21.757;-0,53;-1,23;-0,37;-11,15;-7,01;-0,66;-0,87;0,73;-2,66;0,00
21.768;-0,53;-1,23;-0,37;-11,15;-7,01;-0,66;0,34;0,61;1,44;0,00
21.787;-0,53;-1,23;-0,37;-10,43;-3,36;-1,51;0,34;0,61;1,44;0,00
21.788;-0,53;-1,23;-0,37;-9,67;-3,07;-1,71;0,34;0,61;1,44;0,00
21.827;-0,45;-1,03;-0,18;-9,67;-3,07;-1,71;0,34;0,61;1,44;0,00
21.847;-0,45;-1,03;-0,18;-9,67;-3,07;-1,71;0,22;0,18;3,47;0,00
21.858;-0,45;-1,03;-0,18;-5,65;-2,23;-0,55;0,22;0,18;3,47;0,00
21.858;-0,45;-1,03;-0,18;-4,16;-2,13;-0,61;0,22;0,18;3,47;0,00
21.897;-0,31;-0,77;-0,17;-4,16;-2,13;-0,61;0,22;0,18;3,47;0,00
21.927;-0,31;-0,77;-0,17;-4,16;-2,13;-0,61;0,23;-0,13;3,79;0,00
21.928;-0,31;-0,77;-0,17;-2,00;0,93;0,05;0,23;-0,13;3,79;0,00
21.968;-0,31;-0,77;-0,17;-2,00;0,93;0,05;0,18;1,09;3,73;0,00
21.968;-0,27;-0,85;-0,04;-2,00;0,93;0,05;0,18;1,09;3,73;0,00
21.997;-0,27;-0,85;-0,04;0,61;1,60;0,72;0,18;1,09;3,73;0,00
21.998;-0,27;-0,85;-0,04;1,80;1,00;0,84;0,18;1,09;3,73;0,00
22.037;-0,40;-1,33;-0,07;1,80;1,00;0,84;0,18;1,09;3,73;0,00
22.047;-0,40;-1,33;-0,07;1,80;1,00;0,84;-0,37;1,47;3,04;0,00
22.068;-0,40;-1,33;-0,07;2,36;-2,03;1,97;-0,37;1,47;3,04;0,00
22.068;-0,40;-1,33;-0,07;3,00;-2,68;2,42;-0,37;1,47;3,04;0,00
22.107;-0,35;-1,45;-0,10;3,00;-2,68;2,42;-0,37;1,47;3,04;0,00
22.129;-0,35;-1,45;-0,10;3,00;-2,68;2,42;-1,07;-0,33;2,12;0,00
22.137;-0,35;-1,45;-0,10;2,40;-7,93;2,23;-1,07;-0,33;2,12;0,00
22.138;-0,35;-1,45;-0,10;3,04;-8,43;1,93;-1,07;-0,33;2,12;0,00
22.168;-0,35;-1,45;-0,10;3,04;-8,43;1,93;-0,54;-2,23;1,73;0,00
22.178;-0,09;-1,48;-0,20;3,04;-8,43;1,93;-0,54;-2,23;1,73;0,00
22.207;-0,09;-1,48;-0,20;5,50;-8,34;0,49;-0,54;-2,23;1,73;0,00
22.248;-0,09;-1,48;-0,20;5,50;-8,34;0,49;0,01;-1,64;-0,23;0,00
22.25;-0,06;-1,30;-0,32;5,50;-8,34;0,49;0,01;-1,64;-0,23;0,00
22.28;-0,06;-1,30;-0,32;7,78;-8,13;-0,92;0,01;-1,64;-0,23;0,00
22.282;-0,06;-1,30;-0,32;7,50;-7,70;-1,34;0,01;-1,64;-0,23;0,00
22.317;-0,06;-0,87;-0,20;7,50;-7,70;-1,34;0,01;-1,64;-0,23;0,00
22.328;-0,06;-0,87;-0,20;7,50;-7,70;-1,34;0,31;-0,08;-2,45;0,00
22.348;-0,06;-0,87;-0,20;6,19;-4,43;-2,09;0,31;-0,08;-2,45;0,00
22.349;-0,06;-0,87;-0,20;5,17;-3,54;-2,03;0,31;-0,08;-2,45;0,00
22.368;-0,06;-0,87;-0,20;5,17;-3,54;-2,03;0,28;0,65;-3,23;0,00
22.387;-0,14;-0,80;-0,02;5,17;-3,54;-2,03;0,28;0,65;-3,23;0,00
22.418;-0,14;-0,80;-0,02;3,77;1,19;-0,02;0,28;0,65;-3,23;0,00
22.419;-0,14;-0,80;-0,02;2,58;1,71;0,03;0,28;0,65;-3,23;0,00
22.447;-0,14;-0,80;-0,02;2,58;1,71;0,03;-0,07;0,11;-3,38;0,00
22.458;-0,28;-0,98;-0,04;2,58;1,71;0,03;-0,07;0,11;-3,38;0,00
22.488;-0,28;-0,98;-0,04;0,60;0,85;1,22;-0,07;0,11;-3,38;0,00
22.528;-0,28;-0,98;-0,04;0,60;0,85;1,22;-0,57;-0,60;-4,71;0,00
22.528;-0,68;-1,58;-0,37;0,60;0,85;1,22;-0,57;-0,60;-4,71;0,00
22.557;-0,68;-1,58;-0,37;-3,44;-2,26;0,06;-0,57;-0,60;-4,71;0,00
22.558;-0,68;-1,58;-0,37;-5,59;-2,37;0,38;-0,57;-0,60;-4,71;0,00
22.567;-0,68;-1,58;-0,37;-5,59;-2,37;0,38;-1,29;0,64;-5,99;0,00
22.598;-0,84;-1,53;-0,44;-5,59;-2,37;0,38;-1,29;0,64;-5,99;0,00
22.628;-0,84;-1,53;-0,44;-11,40;-7,77;-2,94;-1,29;0,64;-5,99;0,00
22.628;-0,84;-1,53;-0,44;-12,73;-8,48;-2,61;-1,29;0,64;-5,99;0,00
22.647;-0,84;-1,53;-0,44;-12,73;-8,48;-2,61;-0,59;0,49;-2,67;0,00
22.668;-0,49;-1,09;-0,46;-12,73;-8,48;-2,61;-0,59;0,49;-2,67;0,00
22.697;-0,49;-1,09;-0,46;-12,63;-4,53;-1,80;-0,59;0,49;-2,67;0,00
22.698;-0,49;-1,09;-0,46;-11,94;-4,14;-1,89;-0,59;0,49;-2,67;0,00
22.727;-0,49;-1,09;-0,46;-11,94;-4,14;-1,89;0,20;0,21;1,76;0,00
22.737;-0,56;-1,18;-0,25;-11,94;-4,14;-1,89;0,20;0,21;1,76;0,00
22.768;-0,56;-1,18;-0,25;-11,94;-4,14;-1,89;-0,27;0,84;3,17;0,00
22.769;-0,56;-1,18;-0,25;-7,59;-1,36;-0,98;-0,27;0,84;3,17;0,00
22.808;-0,43;-1,20;-0,30;-7,59;-1,36;-0,98;-0,27;0,84;3,17;0,00
22.837;-0,43;-1,20;-0,30;-7,18;-3,30;-0,63;-0,27;0,84;3,17;0,00
22.838;-0,43;-1,20;-0,30;-5,90;-3,10;-0,47;-0,27;0,84;3,17;0,00
22.847;-0,43;-1,20;-0,30;-5,90;-3,10;-0,47;-0,66;0,61;3,52;0,00
22.877;-0,32;-1,03;-0,11;-5,90;-3,10;-0,47;-0,66;0,61;3,52;0,00
22.908;-0,32;-1,03;-0,11;-3,24;-0,84;0,77;-0,66;0,61;3,52;0,00
22.909;-0,32;-1,03;-0,11;-1,62;-1,11;0,93;-0,66;0,61;3,52;0,00
22.928;-0,32;-1,03;-0,11;-1,62;-1,11;0,93;-0,67;-1,17;3,94;0,00
22.947;-0,26;-1,39;-0,12;-1,62;-1,11;0,93;-0,67;-1,17;3,94;0,00
22.968;-0,26;-1,39;-0,12;-1,62;-1,11;0,93;-0,55;-1,34;4,38;0,00
22.987;-0,26;-1,39;-0,12;1,28;-2,54;2,06;-0,55;-1,34;4,38;0,00
22.988;-0,26;-1,39;-0,12;2,84;-3,37;1,95;-0,55;-1,34;4,38;0,00
23.017;-0,27;-1,66;-0,18;2,84;-3,37;1,95;-0,55;-1,34;4,38;0,00
23.047;-0,27;-1,66;-0,18;2,84;-3,37;1,95;-0,09;-2,16;4,51;0,00
23.048;-0,27;-1,66;-0,18;4,10;-8,16;0,91;-0,09;-2,16;4,51;0,00
23.087;-0,07;-1,55;-0,21;4,10;-8,16;0,91;-0,09;-2,16;4,51;0,00
23.118;-0,07;-1,55;-0,21;6,13;-10,87;-0,45;-0,09;-2,16;4,51;0,00
23.119;-0,07;-1,55;-0,21;6,87;-11,94;-1,05;-0,09;-2,16;4,51;0,00
23.129;-0,07;-1,55;-0,21;6,87;-11,94;-1,05;0,53;-1,27;3,51;0,00
23.157;-0,08;-1,03;-0,19;6,87;-11,94;-1,05;0,53;-1,27;3,51;0,00
23.167;-0,08;-1,03;-0,19;6,87;-11,94;-1,05;0,68;-0,12;0,48;0,00
23.188;-0,08;-1,03;-0,19;8,52;-8,90;-0,37;0,68;-0,12;0,48;0,00
23.188;-0,08;-1,03;-0,19;8,41;-8,79;-0,51;0,68;-0,12;0,48;0,00
23.227;-0,20;-1,06;-0,25;8,41;-8,79;-0,51;0,68;-0,12;0,48;0,00
23.247;-0,20;-1,06;-0,25;8,41;-8,79;-0,51;0,38;0,19;-2,18;0,00
23.257;-0,20;-1,06;-0,25;7,46;-5,50;-1,99;0,38;0,19;-2,18;0,00
23.258;-0,20;-1,06;-0,25;6,74;-4,46;-1,91;0,38;0,19;-2,18;0,00
23.297;-0,21;-0,72;-0,18;6,74;-4,46;-1,91;0,38;0,19;-2,18;0,00
23.328;-0,21;-0,72;-0,18;4,65;-2,38;-1,47;0,38;0,19;-2,18;0,00
23.328;-0,21;-0,72;-0,18;4,65;-2,38;-1,47;0,09;0,17;-3,72;0,00
23.368;-0,21;-0,72;-0,18;4,65;-2,38;-1,47;-0,21;0,43;-4,43;0,00
23.369;-0,31;-0,83;-0,16;4,65;-2,38;-1,47;-0,21;0,43;-4,43;0,00
23.398;-0,31;-0,83;-0,16;3,33;1,18;-0,52;-0,21;0,43;-4,43;0,00
23.399;-0,31;-0,83;-0,16;1,80;2,01;-0,35;-0,21;0,43;-4,43;0,00
23.437;-0,45;-1,33;-0,24;1,80;2,01;-0,35;-0,21;0,43;-4,43;0,00
23.447;-0,45;-1,33;-0,24;1,80;2,01;-0,35;-0,58;1,05;-5,26;0,00
23.474;-0,45;-1,33;-0,24;-1,49;-0,69;-0,64;-0,58;1,05;-5,26;0,00
23.475;-0,45;-1,33;-0,24;-3,55;-0,47;-0,32;-0,58;1,05;-5,26;0,00
23.507;-0,67;-1,78;-0,50;-3,55;-0,47;-0,32;-0,58;1,05;-5,26;0,00
23.527;-0,67;-1,78;-0,50;-3,55;-0,47;-0,32;-0,72;0,73;-5,55;0,00
23.538;-0,67;-1,78;-0,50;-7,10;-6,00;-1,00;-0,72;0,73;-5,55;0,00
23.539;-0,67;-1,78;-0,50;-8,81;-6,52;-0,79;-0,72;0,73;-5,55;0,00
23.567;-0,67;-1,78;-0,50;-8,81;-6,52;-0,79;-0,35;0,82;-3,03;0,00
23.577;-0,67;-1,37;-0,50;-8,81;-6,52;-0,79;-0,35;0,82;-3,03;0,00
23.607;-0,67;-1,37;-0,50;-11,44;-8,34;-2,86;-0,35;0,82;-3,03;0,00
23.647;-0,67;-1,37;-0,50;-11,44;-8,34;-2,86;0,18;1,01;1,08;0,00
23.648;-0,63;-1,16;-0,32;-11,44;-8,34;-2,86;0,18;1,01;1,08;0,00
23.678;-0,63;-1,16;-0,32;-10,48;-3,11;-2,77;0,18;1,01;1,08;0,00
23.678;-0,63;-1,16;-0,32;-9,71;-2,76;-2,86;0,18;1,01;1,08;0,00
23.718;-0,40;-1,17;-0,29;-9,71;-2,76;-2,86;0,18;1,01;1,08;0,00
23.727;-0,40;-1,17;-0,29;-9,71;-2,76;-2,86;-0,40;-0,44;2,55;0,00
23.747;-0,40;-1,17;-0,29;-8,00;-2,61;-0,80;-0,40;-0,44;2,55;0,00
23.748;-0,40;-1,17;-0,29;-6,70;-2,38;-0,56;-0,40;-0,44;2,55;0,00
23.768;-0,40;-1,17;-0,29;-6,70;-2,38;-0,56;-0,26;-0,64;3,52;0,00
23.788;-0,28;-0,94;-0,23;-6,70;-2,38;-0,56;-0,26;-0,64;3,52;0,00
23.818;-0,28;-0,94;-0,23;-3,02;-0,84;-0,52;-0,26;-0,64;3,52;0,00
23.819;-0,28;-0,94;-0,23;-1,46;-1,00;-0,50;-0,26;-0,64;3,52;0,00
23.847;-0,28;-0,94;-0,23;-1,46;-1,00;-0,50;-0,10;0,09;4,05;0,00
23.858;-0,28;-1,07;-0,13;-1,46;-1,00;-0,50;-0,10;0,09;4,05;0,00
23.888;-0,28;-1,07;-0,13;0,78;-0,20;0,81;-0,10;0,09;4,05;0,00
23.928;-0,28;-1,07;-0,13;0,78;-0,20;0,81;-0,59;0,26;3,99;0,00
23.929;-0,30;-1,51;-0,14;0,78;-0,20;0,81;-0,59;0,26;3,99;0,00
23.957;-0,30;-1,51;-0,14;1,61;-4,18;1,33;-0,59;0,26;3,99;0,00
23.958;-0,30;-1,51;-0,14;2,85;-5,02;1,49;-0,59;0,26;3,99;0,00
23.968;-0,30;-1,51;-0,14;2,85;-5,02;1,49;-0,69;-1,58;4,08;0,00
24.002;-0,16;-1,59;-0,20;2,85;-5,02;1,49;-0,69;-1,58;4,08;0,00
24.027;-0,16;-1,59;-0,20;4,49;-9,21;1,08;-0,69;-1,58;4,08;0,00
24.028;-0,16;-1,59;-0,20;5,54;-10,26;0,36;-0,69;-1,58;4,08;0,00
24.048;-0,16;-1,59;-0,20;5,54;-10,26;0,36;0,02;-1,97;3,41;0,00
24.067;0,07;-1,29;-0,19;5,54;-10,26;0,36;0,02;-1,97;3,41;0,00
24.097;0,07;-1,29;-0,19;8,40;-10,15;-0,89;0,02;-1,97;3,41;0,00
24.098;0,07;-1,29;-0,19;8,44;-10,28;-1,07;0,02;-1,97;3,41;0,00
24.139;0,07;-1,29;-0,19;8,44;-10,28;-1,07;0,33;-0,36;0,54;0,00
24.14;-0,03;-1,21;-0,33;8,44;-10,28;-1,07;0,33;-0,36;0,54;0,00
24.167;-0,03;-1,21;-0,33;8,44;-10,28;-1,07;0,40;0,29;-2,51;0,00
24.167;-0,03;-1,21;-0,33;8,75;-6,50;-1,29;0,40;0,29;-2,51;0,00
24.207;-0,20;-0,90;-0,27;8,75;-6,50;-1,29;0,40;0,29;-2,51;0,00
24.238;-0,20;-0,90;-0,27;6,73;-5,26;-2,30;0,40;0,29;-2,51;0,00
24.238;-0,20;-0,90;-0,27;5,67;-4,15;-2,13;0,40;0,29;-2,51;0,00
24.248;-0,20;-0,90;-0,27;5,67;-4,15;-2,13;0,23;0,69;-3,79;0,00
24.277;-0,26;-0,70;-0,16;5,67;-4,15;-2,13;0,23;0,69;-3,79;0,00
24.308;-0,26;-0,70;-0,16;2,96;0,88;-0,67;0,23;0,69;-3,79;0,00
24.308;-0,26;-0,70;-0,16;1,46;1,64;-0,60;0,23;0,69;-3,79;0,00
24.328;-0,26;-0,70;-0,16;1,46;1,64;-0,60;0,17;0,74;-4,34;0,00
24.347;-0,44;-1,19;-0,24;1,46;1,64;-0,60;0,17;0,74;-4,34;0,00
24.367;-0,44;-1,19;-0,24;1,46;1,64;-0,60;-0,37;1,11;-5,32;0,00
24.377;-0,44;-1,19;-0,24;-1,12;1,02;-0,17;-0,37;1,11;-5,32;0,00
24.378;-0,44;-1,19;-0,24;-3,19;1,18;0,03;-0,37;1,11;-5,32;0,00
24.417;-0,66;-1,67;-0,36;-3,19;1,18;0,03;-0,37;1,11;-5,32;0,00
24.448;-0,66;-1,67;-0,36;-7,34;-4,85;-0,73;-0,37;1,11;-5,32;0,00
24.449;-0,66;-1,67;-0,36;-7,34;-4,85;-0,73;-0,71;-0,16;-5,53;0,00
24.488;-0,68;-1,51;-0,54;-7,34;-4,85;-0,73;-0,71;-0,16;-5,53;0,00
24.517;-0,68;-1,51;-0,54;-10,90;-7,59;-2,25;-0,71;-0,16;-5,53;0,00
24.518;-0,68;-1,51;-0,54;-11,56;-7,95;-1,98;-0,71;-0,16;-5,53;0,00
24.528;-0,68;-1,51;-0,54;-11,56;-7,95;-1,98;-0,04;-0,71;-2,34;0,00
24.558;-0,52;-1,10;-0,35;-11,56;-7,95;-1,98;-0,04;-0,71;-2,34;0,00
24.568;-0,52;-1,10;-0,35;-11,56;-7,95;-1,98;0,29;1,92;1,30;0,00
24.587;-0,52;-1,10;-0,35;-9,75;-4,89;-2,75;0,29;1,92;1,30;0,00
24.588;-0,52;-1,10;-0,35;-9,25;-4,53;-3,14;0,29;1,92;1,30;0,00
24.628;-0,45;-1,25;-0,28;-9,25;-4,53;-3,14;0,29;1,92;1,30;0,00
24.648;-0,45;-1,25;-0,28;-9,25;-4,53;-3,14;-0,12;1,40;2,94;0,00
24.661;-0,45;-1,25;-0,28;-8,35;-1,46;-0,45;-0,12;1,40;2,94;0,00
24.662;-0,45;-1,25;-0,28;-7,12;-1,16;-0,45;-0,12;1,40;2,94;0,00
24.697;-0,37;-1,09;-0,24;-7,12;-1,16;-0,45;-0,12;1,40;2,94;0,00
24.727;-0,37;-1,09;-0,24;-7,12;-1,16;-0,45;-0,55;0,53;3,55;0,00
24.728;-0,37;-1,09;-0,24;-4,14;-2,65;-0,97;-0,55;0,53;3,55;0,00
24.767;-0,37;-1,09;-0,24;-4,14;-2,65;-0,97;-0,44;-0,57;4,01;0,00
24.768;-0,24;-1,01;-0,14;-4,14;-2,65;-0,97;-0,44;-0,57;4,01;0,00
24.798;-0,24;-1,01;-0,14;-2,01;-0,42;0,33;-0,44;-0,57;4,01;0,00
24.798;-0,24;-1,01;-0,14;-0,43;-0,76;0,43;-0,44;-0,57;4,01;0,00
24.837;-0,27;-1,28;-0,16;-0,43;-0,76;0,43;-0,44;-0,57;4,01;0,00
24.847;-0,27;-1,28;-0,16;-0,43;-0,76;0,43;-0,75;0,06;4,02;0,00
24.868;-0,27;-1,28;-0,16;2,01;-1,92;1,13;-0,75;0,06;4,02;0,00
24.869;-0,27;-1,28;-0,16;3,24;-2,74;1,45;-0,75;0,06;4,02;0,00
24.907;-0,28;-1,63;-0,18;3,24;-2,74;1,45;-0,75;0,06;4,02;0,00
24.927;-0,28;-1,63;-0,18;3,24;-2,74;1,45;-1,10;-0,70;3,96;0,00
24.938;-0,28;-1,63;-0,18;3,65;-7,52;1,24;-1,10;-0,70;3,96;0,00
24.939;-0,28;-1,63;-0,18;4,74;-8,60;0,95;-1,10;-0,70;3,96;0,00
24.968;-0,28;-1,63;-0,18;4,74;-8,60;0,95;-0,44;-1,91;3,50;0,00
24.977;-0,07;-1,41;-0,16;4,74;-8,60;0,95;-0,44;-1,91;3,50;0,00
25.007;-0,07;-1,41;-0,16;6,40;-10,78;0,12;-0,44;-1,91;3,50;0,00
25.047;-0,07;-1,41;-0,16;6,40;-10,78;0,12;0,05;-0,93;1,10;0,00
25.049;-0,01;-1,10;-0,09;6,40;-10,78;0,12;0,05;-0,93;1,10;0,00
25.077;-0,01;-1,10;-0,09;8,94;-8,31;0,78;0,05;-0,93;1,10;0,00
25.078;-0,01;-1,10;-0,09;8,85;-8,21;0,49;0,05;-0,93;1,10;0,00
25.118;-0,15;-1,03;-0,17;8,85;-8,21;0,49;0,05;-0,93;1,10;0,00
25.128;-0,15;-1,03;-0,17;8,85;-8,21;0,49;0,34;-0,18;-1,88;0,00
25.147;-0,15;-1,03;-0,17;7,49;-5,56;-0,28;0,34;-0,18;-1,88;0,00
25.148;-0,15;-1,03;-0,17;6,67;-4,46;-0,24;0,34;-0,18;-1,88;0,00
25.168;-0,15;-1,03;-0,17;6,67;-4,46;-0,24;0,38;0,70;-4,01;0,00
25.188;-0,25;-0,75;-0,14;6,67;-4,46;-0,24;0,38;0,70;-4,01;0,00
25.218;-0,25;-0,75;-0,14;4,23;-1,68;-0,18;0,38;0,70;-4,01;0,00
25.219;-0,25;-0,75;-0,14;2,70;-0,63;-0,10;0,38;0,70;-4,01;0,00
25.247;-0,25;-0,75;-0,14;2,70;-0,63;-0,10;0,16;0,88;-4,80;0,00
25.257;-0,36;-0,98;-0,15;2,70;-0,63;-0,10;0,16;0,88;-4,80;0,00
25.287;-0,36;-0,98;-0,15;0,17;1,62;0,28;0,16;0,88;-4,80;0,00
25.327;-0,36;-0,98;-0,15;0,17;1,62;0,28;-0,51;0,84;-5,36;0,00
25.328;-0,54;-1,56;-0,14;0,17;1,62;0,28;-0,51;0,84;-5,36;0,00
25.358;-0,54;-1,56;-0,14;-3,21;-2,55;0,62;-0,51;0,84;-5,36;0,00
25.359;-0,54;-1,56;-0,14;-5,27;-2,59;0,87;-0,51;0,84;-5,36;0,00
25.368;-0,54;-1,56;-0,14;-5,27;-2,59;0,87;-0,58;-1,18;-5,57;0,00
25.397;-0,74;-1,46;-0,49;-5,27;-2,59;0,87;-0,58;-1,18;-5,57;0,00
25.427;-0,74;-1,46;-0,49;-9,38;-7,54;-0,70;-0,58;-1,18;-5,57;0,00
25.429;-0,74;-1,46;-0,49;-10,32;-7,91;-0,47;-0,58;-1,18;-5,57;0,00
25.447;-0,74;-1,46;-0,49;-10,32;-7,91;-0,47;0,40;-0,16;-2,14;0,00
25.468;-0,42;-1,31;-0,54;-10,32;-7,91;-0,47;0,40;-0,16;-2,14;0,00
25.497;-0,42;-1,31;-0,54;-9,20;-4,41;-3,05;0,40;-0,16;-2,14;0,00
25.498;-0,42;-1,31;-0,54;-9,02;-4,18;-3,69;0,40;-0,16;-2,14;0,00
25.527;-0,42;-1,31;-0,54;-9,02;-4,18;-3,69;0,71;2,47;0,84;0,00
25.537;-0,63;-1,02;-0,35;-9,02;-4,18;-3,69;0,71;2,47;0,84;0,00
25.567;-0,63;-1,02;-0,35;-9,02;-4,18;-3,69;0,03;0,74;2,27;0,00
25.568;-0,63;-1,02;-0,35;-9,39;-1,78;-2,66;0,03;0,74;2,27;0,00
25.608;-0,35;-1,28;-0,43;-9,39;-1,78;-2,66;0,03;0,74;2,27;0,00
25.638;-0,35;-1,28;-0,43;-6,66;-1,99;-2,83;0,03;0,74;2,27;0,00
25.638;-0,35;-1,28;-0,43;-5,51;-1,79;-2,64;0,03;0,74;2,27;0,00
25.648;-0,35;-1,28;-0,43;-5,51;-1,79;-2,64;-0,71;1,02;3,05;0,00
25.677;-0,30;-1,04;-0,24;-5,51;-1,79;-2,64;-0,71;1,02;3,05;0,00
25.707;-0,30;-1,04;-0,24;-3,11;-1,93;-1,60;-0,71;1,02;3,05;0,00
25.708;-0,30;-1,04;-0,24;-1,76;-2,09;-1,19;-0,71;1,02;3,05;0,00
25.727;-0,30;-1,04;-0,24;-1,76;-2,09;-1,19;-0,96;0,86;3,64;0,00
25.747;-0,27;-1,10;-0,14;-1,76;-2,09;-1,19;-0,96;0,86;3,64;0,00
25.767;-0,27;-1,10;-0,14;-1,76;-2,09;-1,19;-1,22;0,08;3,58;0,00
25.79;-0,27;-1,10;-0,14;-0,02;-1,04;0,90;-1,22;0,08;3,58;0,00
25.791;-0,27;-1,10;-0,14;1,22;-1,65;1,33;-1,22;0,08;3,58;0,00
25.818;-0,26;-1,33;-0,11;1,22;-1,65;1,33;-1,22;0,08;3,58;0,00
25.847;-0,26;-1,33;-0,11;1,22;-1,65;1,33;-1,45;-0,73;3,53;0,00
25.848;-0,26;-1,33;-0,11;2,65;-3,92;2,13;-1,45;-0,73;3,53;0,00
25.887;-0,22;-1,47;-0,09;2,65;-3,92;2,13;-1,45;-0,73;3,53;0,00
25.918;-0,22;-1,47;-0,09;3,83;-7,08;2,81;-1,45;-0,73;3,53;0,00
25.918;-0,22;-1,47;-0,09;4,97;-8,07;2,32;-1,45;-0,73;3,53;0,00
25.928;-0,22;-1,47;-0,09;4,97;-8,07;2,32;-0,96;-2,57;3,45;0,00
25.957;-0,12;-1,32;-0,11;4,97;-8,07;2,32;-0,96;-2,57;3,45;0,00
25.967;-0,12;-1,32;-0,11;4,97;-8,07;2,32;-0,30;-1,76;2,33;0,00
25.988;-0,12;-1,32;-0,11;6,65;-9,15;1,06;-0,30;-1,76;2,33;0,00
25.991;-0,12;-1,32;-0,11;7,06;-9,77;0,54;-0,30;-1,76;2,33;0,00
26.028;-0,12;-1,03;-0,16;7,06;-9,77;0,54;-0,30;-1,76;2,33;0,00
26.048;-0,12;-1,03;-0,16;7,06;-9,77;0,54;0,29;-0,46;-0,12;0,00
26.057;-0,12;-1,03;-0,16;7,94;-7,29;0,63;0,29;-0,46;-0,12;0,00
26.058;-0,12;-1,03;-0,16;7,67;-6,85;0,46;0,29;-0,46;-0,12;0,00
26.097;-0,27;-0,90;-0,24;7,67;-6,85;0,46;0,29;-0,46;-0,12;0,00
26.128;-0,27;-0,90;-0,24;7,67;-6,85;0,46;0,56;0,32;-2,65;0,00
26.129;-0,27;-0,90;-0,24;5,94;-4,61;-0,90;0,56;0,32;-2,65;0,00
26.167;-0,27;-0,90;-0,24;5,94;-4,61;-0,90;0,58;0,46;-3,76;0,00
26.168;-0,24;-0,62;-0,19;5,94;-4,61;-0,90;0,58;0,46;-3,76;0,00
26.198;-0,24;-0,62;-0,19;4,32;-0,37;-0,82;0,58;0,46;-3,76;0,00
26.198;-0,24;-0,62;-0,19;3,15;0,63;-0,86;0,58;0,46;-3,76;0,00
26.237;-0,33;-0,96;-0,25;3,15;0,63;-0,86;0,58;0,46;-3,76;0,00
26.247;-0,33;-0,96;-0,25;3,15;0,63;-0,86;0,34;0,84;-4,20;0,00
26.267;-0,33;-0,96;-0,25;2,06;1,50;-0,56;0,34;0,84;-4,20;0,00
26.268;-0,33;-0,96;-0,25;0,46;2,11;-0,48;0,34;0,84;-4,20;0,00
26.308;-0,53;-1,52;-0,32;0,46;2,11;-0,48;0,34;0,84;-4,20;0,00
26.327;-0,53;-1,52;-0,32;0,46;2,11;-0,48;-0,29;0,70;-4,96;0,00
26.337;-0,53;-1,52;-0,32;-2,98;-2,07;-1,34;-0,29;0,70;-4,96;0,00
26.338;-0,53;-1,52;-0,32;-4,96;-2,07;-1,13;-0,29;0,70;-4,96;0,00
26.367;-0,53;-1,52;-0,32;-4,96;-2,07;-1,13;-0,74;-1,02;-5,70;0,00
26.378;-0,72;-1,74;-0,63;-4,96;-2,07;-1,13;-0,74;-1,02;-5,70;0,00
26.407;-0,72;-1,74;-0,63;-9,19;-8,18;-2,33;-0,74;-1,02;-5,70;0,00
26.447;-0,72;-1,74;-0,63;-9,19;-8,18;-2,33;-0,57;-0,00;-2,86;0,00
26.448;-0,56;-1,17;-0,45;-9,19;-8,18;-2,33;-0,57;-0,00;-2,86;0,00
26.478;-0,56;-1,17;-0,45;-10,89;-6,17;-2,68;-0,57;-0,00;-2,86;0,00
26.479;-0,56;-1,17;-0,45;-11,29;-6,36;-2,68;-0,57;-0,00;-2,86;0,00
26.517;-0,52;-1,10;-0,24;-11,29;-6,36;-2,68;-0,57;-0,00;-2,86;0,00
26.527;-0,52;-1,10;-0,24;-11,29;-6,36;-2,68;-0,02;2,24;1,04;0,00
26.548;-0,52;-1,10;-0,24;-8,69;-1,92;-1,70;-0,02;2,24;1,04;0,00
26.55;-0,52;-1,10;-0,24;-8,02;-1,57;-1,97;-0,02;2,24;1,04;0,00
26.567;-0,52;-1,10;-0,24;-8,02;-1,57;-1,97;-0,60;1,93;2,76;0,00
26.588;-0,44;-1,17;-0,24;-8,02;-1,57;-1,97;-0,60;1,93;2,76;0,00
26.617;-0,44;-1,17;-0,24;-7,83;-2,54;0,11;-0,60;1,93;2,76;0,00
26.618;-0,44;-1,17;-0,24;-6,53;-2,31;0,37;-0,60;1,93;2,76;0,00
26.647;-0,44;-1,17;-0,24;-6,53;-2,31;0,37;-0,74;-0,53;3,52;0,00
26.657;-0,34;-0,99;-0,16;-6,53;-2,31;0,37;-0,74;-0,53;3,52;0,00
26.687;-0,34;-0,99;-0,16;-3,68;-0,77;0,49;-0,74;-0,53;3,52;0,00
26.727;-0,34;-0,99;-0,16;-3,68;-0,77;0,49;-0,19;-2,09;4,10;0,00
26.728;-0,15;-1,17;-0,19;-3,68;-0,77;0,49;-0,19;-2,09;4,10;0,00
26.757;-0,15;-1,17;-0,19;-0,31;-1,16;0,81;-0,19;-2,09;4,10;0,00
26.758;-0,15;-1,17;-0,19;1,31;-1,64;0,70;-0,19;-2,09;4,10;0,00
26.767;-0,15;-1,17;-0,19;1,31;-1,64;0,70;-0,31;0,19;4,13;0,00
26.797;-0,27;-1,37;-0,18;1,31;-1,64;0,70;-0,31;0,19;4,13;0,00
26.827;-0,27;-1,37;-0,18;3,28;-3,96;0,66;-0,31;0,19;4,13;0,00
26.828;-0,27;-1,37;-0,18;4,25;-4,79;1,08;-0,31;0,19;4,13;0,00
26.847;-0,27;-1,37;-0,18;4,25;-4,79;1,08;-0,86;0,33;3,52;0,00
26.867;-0,28;-1,48;-0,14;4,25;-4,79;1,08;-0,86;0,33;3,52;0,00
26.897;-0,28;-1,48;-0,14;3,70;-8,19;1,60;-0,86;0,33;3,52;0,00
26.898;-0,28;-1,48;-0,14;4,49;-8,91;1,23;-0,86;0,33;3,52;0,00
26.927;-0,28;-1,48;-0,14;4,49;-8,91;1,23;-0,61;-1,84;2,56;0,00
26.937;-0,02;-1,23;-0,13;4,49;-8,91;1,23;-0,61;-1,84;2,56;0,00
26.967;-0,02;-1,23;-0,13;4,49;-8,91;1,23;0,22;-1,48;0,66;0,00
26.968;-0,02;-1,23;-0,13;6,29;-8,46;0,95;0,22;-1,48;0,66;0,00
27.007;-0,00;-1,07;-0,25;6,29;-8,46;0,95;0,22;-1,48;0,66;0,00
27.037;-0,00;-1,07;-0,25;8,75;-5,30;0,00;0,22;-1,48;0,66;0,00
27.038;-0,00;-1,07;-0,25;8,43;-4,87;-0,27;0,22;-1,48;0,66;0,00
27.047;-0,00;-1,07;-0,25;8,43;-4,87;-0,27;0,63;0,23;-1,55;0,00
27.077;-0,19;-0,98;-0,23;8,43;-4,87;-0,27;0,63;0,23;-1,55;0,00
27.107;-0,19;-0,98;-0,23;6,37;-4,53;-1,28;0,63;0,23;-1,55;0,00
27.108;-0,19;-0,98;-0,23;5,36;-3,62;-1,02;0,63;0,23;-1,55;0,00
27.127;-0,19;-0,98;-0,23;5,36;-3,62;-1,02;0,65;1,49;-3,06;0,00
27.147;-0,26;-0,63;-0,10;5,36;-3,62;-1,02;0,65;1,49;-3,06;0,00
27.167;-0,26;-0,63;-0,10;5,36;-3,62;-1,02;0,53;0,37;-3,51;0,00
27.177;-0,26;-0,63;-0,10;2,61;0,28;0,29;0,53;0,37;-3,51;0,00
27.177;-0,26;-0,63;-0,10;1,37;0,92;0,15;0,53;0,37;-3,51;0,00
27.217;-0,32;-1,03;-0,11;1,37;0,92;0,15;0,53;0,37;-3,51;0,00
27.247;-0,32;-1,03;-0,11;1,37;0,92;0,15;-0,05;-0,12;-3,99;0,00
27.248;-0,32;-1,03;-0,11;-0,19;2,14;0,53;-0,05;-0,12;-3,99;0,00
27.287;-0,50;-1,58;-0,18;-0,19;2,14;0,53;-0,05;-0,12;-3,99;0,00
27.317;-0,50;-1,58;-0,18;-2,83;-3,40;1,01;-0,05;-0,12;-3,99;0,00
27.318;-0,50;-1,58;-0,18;-4,62;-3,36;1,11;-0,05;-0,12;-3,99;0,00
27.327;-0,50;-1,58;-0,18;-4,62;-3,36;1,11;-0,29;-0,62;-4,99;0,00
27.357;-0,61;-1,48;-0,50;-4,62;-3,36;1,11;-0,29;-0,62;-4,99;0,00
27.367;-0,61;-1,48;-0,50;-4,62;-3,36;1,11;0,13;0,31;-3,43;0,00
27.387;-0,61;-1,48;-0,50;-8,27;-6,38;-1,86;0,13;0,31;-3,43;0,00
27.388;-0,61;-1,48;-0,50;-9,31;-6,65;-1,96;0,13;0,31;-3,43;0,00
27.427;-0,61;-1,19;-0,51;-9,31;-6,65;-1,96;0,13;0,31;-3,43;0,00
27.447;-0,61;-1,19;-0,51;-9,31;-6,65;-1,96;0,53;0,79;-0,33;0,00
27.457;-0,61;-1,19;-0,51;-9,70;-4,97;-4,00;0,53;0,79;-0,33;0,00
27.458;-0,61;-1,19;-0,51;-9,42;-4,81;-4,09;0,53;0,79;-0,33;0,00
27.497;-0,45;-1,10;-0,37;-9,42;-4,81;-4,09;0,53;0,79;-0,33;0,00
27.527;-0,45;-1,10;-0,37;-9,42;-4,81;-4,09;-0,14;-0,78;1,78;0,00
27.527;-0,45;-1,10;-0,37;-8,56;-0,59;-2,22;-0,14;-0,78;1,78;0,00
27.567;-0,45;-1,10;-0,37;-8,56;-0,59;-2,22;-0,52;1,24;3,05;0,00
27.567;-0,33;-1,05;-0,38;-8,56;-0,59;-2,22;-0,52;1,24;3,05;0,00
27.597;-0,33;-1,05;-0,38;-5,30;-1,86;-2,22;-0,52;1,24;3,05;0,00
27.597;-0,33;-1,05;-0,38;-4,11;-1,72;-2,03;-0,52;1,24;3,05;0,00
27.637;-0,47;-0,93;-0,11;-4,11;-1,72;-2,03;-0,52;1,24;3,05;0,00
27.647;-0,47;-0,93;-0,11;-4,11;-1,72;-2,03;-0,74;0,24;3,53;0,00
27.667;-0,47;-0,93;-0,11;-2,92;0,65;-0,42;-0,74;0,24;3,53;0,00
27.667;-0,47;-0,93;-0,11;-1,48;0,37;-0,18;-0,74;0,24;3,53;0,00
27.707;-0,48;-1,46;0,01;-1,48;0,37;-0,18;-0,74;0,24;3,53;0,00
27.727;-0,48;-1,46;0,01;-1,48;0,37;-0,18;-0,54;-1,78;3,89;0,00
27.737;-0,48;-1,46;0,01;-1,25;-1,87;2,04;-0,54;-1,78;3,89;0,00
27.738;-0,48;-1,46;0,01;0,40;-2,65;1,77;-0,54;-1,78;3,89;0,00
27.767;-0,48;-1,46;0,01;0,40;-2,65;1,77;0,06;-1,33;4,91;0,00
27.777;-0,43;-1,75;-0,05;0,40;-2,65;1,77;0,06;-1,33;4,91;0,00
27.807;-0,43;-1,75;-0,05;2,73;-9,38;1,61;0,06;-1,33;4,91;0,00
27.848;-0,43;-1,75;-0,05;2,73;-9,38;1,61;0,36;-1,94;4,80;0,00
27.848;-0,31;-1,47;-0,07;2,73;-9,38;1,61;0,36;-1,94;4,80;0,00
27.877;-0,31;-1,47;-0,07;4,20;-10,80;0,69;0,36;-1,94;4,80;0,00
27.878;-0,31;-1,47;-0,07;5,04;-12,15;-0,09;0,36;-1,94;4,80;0,00
27.917;-0,05;-0,86;-0,14;5,04;-12,15;-0,09;0,36;-1,94;4,80;0,00
27.929;-0,05;-0,86;-0,14;5,04;-12,15;-0,09;0,45;-0,83;2,72;0,00
27.947;-0,05;-0,86;-0,14;7,45;-8,59;-0,48;0,45;-0,83;2,72;0,00
27.948;-0,05;-0,86;-0,14;7,48;-8,93;-0,67;0,45;-0,83;2,72;0,00
27.968;-0,05;-0,86;-0,14;7,48;-8,93;-0,67;0,56;0,04;-0,17;0,00
27.989;-0,12;-0,85;-0,30;7,48;-8,93;-0,67;0,56;0,04;-0,17;0,00
28.017;-0,12;-0,85;-0,30;9,25;-4,56;-3,19;0,56;0,04;-0,17;0,00
28.018;-0,12;-0,85;-0,30;8,78;-3,67;-2,89;0,56;0,04;-0,17;0,00
28.047;-0,12;-0,85;-0,30;8,78;-3,67;-2,89;0,33;1,01;-2,97;0,00
28.068;-0,23;-0,64;-0,19;8,78;-3,67;-2,89;0,33;1,01;-2,97;0,00
28.087;-0,23;-0,64;-0,19;5,92;-2,55;-1,76;0,33;1,01;-2,97;0,00
28.127;-0,23;-0,64;-0,19;5,92;-2,55;-1,76;0,23;0,82;-4,20;0,00
28.128;-0,22;-0,72;-0,15;5,92;-2,55;-1,76;0,23;0,82;-4,20;0,00
28.157;-0,22;-0,72;-0,15;4,93;0,79;-1,08;0,23;0,82;-4,20;0,00
28.158;-0,22;-0,72;-0,15;3,58;1,87;-0,90;0,23;0,82;-4,20;0,00
28.167;-0,22;-0,72;-0,15;3,58;1,87;-0,90;-0,12;1,08;-4,80;0,00
28.197;-0,57;-1,43;-0,12;3,58;1,87;-0,90;-0,12;1,08;-4,80;0,00
28.227;-0,57;-1,43;-0,12;0,76;-0,93;-0,32;-0,12;1,08;-4,80;0,00
28.228;-0,57;-1,43;-0,12;-1,22;-0,30;0,00;-0,12;1,08;-4,80;0,00
28.247;-0,57;-1,43;-0,12;-1,22;-0,30;0,00;-0,29;1,01;-5,47;0,00
28.267;-0,70;-1,78;-0,36;-1,22;-0,30;0,00;-0,29;1,01;-5,47;0,00
28.297;-0,70;-1,78;-0,36;-6,97;-6,92;0,61;-0,29;1,01;-5,47;0,00
28.298;-0,70;-1,78;-0,36;-8,67;-6,98;0,60;-0,29;1,01;-5,47;0,00
28.327;-0,70;-1,78;-0,36;-8,67;-6,98;0,60;0,07;-0,01;-4,65;0,00
28.337;-0,77;-1,59;-0,56;-8,67;-6,98;0,60;0,07;-0,01;-4,65;0,00
28.367;-0,77;-1,59;-0,56;-8,67;-6,98;0,60;0,30;3,03;-2,01;0,00
28.368;-0,77;-1,59;-0,56;-9,66;-7,75;-3,90;0,30;3,03;-2,01;0,00
28.407;-0,68;-0,93;-0,46;-9,66;-7,75;-3,90;0,30;3,03;-2,01;0,00
28.437;-0,68;-0,93;-0,46;-11,39;-3,65;-4,64;0,30;3,03;-2,01;0,00
28.438;-0,68;-0,93;-0,46;-11,24;-3,58;-4,93;0,30;3,03;-2,01;0,00
28.447;-0,68;-0,93;-0,46;-11,24;-3,58;-4,93;-0,17;1,71;0,87;0,00
28.477;-0,42;-1,12;-0,38;-11,24;-3,58;-4,93;-0,17;1,71;0,87;0,00
28.511;-0,42;-1,12;-0,38;-7,88;-0,07;-3,38;-0,17;1,71;0,87;0,00
28.511;-0,42;-1,12;-0,38;-6,86;0,12;-3,06;-0,17;1,71;0,87;0,00
28.527;-0,42;-1,12;-0,38;-6,86;0,12;-3,06;-0,90;0,56;2,52;0,00
28.547;-0,42;-0,97;-0,24;-6,86;0,12;-3,06;-0,90;0,56;2,52;0,00
28.567;-0,42;-0,97;-0,24;-6,86;0,12;-3,06;-1,20;-0,10;3,25;0,00
28.577;-0,42;-0,97;-0,24;-4,41;-1,29;-1,86;-1,20;-0,10;3,25;0,00
28.578;-0,42;-0,97;-0,24;-3,07;-1,37;-1,37;-1,20;-0,10;3,25;0,00
28.617;-0,54;-1,02;-0,01;-3,07;-1,37;-1,37;-1,20;-0,10;3,25;0,00
28.647;-0,54;-1,02;-0,01;-3,07;-1,37;-1,37;-0,90;-1,50;3,85;0,00
28.648;-0,54;-1,02;-0,01;-2,30;0,25;0,78;-0,90;-1,50;3,85;0,00
28.687;-0,59;-1,52;0,05;-2,30;0,25;0,78;-0,90;-1,50;3,85;0,00
28.717;-0,59;-1,52;0,05;-1,40;-3,08;2,54;-0,90;-1,50;3,85;0,00
28.718;-0,59;-1,52;0,05;0,29;-4,00;2,46;-0,90;-1,50;3,85;0,00
28.728;-0,59;-1,52;0,05;0,29;-4,00;2,46;-0,57;-1,23;4,93;0,00
28.757;-0,70;-1,72;-0,06;0,29;-4,00;2,46;-0,57;-1,23;4,93;0,00
28.768;-0,70;-1,72;-0,06;0,29;-4,00;2,46;-0,62;-1,95;5,20;0,00
28.788;-0,70;-1,72;-0,06;1,11;-10,19;2,21;-0,62;-1,95;5,20;0,00
28.788;-0,70;-1,72;-0,06;2,39;-11,69;1,67;-0,62;-1,95;5,20;0,00
28.828;-0,49;-1,25;-0,12;2,39;-11,69;1,67;-0,62;-1,95;5,20;0,00
28.848;-0,49;-1,25;-0,12;2,39;-11,69;1,67;-0,46;-1,88;3,69;0,00
28.858;-0,49;-1,25;-0,12;2,76;-11,66;-0,54;-0,46;-1,88;3,69;0,00
28.859;-0,49;-1,25;-0,12;3,11;-12,64;-1,12;-0,46;-1,88;3,69;0,00
28.897;-0,22;-0,79;-0,28;3,11;-12,64;-1,12;-0,46;-1,88;3,69;0,00
28.927;-0,22;-0,79;-0,28;3,11;-12,64;-1,12;0,37;-0,85;1,59;0,00
28.928;-0,22;-0,79;-0,28;6,46;-7,56;-1,73;0,37;-0,85;1,59;0,00
28.968;-0,22;-0,79;-0,28;6,46;-7,56;-1,73;0,54;0,48;-0,74;0,00
28.968;-0,25;-0,65;-0,15;6,46;-7,56;-1,73;0,54;0,48;-0,74;0,00
28.997;-0,25;-0,65;-0,15;7,56;-5,63;-2,94;0,54;0,48;-0,74;0,00
28.999;-0,25;-0,65;-0,15;7,36;-5,17;-2,73;0,54;0,48;-0,74;0,00
29.037;-0,12;-0,45;-0,09;7,36;-5,17;-2,73;0,54;0,48;-0,74;0,00
29.067;-0,12;-0,45;-0,09;7,36;-5,17;-2,73;0,41;0,23;-2,42;0,00
29.068;-0,12;-0,45;-0,09;7,11;-2,01;-1,00;0,41;0,23;-2,42;0,00
29.068;-0,12;-0,45;-0,09;6,60;-1,02;-0,96;0,41;0,23;-2,42;0,00
29.107;-0,31;-0,63;-0,06;6,60;-1,02;-0,96;0,41;0,23;-2,42;0,00
29.127;-0,31;-0,63;-0,06;6,60;-1,02;-0,96;0,06;0,90;-3,30;0,00
29.138;-0,31;-0,63;-0,06;6,37;0,44;-0,51;0,06;0,90;-3,30;0,00
29.138;-0,31;-0,63;-0,06;5,37;1,54;-0,05;0,06;0,90;-3,30;0,00
29.167;-0,31;-0,63;-0,06;5,37;1,54;-0,05;-0,24;1,57;-4,55;0,00
29.177;-0,53;-1,05;-0,08;5,37;1,54;-0,05;-0,24;1,57;-4,55;0,00
29.207;-0,53;-1,05;-0,08;1,47;-0,16;0,60;-0,24;1,57;-4,55;0,00
29.247;-0,53;-1,05;-0,08;1,47;-0,16;0,60;-0,21;0,60;-6,62;0,00
29.248;-0,80;-1,81;-0,36;1,47;-0,16;0,60;-0,21;0,60;-6,62;0,00
29.277;-0,80;-1,81;-0,36;-2,67;-4,32;0,30;-0,21;0,60;-6,62;0,00
29.278;-0,80;-1,81;-0,36;-5,22;-3,60;0,39;-0,21;0,60;-6,62;0,00
29.318;-0,84;-1,96;-0,55;-5,22;-3,60;0,39;-0,21;0,60;-6,62;0,00
29.327;-0,84;-1,96;-0,55;-5,22;-3,60;0,39;-0,80;0,81;-7,21;0,00
29.347;-0,84;-1,96;-0,55;-10,30;-11,23;-3,58;-0,80;0,81;-7,21;0,00
29.348;-0,84;-1,96;-0,55;-12,17;-11,71;-3,27;-0,80;0,81;-7,21;0,00
29.367;-0,84;-1,96;-0,55;-12,17;-11,71;-3,27;-0,07;0,79;-2,37;0,00
29.389;-0,46;-1,19;-0,56;-12,17;-11,71;-3,27;-0,07;0,79;-2,37;0,00
29.417;-0,46;-1,19;-0,56;-10,99;-6,53;-3,28;-0,07;0,79;-2,37;0,00
29.418;-0,46;-1,19;-0,56;-10,50;-6,20;-3,64;-0,07;0,79;-2,37;0,00
29.447;-0,46;-1,19;-0,56;-10,50;-6,20;-3,64;0,19;2,04;1,96;0,00
29.457;-0,53;-0,96;-0,27;-10,50;-6,20;-3,64;0,19;2,04;1,96;0,00
29.488;-0,53;-0,96;-0,27;-6,71;-1,07;-2,53;0,19;2,04;1,96;0,00
29.527;-0,53;-0,96;-0,27;-6,71;-1,07;-2,53;-0,47;1,70;2,62;0,00
29.528;-0,45;-0,72;-0,25;-6,71;-1,07;-2,53;-0,47;1,70;2,62;0,00
29.557;-0,45;-0,72;-0,25;-6,61;1,17;-1,14;-0,47;1,70;2,62;0,00
29.558;-0,45;-0,72;-0,25;-5,55;1,22;-0,86;-0,47;1,70;2,62;0,00
29.567;-0,45;-0,72;-0,25;-5,55;1,22;-0,86;-1,06;-0,70;2,72;0,00
29.597;-0,32;-0,79;-0,08;-5,55;1,22;-0,86;-1,06;-0,70;2,72;0,00
29.634;-0,32;-0,79;-0,08;-3,49;2,60;0,56;-1,06;-0,70;2,72;0,00
29.635;-0,32;-0,79;-0,08;-2,20;2,31;0,88;-1,06;-0,70;2,72;0,00
29.659;-0,32;-0,79;-0,08;-2,20;2,31;0,88;-1,13;-2,07;2,89;0,00
29.667;-0,27;-1,33;-0,12;-2,20;2,31;0,88;-1,13;-2,07;2,89;0,00
29.698;-0,27;-1,33;-0,12;0,73;-0,24;1,94;-1,13;-2,07;2,89;0,00
29.699;-0,27;-1,33;-0,12;1,91;-0,81;2,05;-1,13;-2,07;2,89;0,00
29.727;-0,27;-1,33;-0,12;1,91;-0,81;2,05;-0,95;-1,35;3,13;0,00
29.737;-0,35;-1,77;-0,28;1,91;-0,81;2,05;-0,95;-1,35;3,13;0,00
29.767;-0,35;-1,77;-0,28;1,91;-0,81;2,05;-0,18;-2,36;3,45;0,00
29.768;-0,35;-1,77;-0,28;2,04;-8,62;0,88;-0,18;-2,36;3,45;0,00
29.807;-0,07;-1,60;-0,29;2,04;-8,62;0,88;-0,18;-2,36;3,45;0,00
29.837;-0,07;-1,60;-0,29;4,29;-9,69;-1,02;-0,18;-2,36;3,45;0,00
29.839;-0,07;-1,60;-0,29;5,28;-10,50;-1,77;-0,18;-2,36;3,45;0,00
29.847;-0,07;-1,60;-0,29;5,28;-10,50;-1,77;0,98;-1,03;3,13;0,00
29.877;0,01;-1,15;-0,27;5,28;-10,50;-1,77;0,98;-1,03;3,13;0,00
29.907;0,01;-1,15;-0,27;8,27;-8,24;-1,48;0,98;-1,03;3,13;0,00
29.908;0,01;-1,15;-0,27;8,34;-8,45;-1,36;0,98;-1,03;3,13;0,00
29.927;0,01;-1,15;-0,27;8,34;-8,45;-1,36;1,12;0,97;0,91;0,00
29.947;-0,12;-0,89;-0,15;8,34;-8,45;-1,36;1,12;0,97;0,91;0,00
29.967;-0,12;-0,89;-0,15;8,34;-8,45;-1,36;0,80;-0,14;-1,75;0,00
29.977;-0,12;-0,89;-0,15;7,36;-4,86;-0,84;0,80;-0,14;-1,75;0,00
29.978;-0,12;-0,89;-0,15;6,79;-4,14;-1,09;0,80;-0,14;-1,75;0,00
30.017;-0,10;-0,51;-0,18;6,79;-4,14;-1,09;0,80;-0,14;-1,75;0,00
30.047;-0,10;-0,51;-0,18;6,79;-4,14;-1,09;0,40;-0,28;-3,13;0,00
30.049;-0,10;-0,51;-0,18;5,45;0,29;-0,79;0,40;-0,28;-3,13;0,00
30.092;-0,23;-0,66;-0,11;5,45;0,29;-0,79;0,40;-0,28;-3,13;0,00
30.118;-0,23;-0,66;-0,11;4,22;2,89;-0,94;0,40;-0,28;-3,13;0,00
30.119;-0,23;-0,66;-0,11;2,93;3,54;-0,74;0,40;-0,28;-3,13;0,00
30.127;-0,23;-0,66;-0,11;2,93;3,54;-0,74;-0,16;0,80;-3,86;0,00
30.157;-0,51;-1,21;-0,20;2,93;3,54;-0,74;-0,16;0,80;-3,86;0,00
30.167;-0,51;-1,21;-0,20;2,93;3,54;-0,74;-0,61;0,50;-5,37;0,00
30.188;-0,51;-1,21;-0,20;-0,79;0,70;0,09;-0,61;0,50;-5,37;0,00
30.188;-0,51;-1,21;-0,20;-2,81;0,99;0,36;-0,61;0,50;-5,37;0,00
30.227;-0,65;-1,75;-0,56;-2,81;0,99;0,36;-0,61;0,50;-5,37;0,00
30.247;-0,65;-1,75;-0,56;-2,81;0,99;0,36;-0,93;0,13;-5,58;0,00
30.257;-0,65;-1,75;-0,56;-7,32;-5,36;-1,40;-0,93;0,13;-5,58;0,00
30.257;-0,65;-1,75;-0,56;-9,04;-5,86;-1,06;-0,93;0,13;-5,58;0,00
30.297;-0,62;-1,20;-0,49;-9,04;-5,86;-1,06;-0,93;0,13;-5,58;0,00
30.328;-0,62;-1,20;-0,49;-10,61;-6,82;-3,18;-0,93;0,13;-5,58;0,00
30.328;-0,62;-1,20;-0,49;-10,61;-6,82;-3,18;-0,19;0,74;-1,65;0,00
30.367;-0,62;-1,20;-0,49;-10,61;-6,82;-3,18;0,39;1,25;2,08;0,00
30.368;-0,67;-1,25;-0,37;-10,61;-6,82;-3,18;0,39;1,25;2,08;0,00
30.397;-0,67;-1,25;-0,37;-9,67;-2,49;-3,11;0,39;1,25;2,08;0,00
30.398;-0,67;-1,25;-0,37;-8,79;-2,13;-3,36;0,39;1,25;2,08;0,00
30.438;-0,45;-1,28;-0,32;-8,79;-2,13;-3,36;0,39;1,25;2,08;0,00
30.447;-0,45;-1,28;-0,32;-8,79;-2,13;-3,36;-0,45;2,03;2,66;0,00
30.468;-0,45;-1,28;-0,32;-7,45;-3,81;-1,90;-0,45;2,03;2,66;0,00
30.469;-0,45;-1,28;-0,32;-6,47;-3,65;-1,69;-0,45;2,03;2,66;0,00
30.507;-0,37;-1,06;-0,12;-6,47;-3,65;-1,69;-0,45;2,03;2,66;0,00
30.528;-0,37;-1,06;-0,12;-6,47;-3,65;-1,69;-1,15;0,74;2,82;0,00
30.537;-0,37;-1,06;-0,12;-3,89;-1,93;-0,17;-1,15;0,74;2,82;0,00
30.538;-0,37;-1,06;-0,12;-2,70;-2,11;0,27;-1,15;0,74;2,82;0,00
30.567;-0,37;-1,06;-0,12;-2,70;-2,11;0,27;-1,21;-0,70;3,20;0,00
30.581;-0,29;-1,16;-0,10;-2,70;-2,11;0,27;-1,21;-0,70;3,20;0,00
30.607;-0,29;-1,16;-0,10;-0,31;-1,42;2,13;-1,21;-0,70;3,20;0,00
30.648;-0,29;-1,16;-0,10;-0,31;-1,42;2,13;-1,04;-1,34;3,73;0,00
30.648;-0,28;-1,43;-0,12;-0,31;-1,42;2,13;-1,04;-1,34;3,73;0,00
30.677;-0,28;-1,43;-0,12;1,25;-4,09;2,10;-1,04;-1,34;3,73;0,00
30.678;-0,28;-1,43;-0,12;2,67;-4,89;2,05;-1,04;-1,34;3,73;0,00
30.717;-0,13;-1,68;-0,20;2,67;-4,89;2,05;-1,04;-1,34;3,73;0,00
30.728;-0,13;-1,68;-0,20;2,67;-4,89;2,05;-0,36;-2,68;4,58;0,00
30.747;-0,13;-1,68;-0,20;4,51;-8,70;1,16;-0,36;-2,68;4,58;0,00
30.748;-0,13;-1,68;-0,20;5,80;-10,02;0,23;-0,36;-2,68;4,58;0,00
30.767;-0,13;-1,68;-0,20;5,80;-10,02;0,23;0,50;-1,76;4,15;0,00
30.789;0,14;-1,29;-0,13;5,80;-10,02;0,23;0,50;-1,76;4,15;0,00
30.817;0,14;-1,29;-0,13;9,17;-11,37;-1,25;0,50;-1,76;4,15;0,00
30.819;0,14;-1,29;-0,13;9,33;-11,88;-1,46;0,50;-1,76;4,15;0,00
30.848;0,14;-1,29;-0,13;9,33;-11,88;-1,46;0,50;-0,72;0,62;0,00
30.868;0,13;-1,02;-0,14;9,33;-11,88;-1,46;0,50;-0,72;0,62;0,00
30.888;0,13;-1,02;-0,14;9,89;-6,85;-0,13;0,50;-0,72;0,62;0,00
30.928;0,13;-1,02;-0,14;9,89;-6,85;-0,13;0,40;-0,71;-3,34;0,00
30.928;-0,10;-1,26;-0,29;9,89;-6,85;-0,13;0,40;-0,71;-3,34;0,00
30.957;-0,10;-1,26;-0,29;9,37;-6,00;-2,66;0,40;-0,71;-3,34;0,00
30.958;-0,10;-1,26;-0,29;8,17;-4,52;-2,40;0,40;-0,71;-3,34;0,00
30.967;-0,10;-1,26;-0,29;8,17;-4,52;-2,40;0,06;2,13;-5,38;0,00
30.997;-0,37;-1,26;-0,19;8,17;-4,52;-2,40;0,06;2,13;-5,38;0,00
31.027;-0,37;-1,26;-0,19;2,79;-4,31;-1,44;0,06;2,13;-5,38;0,00
31.028;-0,37;-1,26;-0,19;0,60;-3,21;-1,11;0,06;2,13;-5,38;0,00
31.047;-0,37;-1,26;-0,19;0,60;-3,21;-1,11;0,21;1,80;-6,36;0,00
31.067;-0,59;-1,52;-0,36;0,60;-3,21;-1,11;0,21;1,80;-6,36;0,00
31.099;-0,59;-1,52;-0,36;-4,01;-3,86;-1,29;0,21;1,80;-6,36;0,00
31.1;-0,59;-1,52;-0,36;-6,39;-3,96;-1,21;0,21;1,80;-6,36;0,00
31.13;-0,59;-1,52;-0,36;-6,39;-3,96;-1,21;-0,20;0,66;-6,18;0,00
31.137;-0,65;-1,40;-0,61;-6,39;-3,96;-1,21;-0,20;0,66;-6,18;0,00
31.167;-0,65;-1,40;-0,61;-9,51;-5,76;-2,91;-0,20;0,66;-6,18;0,00
31.168;-0,65;-1,40;-0,61;-9,51;-5,76;-2,91;-0,08;0,89;-3,82;0,00
31.207;-0,63;-1,17;-0,59;-9,51;-5,76;-2,91;-0,08;0,89;-3,82;0,00
31.237;-0,63;-1,17;-0,59;-11,38;-4,34;-5,27;-0,08;0,89;-3,82;0,00
31.238;-0,63;-1,17;-0,59;-11,71;-4,54;-5,54;-0,08;0,89;-3,82;0,00
31.247;-0,63;-1,17;-0,59;-11,71;-4,54;-5,54;0,09;1,25;-0,56;0,00
31.277;-0,61;-1,11;-0,50;-11,71;-4,54;-5,54;0,09;1,25;-0,56;0,00
31.31;-0,61;-1,11;-0,50;-10,71;-2,46;-4,18;0,09;1,25;-0,56;0,00
31.311;-0,61;-1,11;-0,50;-10,18;-2,25;-3,97;0,09;1,25;-0,56;0,00
31.33;-0,61;-1,11;-0,50;-10,18;-2,25;-3,97;-0,49;-0,15;1,20;0,00
31.347;-0,43;-1,44;-0,34;-10,18;-2,25;-3,97;-0,49;-0,15;1,20;0,00
31.367;-0,43;-1,44;-0,34;-10,18;-2,25;-3,97;-1,05;-0,27;2,64;0,00
31.377;-0,43;-1,44;-0,34;-8,93;-2,73;-2,84;-1,05;-0,27;2,64;0,00
31.378;-0,43;-1,44;-0,34;-7,79;-2,44;-2,38;-1,05;-0,27;2,64;0,00
31.417;-0,40;-1,51;-0,23;-7,79;-2,44;-2,38;-1,05;-0,27;2,64;0,00
31.447;-0,40;-1,51;-0,23;-7,79;-2,44;-2,38;-1,05;-1,37;3,58;0,00
31.448;-0,40;-1,51;-0,23;-4,95;-6,31;-0,41;-1,05;-1,37;3,58;0,00
31.487;-0,22;-1,16;-0,12;-4,95;-6,31;-0,41;-1,05;-1,37;3,58;0,00
31.517;-0,22;-1,16;-0,12;-2,45;-3,52;1,05;-1,05;-1,37;3,58;0,00
31.518;-0,22;-1,16;-0,12;-0,60;-3,81;1,11;-1,05;-1,37;3,58;0,00
31.528;-0,22;-1,16;-0,12;-0,60;-3,81;1,11;-0,44;-1,54;4,53;0,00
31.557;-0,23;-1,32;-0,05;-0,60;-3,81;1,11;-0,44;-1,54;4,53;0,00
31.567;-0,23;-1,32;-0,05;-0,60;-3,81;1,11;-0,10;-1,19;4,81;0,00
31.591;-0,23;-1,32;-0,05;2,13;-3,13;2,13;-0,10;-1,19;4,81;0,00
31.593;-0,23;-1,32;-0,05;3,74;-4,07;1,88;-0,10;-1,19;4,81;0,00
31.628;-0,21;-1,49;-0,13;3,74;-4,07;1,88;-0,10;-1,19;4,81;0,00
31.647;-0,21;-1,49;-0,13;3,74;-4,07;1,88;0,28;-1,15;4,64;0,00
31.657;-0,21;-1,49;-0,13;5,04;-7,60;1,24;0,28;-1,15;4,64;0,00
31.658;-0,21;-1,49;-0,13;6,06;-8,86;0,80;0,28;-1,15;4,64;0,00
31.697;-0,10;-1,37;-0,12;6,06;-8,86;0,80;0,28;-1,15;4,64;0,00
31.727;-0,10;-1,37;-0,12;6,06;-8,86;0,80;0,75;-0,43;3,95;0,00
31.728;-0,10;-1,37;-0,12;7,39;-10,57;0,25;0,75;-0,43;3,95;0,00
31.767;-0,10;-1,37;-0,12;7,39;-10,57;0,25;0,70;0,69;1,93;0,00
31.768;-0,13;-1,14;-0,14;7,39;-10,57;0,25;0,70;0,69;1,93;0,00
31.797;-0,13;-1,14;-0,14;8,27;-9,20;-0,15;0,70;0,69;1,93;0,00
31.798;-0,13;-1,14;-0,14;8,27;-9,65;0,06;0,70;0,69;1,93;0,00
31.837;-0,24;-1,04;-0,21;8,27;-9,65;0,06;0,70;0,69;1,93;0,00
31.848;-0,24;-1,04;-0,21;8,27;-9,65;0,06;0,51;-0,36;-1,44;0,00
31.868;-0,24;-1,04;-0,21;7,12;-7,71;0,23;0,51;-0,36;-1,44;0,00
31.869;-0,24;-1,04;-0,21;6,74;-6,73;-0,10;0,51;-0,36;-1,44;0,00
31.908;-0,30;-0,97;-0,27;6,74;-6,73;-0,10;0,51;-0,36;-1,44;0,00
31.933;-0,30;-0,97;-0,27;6,74;-6,73;-0,10;0,41;-0,40;-4,31;0,00
31.937;-0,30;-0,97;-0,27;5,50;-4,87;-1,52;0,41;-0,40;-4,31;0,00
31.938;-0,30;-0,97;-0,27;4,13;-3,26;-1,52;0,41;-0,40;-4,31;0,00
31.967;-0,30;-0,97;-0,27;4,13;-3,26;-1,52;0,05;0,57;-5,94;0,00
31.977;-0,36;-0,98;-0,22;4,13;-3,26;-1,52;0,05;0,57;-5,94;0,00
32.007;-0,36;-0,98;-0,22;1,38;-0,71;-1,33;0,05;0,57;-5,94;0,00
32.047;-0,36;-0,98;-0,22;1,38;-0,71;-1,33;-0,30;1,54;-6,37;0,00
32.048;-0,49;-1,47;-0,31;1,38;-0,71;-1,33;-0,30;1,54;-6,37;0,00
32.077;-0,49;-1,47;-0,31;-1,68;-2,48;-1,26;-0,30;1,54;-6,37;0,00
32.079;-0,49;-1,47;-0,31;-4,10;-2,18;-1,00;-0,30;1,54;-6,37;0,00
32.118;-0,63;-1,61;-0,47;-4,10;-2,18;-1,00;-0,30;1,54;-6,37;0,00
32.127;-0,63;-1,61;-0,47;-4,10;-2,18;-1,00;-0,43;1,06;-5,63;0,00
32.148;-0,63;-1,61;-0,47;-7,51;-6,16;-1,39;-0,43;1,06;-5,63;0,00
32.149;-0,63;-1,61;-0,47;-9,04;-6,64;-1,32;-0,43;1,06;-5,63;0,00
32.167;-0,63;-1,61;-0,47;-9,04;-6,64;-1,32;0,17;0,20;-2,80;0,00
32.187;-0,53;-1,35;-0,50;-9,04;-6,64;-1,32;0,17;0,20;-2,80;0,00
32.218;-0,53;-1,35;-0,50;-10,70;-6,62;-3,60;0,17;0,20;-2,80;0,00
32.218;-0,53;-1,35;-0,50;-10,79;-6,58;-3,98;0,17;0,20;-2,80;0,00
32.247;-0,53;-1,35;-0,50;-10,79;-6,58;-3,98;0,64;1,40;0,06;0,00
32.257;-0,58;-1,12;-0,44;-10,79;-6,58;-3,98;0,64;1,40;0,06;0,00
32.287;-0,58;-1,12;-0,44;-9,21;-3,28;-3,38;0,64;1,40;0,06;0,00
32.327;-0,58;-1,12;-0,44;-9,21;-3,28;-3,38;-0,00;1,63;1,30;0,00
32.328;-0,54;-1,19;-0,44;-9,21;-3,28;-3,38;-0,00;1,63;1,30;0,00
32.357;-0,54;-1,19;-0,44;-9,61;-1,57;-3,93;-0,00;1,63;1,30;0,00
32.358;-0,54;-1,19;-0,44;-8,91;-1,34;-3,92;-0,00;1,63;1,30;0,00
32.367;-0,54;-1,19;-0,44;-8,91;-1,34;-3,92;-1,45;2,72;2,19;0,00
32.397;-0,41;-1,34;-0,23;-8,91;-1,34;-3,92;-1,45;2,72;2,19;0,00
32.427;-0,41;-1,34;-0,23;-6,80;-3,47;-2,35;-1,45;2,72;2,19;0,00
32.427;-0,41;-1,34;-0,23;-5,74;-3,33;-1,69;-1,45;2,72;2,19;0,00
32.447;-0,41;-1,34;-0,23;-5,74;-3,33;-1,69;-1,97;1,05;3,17;0,00
32.467;-0,37;-1,24;-0,19;-5,74;-3,33;-1,69;-1,97;1,05;3,17;0,00
32.497;-0,37;-1,24;-0,19;-3,32;-2,67;0,57;-1,97;1,05;3,17;0,00
32.498;-0,37;-1,24;-0,19;-1,58;-3,01;1,17;-1,97;1,05;3,17;0,00
32.527;-0,37;-1,24;-0,19;-1,58;-3,01;1,17;-1,79;-1,46;4,27;0,00
32.537;-0,23;-1,50;-0,09;-1,58;-3,01;1,17;-1,79;-1,46;4,27;0,00
32.567;-0,23;-1,50;-0,09;0,61;-4,81;1,89;-1,79;-1,46;4,27;0,00
32.568;-0,23;-1,50;-0,09;0,61;-4,81;1,89;-1,36;-1,93;4,85;0,00
32.607;-0,23;-1,63;-0,05;0,61;-4,81;1,89;-1,36;-1,93;4,85;0,00
32.637;-0,23;-1,63;-0,05;3,66;-8,04;2,36;-1,36;-1,93;4,85;0,00
32.638;-0,23;-1,63;-0,05;5,10;-9,31;2,28;-1,36;-1,93;4,85;0,00
32.647;-0,23;-1,63;-0,05;5,10;-9,31;2,28;-1,19;-1,74;4,67;0,00
32.677;-0,13;-1,47;-0,05;5,10;-9,31;2,28;-1,19;-1,74;4,67;0,00
32.71;-0,13;-1,47;-0,05;6,10;-10,98;2,65;-1,19;-1,74;4,67;0,00
32.711;-0,13;-1,47;-0,05;6,83;-12,14;1,99;-1,19;-1,74;4,67;0,00
32.729;-0,13;-1,47;-0,05;6,83;-12,14;1,99;-0,41;-1,93;3,55;0,00
32.747;0,02;-1,18;-0,05;6,83;-12,14;1,99;-0,41;-1,93;3,55;0,00
32.769;0,02;-1,18;-0,05;6,83;-12,14;1,99;0,33;-0,94;0,83;0,00
32.777;0,02;-1,18;-0,05;8,94;-10,25;1,02;0,33;-0,94;0,83;0,00
32.779;0,02;-1,18;-0,05;8,91;-10,26;0,64;0,33;-0,94;0,83;0,00
32.817;-0,13;-1,09;-0,21;8,91;-10,26;0,64;0,33;-0,94;0,83;0,00
32.85;-0,13;-1,09;-0,21;8,91;-10,26;0,64;0,94;-0,01;-2,23;0,00
32.85;-0,13;-1,09;-0,21;8,52;-7,03;-0,05;0,94;-0,01;-2,23;0,00
32.888;-0,27;-0,97;-0,24;8,52;-7,03;-0,05;0,94;-0,01;-2,23;0,00
32.917;-0,27;-0,97;-0,24;6,47;-5,72;-1,31;0,94;-0,01;-2,23;0,00
32.918;-0,27;-0,97;-0,24;5,39;-4,25;-1,20;0,94;-0,01;-2,23;0,00
32.928;-0,27;-0,97;-0,24;5,39;-4,25;-1,20;1,20;1,15;-4,42;0,00
32.957;-0,37;-0,96;-0,26;5,39;-4,25;-1,20;1,20;1,15;-4,42;0,00
32.967;-0,37;-0,96;-0,26;5,39;-4,25;-1,20;1,08;1,19;-5,42;0,00
32.987;-0,37;-0,96;-0,26;2,76;-1,12;-1,03;1,08;1,19;-5,42;0,00
32.987;-0,37;-0,96;-0,26;0,90;-0,01;-1,12;1,08;1,19;-5,42;0,00
33.027;-0,53;-1,35;-0,51;0,90;-0,01;-1,12;1,08;1,19;-5,42;0,00
33.047;-0,53;-1,35;-0,51;0,90;-0,01;-1,12;0,46;1,81;-5,94;0,00
33.057;-0,53;-1,35;-0,51;-2,64;-1,59;-2,75;0,46;1,81;-5,94;0,00
33.058;-0,53;-1,35;-0,51;-4,92;-1,43;-2,76;0,46;1,81;-5,94;0,00
33.097;-0,63;-1,58;-0,56;-4,92;-1,43;-2,76;0,46;1,81;-5,94;0,00
33.127;-0,63;-1,58;-0,56;-4,92;-1,43;-2,76;-0,06;0,34;-5,77;0,00
33.127;-0,63;-1,58;-0,56;-8,18;-5,18;-3,92;-0,06;0,34;-5,77;0,00
33.167;-0,67;-1,37;-0,65;-8,18;-5,18;-3,92;-0,06;0,34;-5,77;0,00
33.168;-0,67;-1,37;-0,65;-8,18;-5,18;-3,92;-0,41;-1,19;-3,57;0,00
33.197;-0,67;-1,37;-0,65;-10,98;-6,78;-5,38;-0,41;-1,19;-3,57;0,00
33.198;-0,67;-1,37;-0,65;-11,80;-7,32;-4,92;-0,41;-1,19;-3,57;0,00
33.237;-0,51;-1,15;-0,44;-11,80;-7,32;-4,92;-0,41;-1,19;-3,57;0,00
33.247;-0,51;-1,15;-0,44;-11,80;-7,32;-4,92;-0,12;1,49;0,58;0,00
33.267;-0,51;-1,15;-0,44;-10,79;-4,40;-3,83;-0,12;1,49;0,58;0,00
33.267;-0,51;-1,15;-0,44;-10,23;-4,04;-4,08;-0,12;1,49;0,58;0,00
33.307;-0,43;-1,25;-0,34;-10,23;-4,04;-4,08;-0,12;1,49;0,58;0,00
33.327;-0,43;-1,25;-0,34;-10,23;-4,04;-4,08;-0,59;0,90;2,81;0,00
33.337;-0,43;-1,25;-0,34;-8,49;-1,79;-1,77;-0,59;0,90;2,81;0,00
33.337;-0,43;-1,25;-0,34;-7,21;-1,41;-1,53;-0,59;0,90;2,81;0,00
33.367;-0,43;-1,25;-0,34;-7,21;-1,41;-1,53;-1,11;0,97;3,57;0,00
33.377;-0,37;-1,31;-0,23;-7,21;-1,41;-1,53;-1,11;0,97;3,57;0,00
33.408;-0,37;-1,31;-0,23;-4,85;-3,86;-0,97;-1,11;0,97;3,57;0,00
33.447;-0,37;-1,31;-0,23;-4,85;-3,86;-0,97;-1,30;-0,07;3,76;0,00
33.448;-0,31;-1,17;-0,10;-4,85;-3,86;-0,97;-1,30;-0,07;3,76;0,00
33.477;-0,31;-1,17;-0,10;-2,94;-2,34;0,96;-1,30;-0,07;3,76;0,00
33.478;-0,31;-1,17;-0,10;-1,43;-2,62;1,40;-1,30;-0,07;3,76;0,00
33.517;-0,27;-1,36;-0,12;-1,43;-2,62;1,40;-1,30;-0,07;3,76;0,00
33.528;-0,27;-1,36;-0,12;-1,43;-2,62;1,40;-1,29;-1,48;3,93;0,00
33.548;-0,27;-1,36;-0,12;0,70;-3,42;2,40;-1,29;-1,48;3,93;0,00
33.549;-0,27;-1,36;-0,12;2,23;-4,20;2,46;-1,29;-1,48;3,93;0,00
33.568;-0,27;-1,36;-0,12;2,23;-4,20;2,46;-0,92;-2,00;4,33;0,00
33.591;-0,22;-1,56;-0,16;2,23;-4,20;2,46;-0,92;-2,00;4,33;0,00
33.62;-0,22;-1,56;-0,16;3,97;-7,43;1,71;-0,92;-2,00;4,33;0,00
33.621;-0,22;-1,56;-0,16;5,26;-8,64;1,15;-0,92;-2,00;4,33;0,00
33.647;-0,22;-1,56;-0,16;5,26;-8,64;1,15;-0,07;-1,84;4,44;0,00
33.657;-0,08;-1,54;-0,19;5,26;-8,64;1,15;-0,07;-1,84;4,44;0,00
33.688;-0,08;-1,54;-0,19;6,93;-11,11;0,25;-0,07;-1,84;4,44;0,00
33.727;-0,08;-1,54;-0,19;6,93;-11,11;0,25;0,39;-0,52;2,72;0,00
33.728;-0,10;-1,17;-0,22;6,93;-11,11;0,25;0,39;-0,52;2,72;0,00
33.757;-0,10;-1,17;-0,22;8,86;-10,13;0,22;0,39;-0,52;2,72;0,00
33.758;-0,10;-1,17;-0,22;8,86;-10,26;0,01;0,39;-0,52;2,72;0,00
33.768;-0,10;-1,17;-0,22;8,86;-10,26;0,01;0,63;-0,43;-0,66;0,00
33.797;-0,22;-1,07;-0,36;8,86;-10,26;0,01;0,63;-0,43;-0,66;0,00
33.827;-0,22;-1,07;-0,36;6,92;-7,39;-1,83;0,63;-0,43;-0,66;0,00
33.828;-0,22;-1,07;-0,36;6,38;-6,36;-1,97;0,63;-0,43;-0,66;0,00
33.847;-0,22;-1,07;-0,36;6,38;-6,36;-1,97;0,44;-0,27;-3,03;0,00
33.868;-0,21;-0,67;-0,20;6,38;-6,36;-1,97;0,44;-0,27;-3,03;0,00
33.897;-0,21;-0,67;-0,20;5,25;-2,98;-2,24;0,44;-0,27;-3,03;0,00
33.898;-0,21;-0,67;-0,20;4,21;-1,88;-2,33;0,44;-0,27;-3,03;0,00
33.927;-0,21;-0,67;-0,20;4,21;-1,88;-2,33;0,02;-0,46;-3,90;0,00
33.937;-0,28;-0,81;-0,09;4,21;-1,88;-2,33;0,02;-0,46;-3,90;0,00
33.968;-0,28;-0,81;-0,09;2,96;1,98;-0,03;0,02;-0,46;-3,90;0,00
33.969;-0,28;-0,81;-0,09;2,96;1,98;-0,03;-0,08;-0,20;-5,02;0,00
34.007;-0,48;-1,40;-0,39;2,96;1,98;-0,03;-0,08;-0,20;-5,02;0,00
34.037;-0,48;-1,40;-0,39;-0,22;-1,50;-1,32;-0,08;-0,20;-5,02;0,00
34.038;-0,48;-1,40;-0,39;-2,44;-0,97;-1,05;-0,08;-0,20;-5,02;0,00
34.059;-0,48;-1,40;-0,39;-2,44;-0,97;-1,05;-0,51;2,05;-6,13;0,00
34.077;-0,70;-1,72;-0,54;-2,44;-0,97;-1,05;-0,51;2,05;-6,13;0,00
34.108;-0,70;-1,72;-0,54;-6,77;-6,41;-3,22;-0,51;2,05;-6,13;0,00
34.109;-0,70;-1,72;-0,54;-8,78;-6,82;-3,35;-0,51;2,05;-6,13;0,00
34.132;-0,70;-1,72;-0,54;-8,78;-6,82;-3,35;-0,28;3,21;-4,84;0,00
34.159;-0,51;-1,39;-0,51;-8,78;-6,82;-3,35;-0,28;3,21;-4,84;0,00
34.167;-0,51;-1,39;-0,51;-8,78;-6,82;-3,35;0,58;1,13;-0,65;0,00
34.177;-0,51;-1,39;-0,51;-11,34;-6,23;-3,87;0,58;1,13;-0,65;0,00
34.178;-0,51;-1,39;-0,51;-11,28;-6,16;-4,18;0,58;1,13;-0,65;0,00
34.218;-0,52;-1,23;-0,40;-11,28;-6,16;-4,18;0,58;1,13;-0,65;0,00
34.247;-0,52;-1,23;-0,40;-11,28;-6,16;-4,18;-0,10;-0,47;1,52;0,00
34.247;-0,52;-1,23;-0,40;-7,87;-4,48;-4,38;-0,10;-0,47;1,52;0,00
34.287;-0,39;-1,17;-0,34;-7,87;-4,48;-4,38;-0,10;-0,47;1,52;0,00
34.317;-0,39;-1,17;-0,34;-7,57;-2,31;-2,84;-0,10;-0,47;1,52;0,00
34.318;-0,39;-1,17;-0,34;-6,60;-2,09;-2,58;-0,10;-0,47;1,52;0,00
34.328;-0,39;-1,17;-0,34;-6,60;-2,09;-2,58;-0,73;0,47;2,37;0,00
34.357;-0,31;-0,91;-0,17;-6,60;-2,09;-2,58;-0,73;0,47;2,37;0,00
34.367;-0,31;-0,91;-0,17;-6,60;-2,09;-2,58;-1,04;0,29;2,78;0,00
34.397;-0,31;-0,91;-0,17;-4,06;-0,78;-0,94;-1,04;0,29;2,78;0,00
34.399;-0,31;-0,91;-0,17;-2,94;-0,81;-0,53;-1,04;0,29;2,78;0,00
34.427;-0,27;-0,99;-0,13;-2,94;-0,81;-0,53;-1,04;0,29;2,78;0,00
34.447;-0,27;-0,99;-0,13;-2,94;-0,81;-0,53;-1,14;-0,90;3,31;0,00
34.457;-0,27;-0,99;-0,13;-1,24;0,70;0,91;-1,14;-0,90;3,31;0,00
34.457;-0,27;-0,99;-0,13;0,14;0,26;1,21;-1,14;-0,90;3,31;0,00
34.497;-0,26;-1,33;-0,15;0,14;0,26;1,21;-1,14;-0,90;3,31;0,00
34.527;-0,26;-1,33;-0,15;0,14;0,26;1,21;-1,12;-1,74;3,93;0,00
34.528;-0,26;-1,33;-0,15;1,91;-2,68;1,39;-1,12;-1,74;3,93;0,00
34.567;-0,19;-1,62;-0,21;1,91;-2,68;1,39;-1,12;-1,74;3,93;0,00
34.568;-0,19;-1,62;-0,21;1,91;-2,68;1,39;-0,57;-2,97;4,46;0,00
34.597;-0,19;-1,62;-0,21;3,43;-7,29;0,87;-0,57;-2,97;4,46;0,00
34.598;-0,19;-1,62;-0,21;4,85;-8,40;0,18;-0,57;-2,97;4,46;0,00
34.637;0,03;-1,29;-0,19;4,85;-8,40;0,18;-0,57;-2,97;4,46;0,00
