time;gFx;gFy;gFz;ax;ay;az;wx;wy;wz;P
0.004;-0,30;0,80;0,43;-0,47;0,23;-0,71;0,02;0,10;-0,12;0,00
0.011;-0,30;0,80;0,43;-0,30;0,01;-0,71;0,02;0,10;-0,12;0,00
0.011;-0,30;0,80;0,43;-0,24;0,02;-0,68;0,02;0,10;-0,12;0,00
0.061;-0,36;0,76;0,36;-0,24;0,02;-0,68;0,02;0,10;-0,12;0,00
0.078;-0,36;0,76;0,36;-0,24;0,02;-0,68;-0,23;0,14;-0,23;0,00
0.079;-0,36;0,76;0,36;-0,70;-0,01;-1,33;-0,23;0,14;-0,23;0,00
0.119;-0,45;0,70;0,21;-0,70;-0,01;-1,33;-0,23;0,14;-0,23;0,00
0.154;-0,45;0,70;0,21;-1,21;-0,46;-2,24;-0,23;0,14;-0,23;0,00
0.155;-0,45;0,70;0,21;-1,01;-0,36;-2,24;-0,23;0,14;-0,23;0,00
0.157;-0,45;0,70;0,21;-1,01;-0,36;-2,24;-0,40;0,45;-0,33;0,00
0.187;-0,60;0,69;0,11;-1,01;-0,36;-2,24;-0,40;0,45;-0,33;0,00
0.217;-0,60;0,69;0,11;-1,88;-0,70;-4,01;-0,40;0,45;-0,33;0,00
0.218;-0,60;0,69;0,11;-1,64;-0,43;-4,17;-0,40;0,45;-0,33;0,00
0.237;-0,60;0,69;0,11;-1,64;-0,43;-4,17;-1,03;0,45;-0,40;0,00
0.264;-0,98;0,71;0,03;-1,64;-0,43;-4,17;-1,03;0,45;-0,40;0,00
0.277;-0,98;0,71;0,03;-1,64;-0,43;-4,17;-1,51;1,52;0,05;0,00
0.286;-0,98;0,71;0,03;-3,27;0,03;-4,68;-1,51;1,52;0,05;0,00
0.286;-0,98;0,71;0,03;-2,89;0,35;-4,75;-1,51;1,52;0,05;0,00
0.325;-0,90;0,40;0,26;-2,89;0,35;-4,75;-1,51;1,52;0,05;0,00
0.355;-0,90;0,40;0,26;-2,89;0,35;-4,75;-2,67;1,48;0,52;0,00
0.356;-0,90;0,40;0,26;-5,81;0,58;-5,20;-2,67;1,48;0,52;0,00
0.394;-0,34;-0,16;0,26;-5,81;0,58;-5,20;-2,67;1,48;0,52;0,00
0.423;-0,34;-0,16;0,26;-2,10;-3,62;-3,70;-2,67;1,48;0,52;0,00
0.425;-0,34;-0,16;0,26;-1,53;-2,88;-3,75;-2,67;1,48;0,52;0,00
0.433;-0,34;-0,16;0,26;-1,53;-2,88;-3,75;-2,70;2,09;-0,33;0,00
0.463;0,16;-0,82;0,33;-1,53;-2,88;-3,75;-2,70;2,09;-0,33;0,00
0.473;0,16;-0,82;0,33;-1,53;-2,88;-3,75;-3,51;3,19;-2,50;0,00
0.492;0,16;-0,82;0,33;5,62;-7,54;-3,53;-3,51;3,19;-2,50;0,00
0.494;0,16;-0,82;0,33;6,58;-5,88;-2,97;-3,51;3,19;-2,50;0,00
0.531;0,08;-1,71;0,87;6,58;-5,88;-2,97;-3,51;3,19;-2,50;0,00
0.551;0,08;-1,71;0,87;6,58;-5,88;-2,97;-4,21;3,29;-4,86;0,00
0.561;0,08;-1,71;0,87;9,13;-11,30;0,56;-4,21;3,29;-4,86;0,00
0.563;0,08;-1,71;0,87;9,09;-8,77;1,75;-4,21;3,29;-4,86;0,00
0.601;-0,89;-2,05;1,25;9,09;-8,77;1,75;-4,21;3,29;-4,86;0,00
0.631;-0,89;-2,05;1,25;9,09;-8,77;1,75;-2,76;2,78;-5,95;0,00
0.634;-0,89;-2,05;1,25;4,47;-14,07;8,22;-2,76;2,78;-5,95;0,00
0.67;-0,89;-2,05;1,25;4,47;-14,07;8,22;-0,68;1,21;-4,63;0,00
0.671;-1,29;-1,38;1,04;4,47;-14,07;8,22;-0,68;1,21;-4,63;0,00
0.699;-1,29;-1,38;1,04;-5,16;-10,46;10,24;-0,68;1,21;-4,63;0,00
0.7;-1,29;-1,38;1,04;-6,35;-9,35;10,46;-0,68;1,21;-4,63;0,00
0.739;-1,18;-1,16;0,55;-6,35;-9,35;10,46;-0,68;1,21;-4,63;0,00
0.749;-1,18;-1,16;0,55;-6,35;-9,35;10,46;0,54;0,52;-3,16;0,00
0.77;-1,18;-1,16;0,55;-10,21;-2,95;6,83;0,54;0,52;-3,16;0,00
0.773;-1,18;-1,16;0,55;-10,98;-2,61;6,53;0,54;0,52;-3,16;0,00
0.807;-0,70;-1,09;-0,07;-10,98;-2,61;6,53;0,54;0,52;-3,16;0,00
0.827;-0,70;-1,09;-0,07;-10,98;-2,61;6,53;1,19;1,95;-2,75;0,00
0.837;-0,70;-1,09;-0,07;-6,25;-1,88;0,33;1,19;1,95;-2,75;0,00
0.838;-0,70;-1,09;-0,07;-6,91;-1,78;0,07;1,19;1,95;-2,75;0,00
0.867;-0,70;-1,09;-0,07;-6,91;-1,78;0,07;1,22;3,20;-2,44;0,00
0.877;-0,95;-1,15;-0,08;-6,91;-1,78;0,07;1,22;3,20;-2,44;0,00
0.906;-0,95;-1,15;-0,08;-7,83;-1,95;-3,76;1,22;3,20;-2,44;0,00
0.945;-0,95;-1,15;-0,08;-7,83;-1,95;-3,76;0,69;0,27;-0,75;0,00
0.947;-0,68;-1,18;-0,09;-7,83;-1,95;-3,76;0,69;0,27;-0,75;0,00
0.975;-0,68;-1,18;-0,09;-7,00;-1,37;-2,76;0,69;0,27;-0,75;0,00
0.976;-0,68;-1,18;-0,09;-7,01;-1,42;-2,96;0,69;0,27;-0,75;0,00
1.015;-1,08;-1,56;-0,64;-7,01;-1,42;-2,96;0,69;0,27;-0,75;0,00
1.024;-1,08;-1,56;-0,64;-7,01;-1,42;-2,96;0,00;-1,19;1,18;0,00
1.047;-1,08;-1,56;-0,64;-6,79;-3,28;-6,43;0,00;-1,19;1,18;0,00
1.048;-1,08;-1,56;-0,64;-6,18;-3,25;-6,21;0,00;-1,19;1,18;0,00
1.084;-1,48;-2,05;-0,81;-6,18;-3,25;-6,21;0,00;-1,19;1,18;0,00
1.103;-1,48;-2,05;-0,81;-6,18;-3,25;-6,21;-1,16;-4,17;4,24;0,00
1.113;-1,48;-2,05;-0,81;-10,02;-8,22;-10,54;-1,16;-4,17;4,24;0,00
1.115;-1,48;-2,05;-0,81;-8,23;-8,75;-10,51;-1,16;-4,17;4,24;0,00
1.142;-1,48;-2,05;-0,81;-8,23;-8,75;-10,51;-1,54;-4,61;7,02;0,00
1.152;-1,48;-2,39;0,09;-8,23;-8,75;-10,51;-1,54;-4,61;7,02;0,00
1.182;-1,48;-2,39;0,09;-8,84;-13,88;-8,03;-1,54;-4,61;7,02;0,00
1.221;-1,48;-2,39;0,09;-8,84;-13,88;-8,03;-0,21;-3,38;7,40;0,00
1.222;-1,29;-2,09;1,10;-8,84;-13,88;-8,03;-0,21;-3,38;7,40;0,00
1.251;-1,29;-2,09;1,10;-5,18;-17,24;2,08;-0,21;-3,38;7,40;0,00
1.253;-1,29;-2,09;1,10;-4,17;-19,43;1,19;-0,21;-3,38;7,40;0,00
1.29;-1,42;-2,42;2,19;-4,17;-19,43;1,19;-0,21;-3,38;7,40;0,00
1.3;-1,42;-2,42;2,19;-4,17;-19,43;1,19;1,48;0,35;6,50;0,00
1.323;-1,42;-2,42;2,19;-3,35;-19,30;10,38;1,48;0,35;6,50;0,00
1.324;-1,42;-2,42;2,19;-2,97;-21,79;10,95;1,48;0,35;6,50;0,00
1.339;-1,42;-2,42;2,19;-2,97;-21,79;10,95;3,64;1,67;6,23;0,00
1.36;-0,61;-1,61;1,62;-2,97;-21,79;10,95;3,64;1,67;6,23;0,00
1.39;-0,61;-1,61;1,62;-2,51;-26,38;17,60;3,64;1,67;6,23;0,00
1.392;-0,61;-1,61;1,62;-3,53;-28,56;18,42;3,64;1,67;6,23;0,00
1.42;-0,61;-1,61;1,62;-3,53;-28,56;18,42;4,96;0,68;4,83;0,00
1.428;0,15;0,07;-0,02;-3,53;-28,56;18,42;4,96;0,68;4,83;0,00
1.46;0,15;0,07;-0,02;6,71;-15,72;7,37;4,96;0,68;4,83;0,00
1.497;0,15;0,07;-0,02;6,71;-15,72;7,37;3,91;2,79;1,94;0,00
1.498;0,01;-0,16;0,29;6,71;-15,72;7,37;3,91;2,79;1,94;0,00
1.527;0,01;-0,16;0,29;7,80;-6,53;0,28;3,91;2,79;1,94;0,00
1.528;0,01;-0,16;0,29;7,07;-6,54;2,09;3,91;2,79;1,94;0,00
1.536;0,01;-0,16;0,29;7,07;-6,54;2,09;2,93;2,44;1,35;0,00
1.566;0,03;-0,45;0,55;7,07;-6,54;2,09;2,93;2,44;1,35;0,00
1.596;0,03;-0,45;0,55;5,31;-10,33;8,12;2,93;2,44;1,35;0,00
1.599;0,03;-0,45;0,55;4,32;-10,11;9,06;2,93;2,44;1,35;0,00
1.616;0,03;-0,45;0,55;4,32;-10,11;9,06;2,33;1,31;2,08;0,00
1.635;0,09;-0,71;0,05;4,32;-10,11;9,06;2,33;1,31;2,08;0,00
1.665;0,09;-0,71;0,05;4,37;-13,22;9,70;2,33;1,31;2,08;0,00
1.666;0,09;-0,71;0,05;3,59;-12,90;10,05;2,33;1,31;2,08;0,00
1.695;0,09;-0,71;0,05;3,59;-12,90;10,05;1,33;0,42;2,10;0,00
1.704;0,08;-0,50;-0,73;3,59;-12,90;10,05;1,33;0,42;2,10;0,00
1.735;0,08;-0,50;-0,73;3,59;-12,90;10,05;0,03;-1,08;2,45;0,00
1.736;0,08;-0,50;-0,73;2,14;-13,14;3,42;0,03;-1,08;2,45;0,00
1.773;0,59;0,22;-1,38;2,14;-13,14;3,42;0,03;-1,08;2,45;0,00
1.803;0,59;0,22;-1,38;4,38;-9,22;-3,95;0,03;-1,08;2,45;0,00
1.804;0,59;0,22;-1,38;4,16;-9,05;-3,84;0,03;-1,08;2,45;0,00
1.812;0,59;0,22;-1,38;4,16;-9,05;-3,84;0,67;-1,29;1,33;0,00
1.844;0,45;0,90;-1,84;4,16;-9,05;-3,84;0,67;-1,29;1,33;0,00
1.872;0,45;0,90;-1,84;8,33;-0,14;-10,40;0,67;-1,29;1,33;0,00
1.873;0,45;0,90;-1,84;8,03;-0,15;-10,21;0,67;-1,29;1,33;0,00
1.896;0,45;0,90;-1,84;8,03;-0,15;-10,21;-0,27;0,29;0,56;0,00
1.912;0,11;0,63;-1,24;8,03;-0,15;-10,21;-0,27;0,29;0,56;0,00
1.941;0,11;0,63;-1,24;2,89;0,77;-10,42;-0,27;0,29;0,56;0,00
1.942;0,11;0,63;-1,24;2,66;0,85;-10,14;-0,27;0,29;0,56;0,00
1.97;0,11;0,63;-1,24;2,66;0,85;-10,14;0,32;1,08;-0,37;0,00
1.98;-0,27;0,61;-0,44;2,66;0,85;-10,14;0,32;1,08;-0,37;0,00
2.012;-0,27;0,61;-0,44;2,66;0,85;-10,14;-0,11;0,95;0,08;0,00
2.013;-0,27;0,61;-0,44;-1,05;0,60;-1,80;-0,11;0,95;0,08;0,00
2.049;0,23;0,53;-0,50;-1,05;0,60;-1,80;-0,11;0,95;0,08;0,00
2.079;0,23;0,53;-0,50;-0,98;-1,32;3,03;-0,11;0,95;0,08;0,00
2.08;0,23;0,53;-0,50;-1,04;-1,30;2,98;-0,11;0,95;0,08;0,00
2.088;0,23;0,53;-0,50;-1,04;-1,30;2,98;-0,10;-0,34;0,62;0,00
2.118;0,60;0,22;-0,92;-1,04;-1,30;2,98;-0,10;-0,34;0,62;0,00
2.148;0,60;0,22;-0,92;3,04;-2,91;0,89;-0,10;-0,34;0,62;0,00
2.15;0,60;0,22;-0,92;2,99;-2,89;0,85;-0,10;-0,34;0,62;0,00
2.167;0,60;0,22;-0,92;2,99;-2,89;0,85;-0,14;-0,08;-0,00;0,00
2.187;1,05;0,03;-1,29;2,99;-2,89;0,85;-0,14;-0,08;-0,00;0,00
2.206;1,05;0,03;-1,29;2,99;-2,89;0,85;0,08;1,14;-2,42;0,00
2.216;1,05;0,03;-1,29;8,18;-5,28;-4,54;0,08;1,14;-2,42;0,00
2.217;1,05;0,03;-1,29;8,40;-5,16;-4,43;0,08;1,14;-2,42;0,00
2.256;0,97;0,08;-1,24;8,40;-5,16;-4,43;0,08;1,14;-2,42;0,00
2.294;0,97;0,08;-1,24;8,40;-5,16;-4,43;-0,08;1,28;-4,20;0,00
2.295;0,97;0,08;-1,24;10,50;-6,04;-7,26;-0,08;1,28;-4,20;0,00
2.325;1,09;-0,78;0,07;10,50;-6,04;-7,26;-0,08;1,28;-4,20;0,00
2.354;1,09;-0,78;0,07;12,07;-6,33;-0,78;-0,08;1,28;-4,20;0,00
2.356;1,09;-0,78;0,07;13,20;-5,88;-0,80;-0,08;1,28;-4,20;0,00
2.366;1,09;-0,78;0,07;13,20;-5,88;-0,80;0,19;-0,07;-5,74;0,00
2.394;0,10;-2,02;0,89;13,20;-5,88;-0,80;0,19;-0,07;-5,74;0,00
2.404;0,10;-2,02;0,89;13,20;-5,88;-0,80;2,14;-0,51;-7,84;0,00
2.424;0,10;-2,02;0,89;9,50;-18,68;13,02;2,14;-0,51;-7,84;0,00
2.425;0,10;-2,02;0,89;10,57;-16,58;13,00;2,14;-0,51;-7,84;0,00
2.463;-0,99;-2,47;1,23;10,57;-16,58;13,00;2,14;-0,51;-7,84;0,00
2.483;-0,99;-2,47;1,23;10,57;-16,58;13,00;2,61;-0,83;-8,01;0,00
2.497;-0,99;-2,47;1,23;1,90;-22,08;16,19;2,61;-0,83;-8,01;0,00
2.499;-0,99;-2,47;1,23;1,65;-19,58;15,60;2,61;-0,83;-8,01;0,00
2.533;-1,22;-2,60;1,10;1,65;-19,58;15,60;2,61;-0,83;-8,01;0,00
2.562;-1,22;-2,60;1,10;1,65;-19,58;15,60;3,26;-1,76;-6,48;0,00
2.563;-1,22;-2,60;1,10;-8,10;-19,64;17,43;3,26;-1,76;-6,48;0,00
2.601;-1,22;-2,60;1,10;-8,10;-19,64;17,43;4,17;-1,19;-4,42;0,00
2.602;-1,53;-1,91;-0,02;-8,10;-19,64;17,43;4,17;-1,19;-4,42;0,00
2.631;-1,53;-1,91;-0,02;-11,02;-16,65;11,17;4,17;-1,19;-4,42;0,00
2.633;-1,53;-1,91;-0,02;-11,92;-15,45;9,69;4,17;-1,19;-4,42;0,00
2.671;-1,55;-2,48;0,08;-11,92;-15,45;9,69;4,17;-1,19;-4,42;0,00
2.689;-1,55;-2,48;0,08;-11,92;-15,45;9,69;2,99;-0,27;-2,60;0,00
2.702;-1,55;-2,48;0,08;-11,85;-10,49;-2,36;2,99;-0,27;-2,60;0,00
2.704;-1,55;-2,48;0,08;-12,34;-10,17;-3,27;2,99;-0,27;-2,60;0,00
2.739;-0,65;-2,70;-0,70;-12,34;-10,17;-3,27;2,99;-0,27;-2,60;0,00
2.758;-0,65;-2,70;-0,70;-12,34;-10,17;-3,27;3,09;-1,79;-0,79;0,00
2.768;-0,65;-2,70;-0,70;-11,57;-16,88;-2,34;3,09;-1,79;-0,79;0,00
2.77;-0,65;-2,70;-0,70;-11,79;-16,70;-3,09;3,09;-1,79;-0,79;0,00
2.808;-1,16;-2,41;-0,75;-11,79;-16,70;-3,09;3,09;-1,79;-0,79;0,00
2.837;-1,16;-2,41;-0,75;-11,79;-16,70;-3,09;2,11;-0,13;-0,69;0,00
2.839;-1,16;-2,41;-0,75;-8,74;-18,27;-8,04;2,11;-0,13;-0,69;0,00
2.876;-1,16;-2,41;-0,75;-8,74;-18,27;-8,04;0,39;-1,16;0,78;0,00
2.878;-0,30;-1,78;-0,87;-8,74;-18,27;-8,04;0,39;-1,16;0,78;0,00
2.906;-0,30;-1,78;-0,87;-6,49;-10,13;-12,83;0,39;-1,16;0,78;0,00
2.909;-0,30;-1,78;-0,87;-6,20;-9,98;-12,62;0,39;-1,16;0,78;0,00
2.95;-0,35;-1,26;-0,33;-6,20;-9,98;-12,62;0,39;-1,16;0,78;0,00
2.967;-0,35;-1,26;-0,33;-6,20;-9,98;-12,62;-0,99;-0,67;0,58;0,00
2.978;-0,35;-1,26;-0,33;-2,16;-5,94;-8,40;-0,99;-0,67;0,58;0,00
2.98;-0,35;-1,26;-0,33;-1,93;-5,78;-7,83;-0,99;-0,67;0,58;0,00
3.015;-0,26;-0,88;0,07;-1,93;-5,78;-7,83;-0,99;-0,67;0,58;0,00
3.034;-0,26;-0,88;0,07;-1,93;-5,78;-7,83;-1,37;0,12;0,72;0,00
3.045;-0,26;-0,88;0,07;-1,17;-0,25;-2,52;-1,37;0,12;0,72;0,00
3.045;-0,26;-0,88;0,07;-0,88;-0,25;-1,87;-1,37;0,12;0,72;0,00
3.073;-0,26;-0,88;0,07;-0,88;-0,25;-1,87;-1,43;-0,22;1,05;0,00
3.083;-0,40;-0,89;0,50;-0,88;-0,25;-1,87;-1,43;-0,22;1,05;0,00
3.113;-0,40;-0,89;0,50;-1,09;1,35;3,00;-1,43;-0,22;1,05;0,00
3.152;-0,40;-0,89;0,50;-1,09;1,35;3,00;-0,70;-1,61;2,13;0,00
3.154;-1,11;-0,96;0,15;-1,09;1,35;3,00;-0,70;-1,61;2,13;0,00
3.183;-1,11;-0,96;0,15;-2,55;0,41;5,24;-0,70;-1,61;2,13;0,00
3.185;-1,11;-0,96;0,15;-1,55;0,05;4,99;-0,70;-1,61;2,13;0,00
3.221;-2,36;-1,44;-0,60;-1,55;0,05;4,99;-0,70;-1,61;2,13;0,00
3.231;-2,36;-1,44;-0,60;-1,55;0,05;4,99;-0,09;-2,24;3,39;0,00
3.252;-2,36;-1,44;-0,60;-9,77;-1,31;-4,15;-0,09;-2,24;3,39;0,00
3.254;-2,36;-1,44;-0,60;-8,38;-2,17;-4,00;-0,09;-2,24;3,39;0,00
3.271;-2,36;-1,44;-0,60;-8,38;-2,17;-4,00;-1,08;-0,49;5,14;0,00
3.29;-2,60;-2,59;0,28;-8,38;-2,17;-4,00;-1,08;-0,49;5,14;0,00
3.32;-2,60;-2,59;0,28;-18,59;-12,62;-3,96;-1,08;-0,49;5,14;0,00
3.321;-2,60;-2,59;0,28;-16,98;-14,66;-3,67;-1,08;-0,49;5,14;0,00
3.35;-2,60;-2,59;0,28;-16,98;-14,66;-3,67;-0,75;0,09;6,35;0,00
3.36;-1,52;-2,89;1,37;-16,98;-14,66;-3,67;-0,75;0,09;6,35;0,00
3.389;-1,52;-2,89;1,37;-10,71;-26,71;9,82;-0,75;0,09;6,35;0,00
3.429;-0,50;-1,16;0,48;-10,71;-26,71;9,82;-0,75;0,09;6,35;0,00
3.43;-0,50;-1,16;0,48;-10,71;-26,71;9,82;1,71;0,89;5,57;0,00
3.458;-0,50;-1,16;0,48;1,89;-22,49;12,07;1,71;0,89;5,57;0,00
3.459;-0,50;-1,16;0,48;1,62;-24,08;12,81;1,71;0,89;5,57;0,00
3.468;-0,50;-1,16;0,48;1,62;-24,08;12,81;2,21;3,08;3,55;0,00
3.497;-0,78;-0,39;0,14;1,62;-24,08;12,81;2,21;3,08;3,55;0,00
3.529;-0,78;-0,39;0,14;5,31;-7,92;2,83;2,21;3,08;3,55;0,00
3.532;-0,78;-0,39;0,14;4,40;-8,99;4,07;2,21;3,08;3,55;0,00
3.55;-0,78;-0,39;0,14;4,40;-8,99;4,07;0,95;2,30;3,57;0,00
3.566;-0,32;-0,92;0,56;4,40;-8,99;4,07;0,95;2,30;3,57;0,00
3.596;-0,32;-0,92;0,56;1,50;-10,69;7,30;0,95;2,30;3,57;0,00
3.598;-0,32;-0,92;0,56;0,04;-11,42;8,44;0,95;2,30;3,57;0,00
3.629;-0,32;-0,92;0,56;0,04;-11,42;8,44;0,96;3,81;3,51;0,00
3.636;0,30;-0,94;0,56;0,04;-11,42;8,44;0,96;3,81;3,51;0,00
3.665;0,30;-0,94;0,56;4,79;-15,51;14,09;0,96;3,81;3,51;0,00
3.705;0,30;-0,94;0,56;4,79;-15,51;14,09;0,46;3,58;3,32;0,00
3.706;0,27;-0,61;0,29;4,79;-15,51;14,09;0,46;3,58;3,32;0,00
3.734;0,27;-0,61;0,29;5,96;-14,15;10,66;0,46;3,58;3,32;0,00
3.735;0,27;-0,61;0,29;4,33;-14,48;10,50;0,46;3,58;3,32;0,00
3.743;0,27;-0,61;0,29;4,33;-14,48;10,50;-0,84;-0,19;4,09;0,00
3.774;1,40;0,05;-0,47;4,33;-14,48;10,50;-0,84;-0,19;4,09;0,00
3.803;1,40;0,05;-0,47;8,72;-12,11;6,77;-0,84;-0,19;4,09;0,00
3.806;1,40;0,05;-0,47;8,01;-11,90;6,70;-0,84;-0,19;4,09;0,00
3.823;1,40;0,05;-0,47;8,01;-11,90;6,70;0,29;0,10;1,87;0,00
3.842;1,29;0,75;-1,23;8,01;-11,90;6,70;0,29;0,10;1,87;0,00
3.871;1,29;0,75;-1,23;13,17;-0,57;-1,84;0,29;0,10;1,87;0,00
3.873;1,29;0,75;-1,23;12,73;-0,50;-1,78;0,29;0,10;1,87;0,00
3.901;1,29;0,75;-1,23;12,73;-0,50;-1,78;0,16;-0,21;1,10;0,00
3.911;0,80;0,68;-1,25;12,73;-0,50;-1,78;0,16;-0,21;1,10;0,00
3.941;0,80;0,68;-1,25;12,73;-0,50;-1,78;1,19;0,91;-0,04;0,00
3.943;0,80;0,68;-1,25;9,03;1,38;-4,12;1,19;0,91;-0,04;0,00
3.981;0,28;0,65;-1,08;9,03;1,38;-4,12;1,19;0,91;-0,04;0,00
4.01;0,28;0,65;-1,08;3,57;1,35;-5,94;1,19;0,91;-0,04;0,00
4.011;0,28;0,65;-1,08;3,43;1,33;-5,86;1,19;0,91;-0,04;0,00
4.021;0,28;0,65;-1,08;3,43;1,33;-5,86;-0,20;0,00;-0,17;0,00
4.049;0,11;0,51;-0,59;3,43;1,33;-5,86;-0,20;0,00;-0,17;0,00
4.079;0,11;0,51;-0,59;0,74;-0,27;-0,74;-0,20;0,00;-0,17;0,00
4.08;0,11;0,51;-0,59;0,73;-0,51;-0,92;-0,20;0,00;-0,17;0,00
4.098;0,11;0,51;-0,59;0,73;-0,51;-0,92;-0,76;0,31;-0,32;0,00
4.118;0,03;0,56;-0,35;0,73;-0,51;-0,92;-0,76;0,31;-0,32;0,00
4.138;0,03;0,56;-0,35;0,73;-0,51;-0,92;-0,28;-0,22;0,24;0,00
4.148;0,03;0,56;-0,35;-1,99;-1,10;3,07;-0,28;-0,22;0,24;0,00
4.149;0,03;0,56;-0,35;-1,94;-1,11;2,99;-0,28;-0,22;0,24;0,00
4.187;0,43;0,63;-0,70;-1,94;-1,11;2,99;-0,28;-0,22;0,24;0,00
4.217;0,43;0,63;-0,70;-0,02;-0,02;1,93;-0,28;-0,22;0,24;0,00
4.218;0,43;0,63;-0,70;-0,02;-0,02;1,93;0,00;-0,61;0,31;0,00
4.257;0,74;0,25;-1,07;-0,02;-0,02;1,93;0,00;-0,61;0,31;0,00
4.286;0,74;0,25;-1,07;4,68;-1,45;-1,36;0,00;-0,61;0,31;0,00
4.287;0,74;0,25;-1,07;4,73;-1,44;-1,32;0,00;-0,61;0,31;0,00
4.296;0,74;0,25;-1,07;4,73;-1,44;-1,32;-0,02;0,04;-0,79;0,00
4.326;1,19;-0,06;-1,32;4,73;-1,44;-1,32;-0,02;0,04;-0,79;0,00
4.335;1,19;-0,06;-1,32;4,73;-1,44;-1,32;-0,26;-0,15;-2,46;0,00
4.358;1,19;-0,06;-1,32;6,51;-5,78;-4,48;-0,26;-0,15;-2,46;0,00
4.359;1,19;-0,06;-1,32;7,07;-5,86;-4,46;-0,26;-0,15;-2,46;0,00
4.395;1,00;0,09;-0,89;7,07;-5,86;-4,46;-0,26;-0,15;-2,46;0,00
4.414;1,00;0,09;-0,89;7,07;-5,86;-4,46;-0,06;-0,08;-4,21;0,00
4.425;1,00;0,09;-0,89;12,13;-6,51;-6,18;-0,06;-0,08;-4,21;0,00
4.426;1,00;0,09;-0,89;13,15;-6,33;-6,07;-0,06;-0,08;-4,21;0,00
4.463;0,83;-0,61;0,28;13,15;-6,33;-6,07;-0,06;-0,08;-4,21;0,00
4.492;0,83;-0,61;0,28;13,15;-6,33;-6,07;0,12;-1,44;-5,27;0,00
4.493;0,83;-0,61;0,28;11,62;-5,13;2,70;0,12;-1,44;-5,27;0,00
4.532;-0,36;-1,84;1,23;11,62;-5,13;2,70;0,12;-1,44;-5,27;0,00
4.562;-0,36;-1,84;1,23;6,89;-17,43;15,61;0,12;-1,44;-5,27;0,00
4.563;-0,36;-1,84;1,23;7,67;-15,55;15,71;0,12;-1,44;-5,27;0,00
4.571;-0,36;-1,84;1,23;7,67;-15,55;15,71;1,75;0,68;-7,25;0,00
4.604;-0,90;-1,90;1,17;7,67;-15,55;15,71;1,75;0,68;-7,25;0,00
4.623;-0,90;-1,90;1,17;7,67;-15,55;15,71;2,77;-0,68;-6,92;0,00
4.631;-0,90;-1,90;1,17;-1,59;-18,90;18,06;2,77;-0,68;-6,92;0,00
4.632;-0,90;-1,90;1,17;-1,53;-16,56;17,53;2,77;-0,68;-6,92;0,00
4.67;-0,79;-1,98;0,89;-1,53;-16,56;17,53;2,77;-0,68;-6,92;0,00
4.69;-0,79;-1,98;0,89;-1,53;-16,56;17,53;3,54;-1,52;-5,71;0,00
4.7;-0,79;-1,98;0,89;-4,52;-15,02;16,58;3,54;-1,52;-5,71;0,00
4.701;-0,79;-1,98;0,89;-5,22;-13,17;15,34;3,54;-1,52;-5,71;0,00
4.738;-1,26;-2,17;0,34;-5,22;-13,17;15,34;3,54;-1,52;-5,71;0,00
4.769;-1,26;-2,17;0,34;-5,22;-13,17;15,34;3,60;-0,90;-4,65;0,00
4.77;-1,26;-2,17;0,34;-5,54;-12,07;8,12;3,60;-0,90;-4,65;0,00
4.808;-1,26;-2,17;0,34;-5,54;-12,07;8,12;3,74;-1,40;-3,23;0,00
4.809;-1,29;-3,05;-0,25;-5,54;-12,07;8,12;3,74;-1,40;-3,23;0,00
4.838;-1,29;-3,05;-0,25;-9,93;-17,74;3,07;3,74;-1,40;-3,23;0,00
4.84;-1,29;-3,05;-0,25;-10,75;-17,13;1,71;3,74;-1,40;-3,23;0,00
4.876;-1,04;-2,89;-0,03;-10,75;-17,13;1,71;3,74;-1,40;-3,23;0,00
4.888;-1,04;-2,89;-0,03;-10,75;-17,13;1,71;2,72;-1,73;-1,67;0,00
4.907;-1,04;-2,89;-0,03;-11,94;-19,78;-4,73;2,72;-1,73;-1,67;0,00
4.909;-1,04;-2,89;-0,03;-12,36;-19,55;-5,47;2,72;-1,73;-1,67;0,00
4.946;-1,21;-2,05;-0,59;-12,36;-19,55;-5,47;2,72;-1,73;-1,67;0,00
4.965;-1,21;-2,05;-0,59;-12,36;-19,55;-5,47;2,32;-0,81;-1,23;0,00
4.977;-1,21;-2,05;-0,59;-10,52;-16,95;-2,46;2,32;-0,81;-1,23;0,00
4.978;-1,21;-2,05;-0,59;-10,75;-16,90;-3,14;2,32;-0,81;-1,23;0,00
5.005;-1,21;-2,05;-0,59;-10,75;-16,90;-3,14;0,72;-0,30;-0,26;0,00
5.016;-1,11;-1,41;-0,66;-10,75;-16,90;-3,14;0,72;-0,30;-0,26;0,00
5.044;-1,11;-1,41;-0,66;-11,78;-6,13;-11,87;0,72;-0,30;-0,26;0,00
5.084;-0,48;-1,24;-0,24;-11,78;-6,13;-11,87;0,72;-0,30;-0,26;0,00
5.085;-0,48;-1,24;-0,24;-11,78;-6,13;-11,87;-0,59;-0,61;1,03;0,00
5.115;-0,48;-1,24;-0,24;-7,68;-3,55;-8,00;-0,59;-0,61;1,03;0,00
5.117;-0,48;-1,24;-0,24;-7,17;-3,42;-7,56;-0,59;-0,61;1,03;0,00
5.153;-0,54;-1,24;0,02;-7,17;-3,42;-7,56;-0,59;-0,61;1,03;0,00
5.162;-0,54;-1,24;0,02;-7,17;-3,42;-7,56;-1,02;-0,36;1,55;0,00
5.182;-0,54;-1,24;0,02;-2,56;-1,96;-3,04;-1,02;-0,36;1,55;0,00
5.184;-0,54;-1,24;0,02;-1,87;-1,95;-2,55;-1,02;-0,36;1,55;0,00
5.202;-0,54;-1,24;0,02;-1,87;-1,95;-2,55;-1,36;-1,05;2,33;0,00
5.226;-0,98;-1,46;0,10;-1,87;-1,95;-2,55;-1,36;-1,05;2,33;0,00
5.251;-0,98;-1,46;0,10;-4,22;-3,36;-0,36;-1,36;-1,05;2,33;0,00
5.252;-0,98;-1,46;0,10;-3,07;-3,69;-0,17;-1,36;-1,05;2,33;0,00
5.282;-0,98;-1,46;0,10;-3,07;-3,69;-0,17;-0,96;-0,93;3,43;0,00
5.29;-1,71;-1,53;-0,01;-3,07;-3,69;-0,17;-0,96;-0,93;3,43;0,00
5.32;-1,71;-1,53;-0,01;-5,80;-5,62;-0,71;-0,96;-0,93;3,43;0,00
5.36;-1,71;-1,53;-0,01;-5,80;-5,62;-0,71;-1,26;-0,20;4,84;0,00
5.361;-2,12;-2,34;0,50;-5,80;-5,62;-0,71;-1,26;-0,20;4,84;0,00
5.389;-2,12;-2,34;0,50;-12,77;-9,55;0,21;-1,26;-0,20;4,84;0,00
5.389;-2,12;-2,34;0,50;-11,03;-11,12;0,64;-1,26;-0,20;4,84;0,00
5.429;-1,80;-2,94;1,76;-11,03;-11,12;0,64;-1,26;-0,20;4,84;0,00
5.438;-1,80;-2,94;1,76;-11,03;-11,12;0,64;-1,31;1,45;6,14;0,00
5.458;-1,80;-2,94;1,76;-9,77;-22,24;10,67;-1,31;1,45;6,14;0,00
5.46;-1,80;-2,94;1,76;-8,93;-24,70;11,53;-1,31;1,45;6,14;0,00
5.478;-1,80;-2,94;1,76;-8,93;-24,70;11,53;0,80;2,14;6,75;0,00
5.498;-0,86;-1,84;1,25;-8,93;-24,70;11,53;0,80;2,14;6,75;0,00
5.527;-0,86;-1,84;1,25;-2,29;-26,57;20,08;0,80;2,14;6,75;0,00
5.529;-0,86;-1,84;1,25;-2,82;-28,63;20,46;0,80;2,14;6,75;0,00
5.557;-0,86;-1,84;1,25;-2,82;-28,63;20,46;2,82;1,45;6,01;0,00
5.566;-0,46;-0,74;0,04;-2,82;-28,63;20,46;2,82;1,45;6,01;0,00
5.597;-0,46;-0,74;0,04;3,32;-16,37;8,60;2,82;1,45;6,01;0,00
5.636;-0,46;-0,74;0,04;3,32;-16,37;8,60;2,18;3,33;4,32;0,00
5.637;0,04;-0,48;0,19;3,32;-16,37;8,60;2,18;3,33;4,32;0,00
5.665;0,04;-0,48;0,19;6,11;-11,11;4,98;2,18;3,33;4,32;0,00
5.667;0,04;-0,48;0,19;4,31;-11,58;6,49;2,18;3,33;4,32;0,00
5.676;0,04;-0,48;0,19;4,31;-11,58;6,49;0,79;4,61;2,86;0,00
5.704;0,19;-0,60;0,44;4,31;-11,58;6,49;0,79;4,61;2,86;0,00
5.734;0,19;-0,60;0,44;5,27;-10,77;10,94;0,79;4,61;2,86;0,00
5.735;0,19;-0,60;0,44;3,51;-10,85;11,35;0,79;4,61;2,86;0,00
5.754;0,19;-0,60;0,44;3,51;-10,85;11,35;0,35;3,10;2,44;0,00
5.773;0,53;-0,64;-0,22;3,51;-10,85;11,35;0,35;3,10;2,44;0,00
5.803;0,53;-0,64;-0,22;5,61;-12,36;9,26;0,35;3,10;2,44;0,00
5.804;0,53;-0,64;-0,22;4,55;-12,52;8,92;0,35;3,10;2,44;0,00
5.833;0,53;-0,64;-0,22;4,55;-12,52;8,92;-1,13;1,67;1,40;0,00
5.844;0,78;-0,44;-0,14;4,55;-12,52;8,92;-1,13;1,67;1,40;0,00
5.871;0,78;-0,44;-0,14;4,55;-12,52;8,92;-0,72;-0,34;0,98;0,00
5.872;0,78;-0,44;-0,14;4,99;-12,80;5,45;-0,72;-0,34;0,98;0,00
5.912;1,19;0,75;-0,79;4,99;-12,80;5,45;-0,72;-0,34;0,98;0,00
5.941;1,19;0,75;-0,79;8,96;-5,03;3,53;-0,72;-0,34;0,98;0,00
5.943;1,19;0,75;-0,79;8,57;-4,79;3,60;-0,72;-0,34;0,98;0,00
5.951;1,19;0,75;-0,79;8,57;-4,79;3,60;0,71;-0,40;1,15;0,00
5.98;0,95;1,11;-1,28;8,57;-4,79;3,60;0,71;-0,40;1,15;0,00
6.009;0,95;1,11;-1,28;12,36;2,77;-3,77;0,71;-0,40;1,15;0,00
6.011;0,95;1,11;-1,28;11,90;2,91;-3,60;0,71;-0,40;1,15;0,00
6.03;0,95;1,11;-1,28;11,90;2,91;-3,60;0,51;0,72;0,12;0,00
6.049;0,47;0,76;-1,05;11,90;2,91;-3,60;0,51;0,72;0,12;0,00
6.068;0,47;0,76;-1,05;11,90;2,91;-3,60;-0,34;0,51;-0,43;0,00
6.079;0,47;0,76;-1,05;4,59;4,00;-4,76;-0,34;0,51;-0,43;0,00
6.08;0,47;0,76;-1,05;4,47;3,79;-4,81;-0,34;0,51;-0,43;0,00
6.118;-0,10;0,59;-0,56;4,47;3,79;-4,81;-0,34;0,51;-0,43;0,00
6.148;-0,10;0,59;-0,56;4,47;3,79;-4,81;-1,35;0,38;0,21;0,00
6.149;-0,10;0,59;-0,56;-0,23;-0,01;-0,96;-1,35;0,38;0,21;0,00
6.19;0,24;0,50;-0,49;-0,23;-0,01;-0,96;-1,35;0,38;0,21;0,00
6.217;0,24;0,50;-0,49;-2,59;-1,29;1,51;-1,35;0,38;0,21;0,00
6.218;0,24;0,50;-0,49;-2,76;-1,80;0,81;-1,35;0,38;0,21;0,00
6.227;0,24;0,50;-0,49;-2,76;-1,80;0,81;-2,70;-0,16;0,93;0,00
6.256;0,66;0,44;-0,27;-2,76;-1,80;0,81;-2,70;-0,16;0,93;0,00
6.266;0,66;0,44;-0,27;-2,76;-1,80;0,81;-2,43;-0,62;0,45;0,00
6.286;0,66;0,44;-0,27;1,67;-3,05;1,08;-2,43;-0,62;0,45;0,00
6.288;0,66;0,44;-0,27;1,61;-3,39;0,37;-2,43;-0,62;0,45;0,00
6.325;1,15;0,33;-0,64;1,61;-3,39;0,37;-2,43;-0,62;0,45;0,00
6.346;1,15;0,33;-0,64;1,61;-3,39;0,37;0,78;-0,23;-1,31;0,00
6.354;1,15;0,33;-0,64;5,56;-4,79;0,82;0,78;-0,23;-1,31;0,00
6.355;1,15;0,33;-0,64;5,99;-4,61;1,25;0,78;-0,23;-1,31;0,00
6.395;1,62;0,24;-1,34;5,99;-4,61;1,25;0,78;-0,23;-1,31;0,00
6.424;1,62;0,24;-1,34;14,01;-4,57;-5,27;0,78;-0,23;-1,31;0,00
6.425;1,62;0,24;-1,34;14,01;-4,57;-5,27;2,51;0,65;-3,55;0,00
6.464;1,24;-0,12;-0,40;14,01;-4,57;-5,27;2,51;0,65;-3,55;0,00
6.494;1,24;-0,12;-0,40;12,79;-4,93;-3,33;2,51;0,65;-3,55;0,00
6.495;1,24;-0,12;-0,40;14,46;-4,39;-2,94;2,51;0,65;-3,55;0,00
6.503;1,24;-0,12;-0,40;14,46;-4,39;-2,94;1,37;-2,35;-4,82;0,00
6.534;0,15;-2,03;1,03;14,46;-4,39;-2,94;1,37;-2,35;-4,82;0,00
6.56;0,15;-2,03;1,03;14,46;-4,39;-2,94;0,70;0,23;-6,85;0,00
6.562;0,15;-2,03;1,03;12,37;-14,72;8,36;0,70;0,23;-6,85;0,00
6.562;0,15;-2,03;1,03;13,49;-13,28;8,49;0,70;0,23;-6,85;0,00
6.602;-0,86;-2,54;1,35;13,49;-13,28;8,49;0,70;0,23;-6,85;0,00
6.621;-0,86;-2,54;1,35;13,49;-13,28;8,49;2,23;-0,91;-7,98;0,00
6.631;-0,86;-2,54;1,35;1,50;-25,87;18,26;2,23;-0,91;-7,98;0,00
6.632;-0,86;-2,54;1,35;2,00;-23,14;17,82;2,23;-0,91;-7,98;0,00
6.672;-1,19;-2,19;1,13;2,00;-23,14;17,82;2,23;-0,91;-7,98;0,00
6.699;-1,19;-2,19;1,13;2,00;-23,14;17,82;3,12;-1,80;-6,73;0,00
6.701;-1,19;-2,19;1,13;-5,57;-20,10;18,09;3,12;-1,80;-6,73;0,00
6.739;-1,19;-2,19;1,13;-5,57;-20,10;18,09;2,80;-1,39;-5,02;0,00
6.741;-1,26;-1,95;0,64;-5,57;-20,10;18,09;2,80;-1,39;-5,02;0,00
6.768;-1,26;-1,95;0,64;-6,66;-15,02;12,67;2,80;-1,39;-5,02;0,00
6.77;-1,26;-1,95;0,64;-7,49;-13,54;11,58;2,80;-1,39;-5,02;0,00
6.808;-1,18;-3,02;0,54;-7,49;-13,54;11,58;2,80;-1,39;-5,02;0,00
6.818;-1,18;-3,02;0,54;-7,49;-13,54;11,58;2,49;-3,65;-3,96;0,00
6.838;-1,18;-3,02;0,54;-8,83;-13,04;6,87;2,49;-3,65;-3,96;0,00
6.839;-1,18;-3,02;0,54;-9,82;-12,28;5,53;2,49;-3,65;-3,96;0,00
6.884;-1,87;-3,38;-0,39;-9,82;-12,28;5,53;2,49;-3,65;-3,96;0,00
6.902;-1,87;-3,38;-0,39;-9,82;-12,28;5,53;3,08;-2,50;-3,67;0,00
6.906;-1,87;-3,38;-0,39;-12,29;-24,62;0,60;3,08;-2,50;-3,67;0,00
6.906;-1,87;-3,38;-0,39;-13,40;-24,24;-0,16;3,08;-2,50;-3,67;0,00
6.937;-1,87;-3,38;-0,39;-13,40;-24,24;-0,16;1,26;0,36;-2,59;0,00
6.946;-2,51;-2,39;-0,50;-13,40;-24,24;-0,16;1,26;0,36;-2,59;0,00
6.975;-2,51;-2,39;-0,50;-20,93;-21,42;-6,17;1,26;0,36;-2,59;0,00
7.015;-2,51;-2,39;-0,50;-20,93;-21,42;-6,17;0,59;-0,51;0,69;0,00
7.016;-1,51;-1,08;-0,60;-20,93;-21,42;-6,17;0,59;-0,51;0,69;0,00
7.045;-1,51;-1,08;-0,60;-23,67;-6,41;-10,23;0,59;-0,51;0,69;0,00
7.047;-1,51;-1,08;-0,60;-22,89;-6,32;-10,10;0,59;-0,51;0,69;0,00
7.084;-0,53;-1,04;0,30;-22,89;-6,32;-10,10;0,59;-0,51;0,69;0,00
7.094;-0,53;-1,04;0,30;-22,89;-6,32;-10,10;-0,85;-0,86;1,97;0,00
7.114;-0,53;-1,04;0,30;-6,24;-0,19;-3,76;-0,85;-0,86;1,97;0,00
7.116;-0,53;-1,04;0,30;-5,36;-0,29;-3,43;-0,85;-0,86;1,97;0,00
7.133;-0,53;-1,04;0,30;-5,36;-0,29;-3,43;-0,41;-1,05;2,63;0,00
7.152;-0,18;-1,17;0,39;-5,36;-0,29;-3,43;-0,41;-1,05;2,63;0,00
7.182;-0,18;-1,17;0,39;-0,37;-1,51;2,48;-0,41;-1,05;2,63;0,00
7.183;-0,18;-1,17;0,39;0,60;-1,93;2,26;-0,41;-1,05;2,63;0,00
7.212;-0,18;-1,17;0,39;0,60;-1,93;2,26;-0,42;-1,53;3,46;0,00
7.221;-1,08;-1,33;0,06;0,60;-1,93;2,26;-0,42;-1,53;3,46;0,00
7.252;-1,08;-1,33;0,06;1,66;-3,03;-0,59;-0,42;-1,53;3,46;0,00
7.291;-1,79;-1,21;0,16;1,66;-3,03;-0,59;-0,42;-1,53;3,46;0,00
7.294;-1,79;-1,21;0,16;1,66;-3,03;-0,59;-0,02;-3,39;4,39;0,00
7.321;-1,79;-1,21;0,16;-8,18;-5,99;-2,02;-0,02;-3,39;4,39;0,00
7.322;-1,79;-1,21;0,16;-7,31;-7,22;-3,13;-0,02;-3,39;4,39;0,00
7.36;-1,91;-1,62;1,55;-7,31;-7,22;-3,13;-0,02;-3,39;4,39;0,00
7.369;-1,91;-1,62;1,55;-7,31;-7,22;-3,13;0,91;-1,29;5,24;0,00
7.391;-1,91;-1,62;1,55;-8,95;-7,54;0,46;0,91;-1,29;5,24;0,00
7.392;-1,91;-1,62;1,55;-7,99;-9,45;0,43;0,91;-1,29;5,24;0,00
7.409;-1,91;-1,62;1,55;-7,99;-9,45;0,43;2,42;1,30;5,34;0,00
7.429;-1,72;-2,23;2,25;-7,99;-9,45;0,43;2,42;1,30;5,34;0,00
7.458;-1,72;-2,23;2,25;-8,98;-18,38;16,03;2,42;1,30;5,34;0,00
7.459;-1,72;-2,23;2,25;-8,73;-21,02;16,78;2,42;1,30;5,34;0,00
7.488;-1,72;-2,23;2,25;-8,73;-21,02;16,78;4,25;1,85;5,65;0,00
7.499;-0,66;-1,34;1,09;-8,73;-21,02;16,78;4,25;1,85;5,65;0,00
7.527;-0,66;-1,34;1,09;-2,94;-25,76;17,15;4,25;1,85;5,65;0,00
7.567;-0,66;-1,34;1,09;-2,94;-25,76;17,15;4,59;1,67;4,04;0,00
7.567;0,10;0,02;-0,11;-2,94;-25,76;17,15;4,59;1,67;4,04;0,00
7.596;0,10;0,02;-0,11;6,38;-11,87;2,42;4,59;1,67;4,04;0,00
7.598;0,10;0,02;-0,11;5,57;-12,64;4,30;4,59;1,67;4,04;0,00
7.606;0,10;0,02;-0,11;5,57;-12,64;4,30;3,00;3,42;1,44;0,00
7.635;-0,20;0,16;-0,15;5,57;-12,64;4,30;3,00;3,42;1,44;0,00
7.665;-0,20;0,16;-0,15;8,75;-4,88;-0,43;3,00;3,42;1,44;0,00
7.666;-0,20;0,16;-0,15;7,88;-4,83;1,05;3,00;3,42;1,44;0,00
7.685;-0,20;0,16;-0,15;7,88;-4,83;1,05;0,65;3,99;0,95;0,00
7.704;-0,44;-0,56;0,72;7,88;-4,83;1,05;0,65;3,99;0,95;0,00
7.734;-0,44;-0,56;0,72;1,49;-9,41;8,20;0,65;3,99;0,95;0,00
7.736;-0,44;-0,56;0,72;0,30;-9,43;8,90;0,65;3,99;0,95;0,00
7.764;-0,44;-0,56;0,72;0,30;-9,43;8,90;0,82;2,93;1,97;0,00
7.774;-0,15;-0,69;0,30;0,30;-9,43;8,90;0,82;2,93;1,97;0,00
7.803;-0,15;-0,69;0,30;0,30;-9,43;8,90;-0,40;1,98;2,63;0,00
7.804;-0,15;-0,69;0,30;-0,02;-13,50;11,86;-0,40;1,98;2,63;0,00
7.843;0,58;-0,31;-0,09;-0,02;-13,50;11,86;-0,40;1,98;2,63;0,00
7.872;0,58;-0,31;-0,09;2,31;-13,86;7,70;-0,40;1,98;2,63;0,00
7.872;0,58;-0,31;-0,09;1,60;-13,83;7,47;-0,40;1,98;2,63;0,00
7.886;0,58;-0,31;-0,09;1,60;-13,83;7,47;0,37;-0,51;2,25;0,00
7.912;1,31;0,60;-0,85;1,60;-13,83;7,47;0,37;-0,51;2,25;0,00
7.941;1,31;0,60;-0,85;10,19;-5,11;1,89;0,37;-0,51;2,25;0,00
7.942;1,31;0,60;-0,85;9,75;-4,72;2,24;0,37;-0,51;2,25;0,00
7.961;1,31;0,60;-0,85;9,75;-4,72;2,24;1,70;-1,13;1,73;0,00
7.98;1,25;0,90;-2,02;9,75;-4,72;2,24;1,70;-1,13;1,73;0,00
8.0;1,25;0,90;-2,02;9,75;-4,72;2,24;1,52;-0,13;0,01;0,00
8.01;1,25;0,90;-2,02;12,60;0,50;-6,21;1,52;-0,13;0,01;0,00
8.01;1,25;0,90;-2,02;12,42;0,90;-5,76;1,52;-0,13;0,01;0,00
8.05;0,18;0,69;-1,11;12,42;0,90;-5,76;1,52;-0,13;0,01;0,00
8.079;0,18;0,69;-1,11;12,42;0,90;-5,76;-0,41;0,55;-0,40;0,00
8.08;0,18;0,69;-1,11;8,32;3,63;-11,50;-0,41;0,55;-0,40;0,00
8.118;-0,19;0,47;-0,60;8,32;3,63;-11,50;-0,41;0,55;-0,40;0,00
8.148;-0,19;0,47;-0,60;-1,38;-1,43;0,57;-0,41;0,55;-0,40;0,00
8.15;-0,19;0,47;-0,60;-1,24;-1,46;0,52;-0,41;0,55;-0,40;0,00
8.158;-0,19;0,47;-0,60;-1,24;-1,46;0,52;-0,31;-0,17;-0,20;0,00
8.187;-0,06;0,54;-0,61;-1,24;-1,46;0,52;-0,31;-0,17;-0,20;0,00
8.217;-0,06;0,54;-0,61;-2,23;-1,44;0,81;-0,31;-0,17;-0,20;0,00
8.219;-0,06;0,54;-0,61;-2,15;-1,65;0,59;-0,31;-0,17;-0,20;0,00
8.236;-0,06;0,54;-0,61;-2,15;-1,65;0,59;-0,88;-0,72;0,61;0,00
8.256;0,52;0,41;-0,68;-2,15;-1,65;0,59;-0,88;-0,72;0,61;0,00
8.276;0,52;0,41;-0,68;-2,15;-1,65;0,59;-0,49;-0,65;0,17;0,00
8.286;0,52;0,41;-0,68;1,35;-1,77;1,27;-0,49;-0,65;0,17;0,00
8.286;0,52;0,41;-0,68;1,44;-1,82;1,16;-0,49;-0,65;0,17;0,00
8.326;0,95;0,29;-1,29;1,44;-1,82;1,16;-0,49;-0,65;0,17;0,00
8.354;0,95;0,29;-1,29;1,44;-1,82;1,16;-0,45;-0,13;-1,21;0,00
8.355;0,95;0,29;-1,29;7,11;-2,85;-2,74;-0,45;-0,13;-1,21;0,00
8.395;0,75;0,13;-1,17;7,11;-2,85;-2,74;-0,45;-0,13;-1,21;0,00
8.424;0,75;0,13;-1,17;9,27;-5,55;-5,91;-0,45;-0,13;-1,21;0,00
8.425;0,75;0,13;-1,17;9,70;-5,37;-5,78;-0,45;-0,13;-1,21;0,00
8.433;0,75;0,13;-1,17;9,70;-5,37;-5,78;0,06;0,95;-3,41;0,00
8.463;0,97;0,12;-0,86;9,70;-5,37;-5,78;0,06;0,95;-3,41;0,00
8.473;0,97;0,12;-0,86;9,70;-5,37;-5,78;-0,80;-1,20;-4,24;0,00
8.493;0,97;0,12;-0,86;9,68;-2,80;-5,92;-0,80;-1,20;-4,24;0,00
8.494;0,97;0,12;-0,86;10,89;-2,61;-6,21;-0,80;-1,20;-4,24;0,00
8.535;0,24;-1,44;0,81;10,89;-2,61;-6,21;-0,80;-1,20;-4,24;0,00
8.552;0,24;-1,44;0,81;10,89;-2,61;-6,21;-0,60;0,59;-6,45;0,00
8.562;0,24;-1,44;0,81;12,50;-11,60;6,03;-0,60;0,59;-6,45;0,00
8.562;0,24;-1,44;0,81;13,33;-10,09;6,17;-0,60;0,59;-6,45;0,00
8.601;-0,68;-1,66;1,09;13,33;-10,09;6,17;-0,60;0,59;-6,45;0,00
8.631;-0,68;-1,66;1,09;3,14;-18,25;15,87;-0,60;0,59;-6,45;0,00
8.632;-0,68;-1,66;1,09;3,14;-18,25;15,87;1,12;0,64;-6,98;0,00
8.67;-0,68;-1,66;1,09;3,14;-18,25;15,87;2,26;-0,55;-5,41;0,00
8.672;-0,64;-1,48;0,94;3,14;-18,25;15,87;2,26;-0,55;-5,41;0,00
8.7;-0,64;-1,48;0,94;-2,00;-14,78;16,62;2,26;-0,55;-5,41;0,00
8.7;-0,64;-1,48;0,94;-2,05;-12,81;16,10;2,26;-0,55;-5,41;0,00
8.739;-0,83;-1,66;0,47;-2,05;-12,81;16,10;2,26;-0,55;-5,41;0,00
8.749;-0,83;-1,66;0,47;-2,05;-12,81;16,10;2,94;-0,34;-4,77;0,00
8.77;-0,83;-1,66;0,47;-0,07;-11,40;12,58;2,94;-0,34;-4,77;0,00
8.772;-0,83;-1,66;0,47;-0,83;-9,79;11,69;2,94;-0,34;-4,77;0,00
8.808;-0,83;-2,39;0,47;-0,83;-9,79;11,69;2,94;-0,34;-4,77;0,00
8.828;-0,83;-2,39;0,47;-0,83;-9,79;11,69;2,91;-3,61;-3,51;0,00
8.838;-0,83;-2,39;0,47;-5,69;-10,54;6,01;2,91;-3,61;-3,51;0,00
8.839;-0,83;-2,39;0,47;-6,41;-9,58;4,61;2,91;-3,61;-3,51;0,00
8.867;-0,83;-2,39;0,47;-6,41;-9,58;4,61;3,19;-1,32;-4,08;0,00
8.877;-1,27;-3,02;0,38;-6,41;-9,58;4,61;3,19;-1,32;-4,08;0,00
8.907;-1,27;-3,02;0,38;-7,51;-17,34;4,34;3,19;-1,32;-4,08;0,00
8.946;-1,27;-3,02;0,38;-7,51;-17,34;4,34;2,77;-0,85;-3,06;0,00
8.946;-1,83;-3,24;-0,35;-7,51;-17,34;4,34;2,77;-0,85;-3,06;0,00
8.976;-1,83;-3,24;-0,35;-12,25;-24,40;1,42;2,77;-0,85;-3,06;0,00
8.977;-1,83;-3,24;-0,35;-13,08;-24,08;0,40;2,77;-0,85;-3,06;0,00
9.016;-1,49;-2,02;-1,27;-13,08;-24,08;0,40;2,77;-0,85;-3,06;0,00
9.029;-1,49;-2,02;-1,27;-13,08;-24,08;0,40;1,47;-0,88;-1,03;0,00
9.045;-1,49;-2,02;-1,27;-17,20;-17,55;-12,29;1,47;-0,88;-1,03;0,00
9.046;-1,49;-2,02;-1,27;-17,20;-17,30;-12,23;1,47;-0,88;-1,03;0,00
9.085;-1,23;-1,23;-0,18;-17,20;-17,30;-12,23;1,47;-0,88;-1,03;0,00
9.104;-1,23;-1,23;-0,18;-17,20;-17,30;-12,23;-0,97;0,73;0,07;0,00
9.114;-1,23;-1,23;-0,18;-14,13;-5,90;-10,42;-0,97;0,73;0,07;0,00
9.115;-1,23;-1,23;-0,18;-13,37;-5,77;-9,87;-0,97;0,73;0,07;0,00
9.143;-1,23;-1,23;-0,18;-13,37;-5,77;-9,87;-1,06;-0,39;1,77;0,00
9.159;-0,34;-0,81;0,26;-13,37;-5,77;-9,87;-1,06;-0,39;1,77;0,00
9.183;-0,34;-0,81;0,26;-4,98;0,68;-0,48;-1,06;-0,39;1,77;0,00
9.222;-0,34;-0,81;0,26;-4,98;0,68;-0,48;-0,92;-0,41;2,30;0,00
9.223;-0,95;-1,07;0,29;-4,98;0,68;-0,48;-0,92;-0,41;2,30;0,00
9.257;-0,95;-1,07;0,29;-1,55;1,40;2,58;-0,92;-0,41;2,30;0,00
9.258;-0,95;-1,07;0,29;-0,51;1,02;2,64;-0,92;-0,41;2,30;0,00
9.291;-1,77;-1,52;-0,17;-0,51;1,02;2,64;-0,92;-0,41;2,30;0,00
9.301;-1,77;-1,52;-0,17;-0,51;1,02;2,64;0,25;-2,78;4,19;0,00
9.32;-1,77;-1,52;-0,17;-7,09;-3,76;-0,42;0,25;-2,78;4,19;0,00
9.321;-1,77;-1,52;-0,17;-5,58;-4,85;-0,99;0,25;-2,78;4,19;0,00
9.34;-1,77;-1,52;-0,17;-5,58;-4,85;-0,99;-0,19;-0,31;5,15;0,00
9.36;-2,64;-2,52;1,18;-5,58;-4,85;-0,99;-0,19;-0,31;5,15;0,00
9.389;-2,64;-2,52;1,18;-13,94;-12,09;0,20;-0,19;-0,31;5,15;0,00
9.39;-2,64;-2,52;1,18;-12,40;-14,16;0,48;-0,19;-0,31;5,15;0,00
9.419;-2,64;-2,52;1,18;-12,40;-14,16;0,48;0,87;1,24;6,65;0,00
9.429;-1,68;-3,01;1,99;-12,40;-14,16;0,48;0,87;1,24;6,65;0,00
9.458;-1,68;-3,01;1,99;-12,25;-26,96;15,77;0,87;1,24;6,65;0,00
9.498;-1,68;-3,01;1,99;-12,25;-26,96;15,77;2,88;2,12;6,32;0,00
9.499;-0,93;-1,43;0,78;-12,25;-26,96;15,77;2,88;2,12;6,32;0,00
9.528;-0,93;-1,43;0,78;-0,69;-24,90;16,20;2,88;2,12;6,32;0,00
9.528;-0,93;-1,43;0,78;-1,16;-26,87;17,55;2,88;2,12;6,32;0,00
9.537;-0,93;-1,43;0,78;-1,16;-26,87;17,55;2,86;3,22;4,70;0,00
9.567;-0,08;-0,44;0,17;-1,16;-26,87;17,55;2,86;3,22;4,70;0,00
9.597;-0,08;-0,44;0,17;4,61;-12,42;3,69;2,86;3,22;4,70;0,00
9.598;-0,08;-0,44;0,17;3,31;-13,21;5,57;2,86;3,22;4,70;0,00
9.616;-0,08;-0,44;0,17;3,31;-13,21;5,57;1,17;4,89;2,77;0,00
9.636;0,16;-0,33;0,69;3,31;-13,21;5,57;1,17;4,89;2,77;0,00
9.665;0,16;-0,33;0,69;6,71;-9,35;11,24;1,17;4,89;2,77;0,00
9.666;0,16;-0,33;0,69;5,10;-9,41;12,29;1,17;4,89;2,77;0,00
9.695;0,16;-0,33;0,69;5,10;-9,41;12,29;0,86;4,23;1,88;0,00
9.705;0,11;-0,41;0,48;5,10;-9,41;12,29;0,86;4,23;1,88;0,00
9.734;0,11;-0,41;0,48;5,10;-9,41;12,29;-0,51;2,44;1,96;0,00
9.735;0,11;-0,41;0,48;6,17;-8,48;13,51;-0,51;2,44;1,96;0,00
9.774;0,04;-0,73;0,18;6,17;-8,48;13,51;-0,51;2,44;1,96;0,00
9.804;0,04;-0,73;0,18;2,76;-11,18;10,13;-0,51;2,44;1,96;0,00
9.806;0,04;-0,73;0,18;1,92;-11,75;9,53;-0,51;2,44;1,96;0,00
9.813;0,04;-0,73;0,18;1,92;-11,75;9,53;-1,79;-0,28;2,56;0,00
9.843;0,72;-0,77;-0,01;1,92;-11,75;9,53;-1,79;-0,28;2,56;0,00
9.873;0,72;-0,77;-0,01;3,33;-16,33;9,70;-1,79;-0,28;2,56;0,00
9.874;0,72;-0,77;-0,01;2,93;-15,76;9,88;-1,79;-0,28;2,56;0,00
9.891;0,72;-0,77;-0,01;2,93;-15,76;9,88;1,86;-0,69;2,15;0,00
9.919;1,30;0,63;-1,35;2,93;-15,76;9,88;1,86;-0,69;2,15;0,00
9.941;1,30;0,63;-1,35;8,93;-6,03;1,81;1,86;-0,69;2,15;0,00
9.942;1,30;0,63;-1,35;9,35;-5,39;2,13;1,86;-0,69;2,15;0,00
9.97;1,30;0,63;-1,35;9,35;-5,39;2,13;1,93;-3,14;1,67;0,00
9.982;0,90;1,14;-2,11;9,35;-5,39;2,13;1,93;-3,14;1,67;0,00
10.01;0,90;1,14;-2,11;9,35;-5,39;2,13;0,37;0,86;-0,26;0,00
10.011;0,90;1,14;-2,11;16,20;3,97;-12,91;0,37;0,86;-0,26;0,00
10.05;-0,20;0,79;-1,47;16,20;3,97;-12,91;0,37;0,86;-0,26;0,00
10.079;-0,20;0,79;-1,47;1,43;5,42;-8,41;0,37;0,86;-0,26;0,00
10.08;-0,20;0,79;-1,47;1,44;5,40;-8,23;0,37;0,86;-0,26;0,00
10.089;-0,20;0,79;-1,47;1,44;5,40;-8,23;-0,12;0,13;-0,47;0,00
10.118;-0,45;0,42;-0,73;1,44;5,40;-8,23;-0,12;0,13;-0,47;0,00
10.148;-0,45;0,42;-0,73;-3,23;1,25;-3,87;-0,12;0,13;-0,47;0,00
10.149;-0,45;0,42;-0,73;-3,34;0,96;-3,98;-0,12;0,13;-0,47;0,00
10.169;-0,45;0,42;-0,73;-3,34;0,96;-3,98;-0,91;0,55;-0,03;0,00
10.195;-0,17;0,38;-0,38;-3,34;0,96;-3,98;-0,91;0,55;-0,03;0,00
10.219;-0,17;0,38;-0,38;-3,34;0,96;-3,98;-1,22;0,03;0,77;0,00
10.22;-0,17;0,38;-0,38;-3,68;-1,32;2,01;-1,22;0,03;0,77;0,00
10.22;-0,17;0,38;-0,38;-3,82;-1,66;1,70;-1,22;0,03;0,77;0,00
10.257;0,13;0,47;-0,21;-3,82;-1,66;1,70;-1,22;0,03;0,77;0,00
10.29;0,13;0,47;-0,21;-0,17;-2,75;4,53;-1,22;0,03;0,77;0,00
10.291;0,13;0,47;-0,21;-0,17;-2,75;4,53;0,17;0,21;0,41;0,00
10.326;0,57;0,87;-1,08;-0,17;-2,75;4,53;0,17;0,21;0,41;0,00
10.355;0,57;0,87;-1,08;1,27;2,44;3,41;0,17;0,21;0,41;0,00
10.356;0,57;0,87;-1,08;1,42;2,77;3,63;0,17;0,21;0,41;0,00
10.366;0,57;0,87;-1,08;1,42;2,77;3,63;1,07;-0,62;0,34;0,00
10.395;0,50;0,03;-0,99;1,42;2,77;3,63;1,07;-0,62;0,34;0,00
10.409;0,50;0,03;-0,99;1,42;2,77;3,63;0,19;1,29;-0,79;0,00
10.424;0,50;0,03;-0,99;6,27;-0,92;-4,90;0,19;1,29;-0,79;0,00
10.424;0,50;0,03;-0,99;5,94;-0,87;-4,82;0,19;1,29;-0,79;0,00
10.463;1,14;-0,26;-1,27;5,94;-0,87;-4,82;0,19;1,29;-0,79;0,00
10.483;1,14;-0,26;-1,27;5,94;-0,87;-4,82;-0,47;-0,45;-1,75;0,00
10.494;1,14;-0,26;-1,27;6,91;-6,34;-2,51;-0,47;-0,45;-1,75;0,00
10.495;1,14;-0,26;-1,27;7,19;-6,56;-2,68;-0,47;-0,45;-1,75;0,00
10.532;1,09;0,05;-0,88;7,19;-6,56;-2,68;-0,47;-0,45;-1,75;0,00
10.562;1,09;0,05;-0,88;7,19;-6,56;-2,68;-1,51;-0,57;-3,51;0,00
10.563;1,09;0,05;-0,88;12,43;-8,74;-3,79;-1,51;-0,57;-3,51;0,00
10.601;1,09;0,05;-0,88;12,43;-8,74;-3,79;-1,06;-2,66;-3,43;0,00
10.602;1,10;0,01;-0,07;12,43;-8,74;-3,79;-1,06;-2,66;-3,43;0,00
10.64;1,10;0,01;-0,07;10,35;-1,45;1,52;-1,06;-2,66;-3,43;0,00
10.642;1,10;0,01;-0,07;11,67;-1,41;1,02;-1,06;-2,66;-3,43;0,00
10.67;-0,09;-2,14;1,16;11,67;-1,41;1,02;-1,06;-2,66;-3,43;0,00
10.68;-0,09;-2,14;1,16;11,67;-1,41;1,02;-0,47;-0,22;-7,01;0,00
10.701;-0,09;-2,14;1,16;14,55;-14,73;9,69;-0,47;-0,22;-7,01;0,00
10.702;-0,09;-2,14;1,16;15,41;-13,01;9,68;-0,47;-0,22;-7,01;0,00
10.739;-1,19;-2,26;1,42;15,41;-13,01;9,68;-0,47;-0,22;-7,01;0,00
10.759;-1,19;-2,26;1,42;15,41;-13,01;9,68;1,63;-0,77;-7,32;0,00
10.768;-1,19;-2,26;1,42;-3,17;-24,20;20,10;1,63;-0,77;-7,32;0,00
10.769;-1,19;-2,26;1,42;-2,86;-21,76;19,39;1,63;-0,77;-7,32;0,00
10.81;-1,19;-1,87;0,88;-2,86;-21,76;19,39;1,63;-0,77;-7,32;0,00
10.838;-1,19;-1,87;0,88;-2,86;-21,76;19,39;2,66;0,03;-6,09;0,00
10.84;-1,19;-1,87;0,88;-5,22;-17,02;16,53;2,66;0,03;-6,09;0,00
10.877;-1,19;-1,87;0,88;-5,22;-17,02;16,53;3,35;-1,35;-4,19;0,00
10.878;-1,00;-1,53;0,16;-5,22;-17,02;16,53;3,35;-1,35;-4,19;0,00
10.907;-1,00;-1,53;0,16;-6,76;-9,85;8,18;3,35;-1,35;-4,19;0,00
10.908;-1,00;-1,53;0,16;-7,39;-8,62;6,94;3,35;-1,35;-4,19;0,00
10.946;-1,25;-2,46;0,65;-7,39;-8,62;6,94;3,35;-1,35;-4,19;0,00
10.956;-1,25;-2,46;0,65;-7,39;-8,62;6,94;2,99;-1,94;-3,55;0,00
10.976;-1,25;-2,46;0,65;-6,51;-9,60;3,36;2,99;-1,94;-3,55;0,00
10.978;-1,25;-2,46;0,65;-7,43;-8,99;2,11;2,99;-1,94;-3,55;0,00
11.015;-1,55;-2,92;-0,32;-7,43;-8,99;2,11;2,99;-1,94;-3,55;0,00
11.035;-1,55;-2,92;-0,32;-7,43;-8,99;2,11;3,60;-2,38;-3,21;0,00
11.045;-1,55;-2,92;-0,32;-11,93;-18,14;1,53;3,60;-2,38;-3,21;0,00
11.046;-1,55;-2,92;-0,32;-12,77;-17,91;0,66;3,60;-2,38;-3,21;0,00
11.075;-1,55;-2,92;-0,32;-12,77;-17,91;0,66;1,76;-0,97;-1,92;0,00
11.084;-2,11;-2,68;-1,05;-12,77;-17,91;0,66;1,76;-0,97;-1,92;0,00
11.113;-2,11;-2,68;-1,05;-16,64;-21,96;-6,93;1,76;-0,97;-1,92;0,00
11.153;-1,10;-1,78;-0,38;-16,64;-21,96;-6,93;1,76;-0,97;-1,92;0,00
11.154;-1,10;-1,78;-0,38;-16,64;-21,96;-6,93;-0,21;-1,11;0,49;0,00
11.183;-1,10;-1,78;-0,38;-17,47;-12,99;-13,49;-0,21;-1,11;0,49;0,00
11.184;-1,10;-1,78;-0,38;-16,94;-12,72;-13,04;-0,21;-1,11;0,49;0,00
11.222;-0,58;-0,98;0,27;-16,94;-12,72;-13,04;-0,21;-1,11;0,49;0,00
11.232;-0,58;-0,98;0,27;-16,94;-12,72;-13,04;-1,13;-0,20;1,36;0,00
11.252;-0,58;-0,98;0,27;-6,34;-2,74;-2,95;-1,13;-0,20;1,36;0,00
11.253;-0,58;-0,98;0,27;-5,61;-2,73;-2,40;-1,13;-0,20;1,36;0,00
11.271;-0,58;-0,98;0,27;-5,61;-2,73;-2,40;-1,04;-0,16;1,94;0,00
11.291;-0,67;-0,80;0,30;-5,61;-2,73;-2,40;-1,04;-0,16;1,94;0,00
11.323;-0,67;-0,80;0,30;-1,43;1,08;2,57;-1,04;-0,16;1,94;0,00
11.325;-0,67;-0,80;0,30;-0,49;0,72;2,69;-1,04;-0,16;1,94;0,00
11.35;-0,67;-0,80;0,30;-0,49;0,72;2,69;-0,64;-1,07;3,04;0,00
11.36;-1,60;-1,26;0,09;-0,49;0,72;2,69;-0,64;-1,07;3,04;0,00
11.39;-1,60;-1,26;0,09;-4,30;-0,20;0,73;-0,64;-1,07;3,04;0,00
11.429;-2,73;-2,33;0,63;-4,30;-0,20;0,73;-0,64;-1,07;3,04;0,00
11.429;-2,73;-2,33;0,63;-4,30;-0,20;0,73;-0,59;-0,20;4,43;0,00
11.459;-2,73;-2,33;0,63;-15,40;-8,71;1,21;-0,59;-0,20;4,43;0,00
11.46;-2,73;-2,33;0,63;-13,66;-10,16;1,43;-0,59;-0,20;4,43;0,00
11.469;-2,73;-2,33;0,63;-13,66;-10,16;1,43;-0,60;0,67;6,67;0,00
11.498;-1,90;-3,42;1,67;-13,66;-10,16;1,43;-0,60;0,67;6,67;0,00
11.528;-1,90;-3,42;1,67;-14,95;-24,43;10,61;-0,60;0,67;6,67;0,00
11.529;-1,90;-3,42;1,67;-13,91;-27,05;10,79;-0,60;0,67;6,67;0,00
11.547;-1,90;-3,42;1,67;-13,91;-27,05;10,79;1,61;0,96;6,59;0,00
11.568;-0,14;-1,74;0,67;-13,91;-27,05;10,79;1,61;0,96;6,59;0,00
11.596;-0,14;-1,74;0,67;1,32;-29,92;13,19;1,61;0,96;6,59;0,00
11.597;-0,14;-1,74;0,67;1,02;-31,16;14,24;1,61;0,96;6,59;0,00
11.626;-0,14;-1,74;0,67;1,02;-31,16;14,24;1,90;2,84;3,55;0,00
11.636;-0,38;-0,24;-0,07;1,02;-31,16;14,24;1,90;2,84;3,55;0,00
11.667;-0,38;-0,24;-0,07;9,61;-11,06;3,96;1,90;2,84;3,55;0,00
11.705;-0,38;-0,24;-0,07;9,61;-11,06;3,96;0,54;3,31;2,40;0,00
11.706;-0,62;-0,51;0,70;9,61;-11,06;3,96;0,54;3,31;2,40;0,00
11.734;-0,62;-0,51;0,70;4,44;-6,43;6,55;0,54;3,31;2,40;0,00
11.736;-0,62;-0,51;0,70;3,33;-7,28;7,79;0,54;3,31;2,40;0,00
11.744;-0,62;-0,51;0,70;3,33;-7,28;7,79;0,77;2,67;3,70;0,00
11.774;0,06;-0,66;0,83;3,33;-7,28;7,79;0,77;2,67;3,70;0,00
11.804;0,06;-0,66;0,83;3,04;-10,76;13,01;0,77;2,67;3,70;0,00
11.806;0,06;-0,66;0,83;1,56;-11,41;13,59;0,77;2,67;3,70;0,00
11.83;0,06;-0,66;0,83;1,56;-11,41;13,59;1,10;2,38;3,96;0,00
11.844;0,36;-0,69;0,23;1,56;-11,41;13,59;1,10;2,38;3,96;0,00
11.874;0,36;-0,69;0,23;6,71;-12,82;13,13;1,10;2,38;3,96;0,00
11.875;0,36;-0,69;0,23;5,26;-12,93;13,30;1,10;2,38;3,96;0,00
11.902;0,36;-0,69;0,23;5,26;-12,93;13,30;0,50;1,78;3,34;0,00
11.912;1,20;-0,48;-0,32;5,26;-12,93;13,30;0,50;1,78;3,34;0,00
11.941;1,20;-0,48;-0,32;5,26;-12,93;13,30;0,41;0,33;1,81;0,00
11.942;1,20;-0,48;-0,32;7,72;-12,72;7,15;0,41;0,33;1,81;0,00
11.981;1,18;0,52;-1,10;7,72;-12,72;7,15;0,41;0,33;1,81;0,00
12.01;1,18;0,52;-1,10;14,20;-6,65;0,03;0,41;0,33;1,81;0,00
12.011;1,18;0,52;-1,10;13,57;-6,41;0,19;0,41;0,33;1,81;0,00
12.02;1,18;0,52;-1,10;13,57;-6,41;0,19;0,57;0,41;0,74;0,00
12.05;1,00;1,02;-1,61;13,57;-6,41;0,19;0,57;0,41;0,74;0,00
12.079;1,00;1,02;-1,61;12,05;1,94;-6,00;0,57;0,41;0,74;0,00
12.08;1,00;1,02;-1,61;11,78;2,05;-5,79;0,57;0,41;0,74;0,00
12.099;1,00;1,02;-1,61;11,78;2,05;-5,79;0,44;0,18;0,02;0,00
12.119;0,18;0,95;-1,37;11,78;2,05;-5,79;0,44;0,18;0,02;0,00
12.139;0,18;0,95;-1,37;11,78;2,05;-5,79;-0,00;0,44;-0,88;0,00
12.149;0,18;0,95;-1,37;5,81;4,64;-8,18;-0,00;0,44;-0,88;0,00
12.15;0,18;0,95;-1,37;5,79;4,54;-8,06;-0,00;0,44;-0,88;0,00
12.199;-0,37;0,65;-0,76;5,79;4,54;-8,06;-0,00;0,44;-0,88;0,00
12.248;-0,37;0,65;-0,76;5,79;4,54;-8,06;-0,65;0,66;-0,81;0,00
12.249;-0,37;0,65;-0,76;-1,32;2,38;-3,66;-0,65;0,66;-0,81;0,00
12.26;-0,32;0,58;-0,16;-1,32;2,38;-3,66;-0,65;0,66;-0,81;0,00
12.286;-0,32;0,58;-0,16;-4,64;-0,68;4,02;-0,65;0,66;-0,81;0,00
12.287;-0,32;0,58;-0,16;-4,55;-0,74;3,90;-0,65;0,66;-0,81;0,00
12.296;-0,32;0,58;-0,16;-4,55;-0,74;3,90;-0,11;-0,34;0,32;0,00
12.326;0,34;0,57;-0,62;-4,55;-0,74;3,90;-0,11;-0,34;0,32;0,00
12.342;0,34;0,57;-0,62;-4,55;-0,74;3,90;0,23;-0,27;0,78;0,00
12.355;0,34;0,57;-0,62;-0,55;0,17;4,20;0,23;-0,27;0,78;0,00
12.356;0,34;0,57;-0,62;-0,65;0,24;4,18;0,23;-0,27;0,78;0,00
12.395;0,39;0,42;-1,02;-0,65;0,24;4,18;0,23;-0,27;0,78;0,00
12.414;0,39;0,42;-1,02;-0,65;0,24;4,18;-0,10;0,25;0,09;0,00
12.425;0,39;0,42;-1,02;4,44;-1,10;-0,75;-0,10;0,25;0,09;0,00
12.426;0,39;0,42;-1,02;4,23;-1,15;-0,80;-0,10;0,25;0,09;0,00
12.463;0,49;0,12;-1,16;4,23;-1,15;-0,80;-0,10;0,25;0,09;0,00
12.493;0,49;0,12;-1,16;2,31;-2,94;-3,47;-0,10;0,25;0,09;0,00
12.494;0,49;0,12;-1,16;2,31;-2,94;-3,47;-1,21;0,01;0,17;0,00
12.533;1,11;0,02;-0,84;2,31;-2,94;-3,47;-1,21;0,01;0,17;0,00
12.565;1,11;0,02;-0,84;5,98;-6,92;-3,11;-1,21;0,01;0,17;0,00
12.565;1,11;0,02;-0,84;6,30;-7,20;-3,44;-1,21;0,01;0,17;0,00
12.572;1,11;0,02;-0,84;6,30;-7,20;-3,44;-1,44;-0,10;-1,50;0,00
12.602;0,98;0,85;-0,82;6,30;-7,20;-3,44;-1,44;-0,10;-1,50;0,00
12.611;0,98;0,85;-0,82;6,30;-7,20;-3,44;0,31;-0,78;-3,65;0,00
12.631;0,98;0,85;-0,82;12,55;-3,06;-3,09;0,31;-0,78;-3,65;0,00
12.633;0,98;0,85;-0,82;13,59;-2,82;-3,05;0,31;-0,78;-3,65;0,00
12.67;0,93;-0,59;0,07;13,59;-2,82;-3,05;0,31;-0,78;-3,65;0,00
12.69;0,93;-0,59;0,07;13,59;-2,82;-3,05;-0,66;-2,09;-4,21;0,00
12.7;0,93;-0,59;0,07;13,18;-1,24;1,99;-0,66;-2,09;-4,21;0,00
12.701;0,93;-0,59;0,07;14,47;-0,59;1,71;-0,66;-2,09;-4,21;0,00
12.74;-0,33;-1,72;0,95;14,47;-0,59;1,71;-0,66;-2,09;-4,21;0,00
12.77;-0,33;-1,72;0,95;8,33;-16,27;10,81;-0,66;-2,09;-4,21;0,00
12.772;-0,33;-1,72;0,95;8,33;-16,27;10,81;0,12;-0,19;-6,49;0,00
12.808;-0,33;-1,72;0,95;8,33;-16,27;10,81;0,59;-1,44;-6,64;0,00
12.809;-0,60;-1,74;0,89;8,33;-16,27;10,81;0,59;-1,44;-6,64;0,00
12.838;-0,60;-1,74;0,89;1,57;-19,54;14,60;0,59;-1,44;-6,64;0,00
12.84;-0,60;-1,74;0,89;2,12;-17,37;14,01;0,59;-1,44;-6,64;0,00
12.88;-0,73;-1,54;0,67;2,12;-17,37;14,01;0,59;-1,44;-6,64;0,00
12.899;-0,73;-1,54;0,67;2,12;-17,37;14,01;1,35;-0,95;-5,65;0,00
12.906;-0,73;-1,54;0,67;-0,08;-14,46;13,08;1,35;-0,95;-5,65;0,00
12.907;-0,73;-1,54;0,67;-0,46;-12,60;12,29;1,35;-0,95;-5,65;0,00
12.947;-0,55;-1,91;0,67;-0,46;-12,60;12,29;1,35;-0,95;-5,65;0,00
12.966;-0,55;-1,91;0,67;-0,46;-12,60;12,29;1,59;-2,15;-4,66;0,00
12.975;-0,55;-1,91;0,67;-0,28;-9,43;7,20;1,59;-2,15;-4,66;0,00
12.976;-0,55;-1,91;0,67;-1,09;-8,24;6,24;1,59;-2,15;-4,66;0,00
13.005;-0,55;-1,91;0,67;-1,09;-8,24;6,24;2,08;-3,34;-4,70;0,00
13.018;-0,97;-3,33;0,43;-1,09;-8,24;6,24;2,08;-3,34;-4,70;0,00
13.045;-0,97;-3,33;0,43;-1,13;-18,27;8,77;2,08;-3,34;-4,70;0,00
13.084;-0,97;-3,33;0,43;-1,13;-18,27;8,77;1,52;-2,41;-4,60;0,00
13.085;-2,96;-3,40;0,17;-1,13;-18,27;8,77;1,52;-2,41;-4,60;0,00
13.114;-2,96;-3,40;0,17;-16,58;-25,08;0,63;1,52;-2,41;-4,60;0,00
13.114;-2,96;-3,40;0,17;-17,77;-24,46;0,11;1,52;-2,41;-4,60;0,00
13.154;-2,35;-1,80;-0,71;-17,77;-24,46;0,11;1,52;-2,41;-4,60;0,00
13.163;-2,35;-1,80;-0,71;-17,77;-24,46;0,11;0,97;-2,14;-1,60;0,00
13.183;-2,35;-1,80;-0,71;-27,14;-17,37;-3,82;0,97;-2,14;-1,60;0,00
13.184;-2,35;-1,80;-0,71;-27,08;-17,05;-3,73;0,97;-2,14;-1,60;0,00
13.202;-2,35;-1,80;-0,71;-27,08;-17,05;-3,73;-1,16;0,61;0,08;0,00
13.223;-1,62;-0,99;0,12;-27,08;-17,05;-3,73;-1,16;0,61;0,08;0,00
13.252;-1,62;-0,99;0,12;-21,00;-2,87;-5,27;-1,16;0,61;0,08;0,00
13.253;-1,62;-0,99;0,12;-19,97;-2,90;-4,84;-1,16;0,61;0,08;0,00
13.281;-1,62;-0,99;0,12;-19,97;-2,90;-4,84;-0,95;-0,51;1,85;0,00
13.291;0,01;-0,73;0,55;-19,97;-2,90;-4,84;-0,95;-0,51;1,85;0,00
13.321;0,01;-0,73;0,55;-4,10;2,01;2,54;-0,95;-0,51;1,85;0,00
13.36;0,01;-0,73;0,55;-4,10;2,01;2,54;-0,49;0,04;1,75;0,00
13.361;0,37;-0,67;0,80;-4,10;2,01;2,54;-0,49;0,04;1,75;0,00
13.39;0,37;-0,67;0,80;5,92;2,36;7,42;-0,49;0,04;1,75;0,00
13.391;0,37;-0,67;0,80;6,43;2,06;7,18;-0,49;0,04;1,75;0,00
13.399;0,37;-0,67;0,80;6,43;2,06;7,18;0,69;-0,41;1,29;0,00
13.429;-0,46;-0,64;0,59;6,43;2,06;7,18;0,69;-0,41;1,29;0,00
13.459;-0,46;-0,64;0,59;6,77;3,62;5,57;0,69;-0,41;1,29;0,00
13.46;-0,46;-0,64;0,59;7,21;3,21;5,10;0,69;-0,41;1,29;0,00
13.478;-0,46;-0,64;0,59;7,21;3,21;5,10;1,28;-1,24;2,08;0,00
13.498;-1,43;-0,91;-0,03;7,21;3,21;5,10;1,28;-1,24;2,08;0,00
13.528;-1,43;-0,91;-0,03;-3,64;0,73;2,76;1,28;-1,24;2,08;0,00
13.529;-1,43;-0,91;-0,03;-3,00;0,01;1,93;1,28;-1,24;2,08;0,00
13.558;-1,43;-0,91;-0,03;-3,00;0,01;1,93;0,96;-0,62;2,38;0,00
13.578;-2,42;-1,86;0,28;-3,00;0,01;1,93;0,96;-0,62;2,38;0,00
13.607;-2,42;-1,86;0,28;-11,00;-5,12;-4,79;0,96;-0,62;2,38;0,00
13.636;-2,42;-1,86;0,28;-11,00;-5,12;-4,79;0,13;1,69;3,22;0,00
13.637;-2,23;-2,58;1,29;-11,00;-5,12;-4,79;0,13;1,69;3,22;0,00
13.668;-2,23;-2,58;1,29;-16,83;-15,96;4,73;0,13;1,69;3,22;0,00
13.669;-2,23;-2,58;1,29;-15,61;-17,36;4,50;0,13;1,69;3,22;0,00
13.682;-2,23;-2,58;1,29;-15,61;-17,36;4,50;1,70;-0,79;5,11;0,00
13.705;-1,59;-1,73;1,18;-15,61;-17,36;4,50;1,70;-0,79;5,11;0,00
13.734;-1,59;-1,73;1,18;-7,31;-21,26;11,75;1,70;-0,79;5,11;0,00
13.735;-1,59;-1,73;1,18;-6,87;-23,37;11,44;1,70;-0,79;5,11;0,00
13.754;-1,59;-1,73;1,18;-6,87;-23,37;11,44;3,35;0,67;4,59;0,00
13.774;-0,94;-0,87;0,56;-6,87;-23,37;11,44;3,35;0,67;4,59;0,00
13.804;-0,94;-0,87;0,56;-3,02;-12,85;4,01;3,35;0,67;4,59;0,00
13.805;-0,94;-0,87;0,56;-3,05;-14,52;5,41;3,35;0,67;4,59;0,00
13.833;-0,94;-0,87;0,56;-3,05;-14,52;5,41;2,55;3,34;3,64;0,00
13.843;-0,25;-0,84;0,70;-3,05;-14,52;5,41;2,55;3,34;3,64;0,00
13.873;-0,25;-0,84;0,70;5,75;-12,28;6,42;2,55;3,34;3,64;0,00
13.874;-0,25;-0,84;0,70;5,75;-12,28;6,42;1,48;6,81;2,75;0,00
13.912;-0,07;-0,93;0,92;5,75;-12,28;6,42;1,48;6,81;2,75;0,00
13.942;-0,07;-0,93;0,92;7,50;-13,87;12,67;1,48;6,81;2,75;0,00
13.943;-0,07;-0,93;0,92;5,77;-14,37;14,45;1,48;6,81;2,75;0,00
13.951;-0,07;-0,93;0,92;5,77;-14,37;14,45;0,66;5,19;2,73;0,00
13.981;-0,34;-0,77;0,49;5,77;-14,37;14,45;0,66;5,19;2,73;0,00
14.013;-0,34;-0,77;0,49;4,77;-14,39;14,33;0,66;5,19;2,73;0,00
14.014;-0,34;-0,77;0,49;2,66;-14,96;14,70;0,66;5,19;2,73;0,00
14.031;-0,34;-0,77;0,49;2,66;-14,96;14,70;-1,31;4,20;3,16;0,00
14.05;0,40;-0,59;0,40;2,66;-14,96;14,70;-1,31;4,20;3,16;0,00
14.069;0,40;-0,59;0,40;2,66;-14,96;14,70;-1,36;-0,34;3,70;0,00
14.08;0,40;-0,59;0,40;-1,24;-14,40;11,01;-1,36;-0,34;3,70;0,00
14.081;0,40;-0,59;0,40;-2,14;-14,67;10,45;-1,36;-0,34;3,70;0,00
14.119;1,82;0,65;-0,69;-2,14;-14,67;10,45;-1,36;-0,34;3,70;0,00
14.149;1,82;0,65;-0,69;-2,14;-14,67;10,45;0,62;-0,07;2,18;0,00
14.15;1,82;0,65;-0,69;11,76;-7,60;6,03;0,62;-0,07;2,18;0,00
14.189;1,35;0,99;-1,20;11,76;-7,60;6,03;0,62;-0,07;2,18;0,00
14.218;1,35;0,99;-1,20;16,16;1,89;-3,23;0,62;-0,07;2,18;0,00
14.22;1,35;0,99;-1,20;15,23;2,03;-3,10;0,62;-0,07;2,18;0,00
14.227;1,35;0,99;-1,20;15,23;2,03;-3,10;0,25;0,75;1,35;0,00
14.257;0,84;0,62;-0,81;15,23;2,03;-3,10;0,25;0,75;1,35;0,00
14.276;0,84;0,62;-0,81;15,23;2,03;-3,10;-0,40;0,34;0,07;0,00
14.287;0,84;0,62;-0,81;9,49;0,56;-5,25;-0,40;0,34;0,07;0,00
14.29;0,84;0,62;-0,81;9,23;0,45;-5,30;-0,40;0,34;0,07;0,00
14.326;0,22;0,58;-0,35;9,23;0,45;-5,30;-0,40;0,34;0,07;0,00
14.345;0,22;0,58;-0,35;9,23;0,45;-5,30;-0,07;0,00;0,36;0,00
14.355;0,22;0,58;-0,35;1,40;-0,99;1,35;-0,07;0,00;0,36;0,00
14.355;0,22;0,58;-0,35;1,36;-0,94;1,36;-0,07;0,00;0,36;0,00
14.395;0,15;0,60;-0,29;1,36;-0,94;1,36;-0,07;0,00;0,36;0,00
14.424;0,15;0,60;-0,29;0,50;-1,28;2,73;-0,07;0,00;0,36;0,00
14.425;0,15;0,60;-0,29;0,50;-1,28;2,73;-0,10;-0,63;0,27;0,00
14.463;0,58;0,54;-0,33;0,50;-1,28;2,73;-0,10;-0,63;0,27;0,00
14.494;0,58;0,54;-0,33;-1,35;-1,68;4,03;-0,10;-0,63;0,27;0,00
14.494;0,58;0,54;-0,33;-1,02;-1,70;4,03;-0,10;-0,63;0,27;0,00
14.503;0,58;0,54;-0,33;-1,02;-1,70;4,03;-0,23;-1,52;0,14;0,00
14.533;1,64;0,59;-1,05;-1,02;-1,70;4,03;-0,23;-1,52;0,14;0,00
14.543;1,64;0,59;-1,05;-1,02;-1,70;4,03;0,82;-0,74;-1,92;0,00
14.562;1,64;0,59;-1,05;10,69;-0,95;-0,29;0,82;-0,74;-1,92;0,00
14.564;1,64;0,59;-1,05;11,21;-0,78;0,02;0,82;-0,74;-1,92;0,00
14.602;1,17;0,30;-1,18;11,21;-0,78;0,02;0,82;-0,74;-1,92;0,00
14.621;1,17;0,30;-1,18;11,21;-0,78;0,02;2,28;-0,66;-3,44;0,00
14.632;1,17;0,30;-1,18;12,56;-1,44;-3,75;2,28;-0,66;-3,44;0,00
14.634;1,17;0,30;-1,18;13,65;-0,71;-3,16;2,28;-0,66;-3,44;0,00
14.67;0,96;-1,05;-0,17;13,65;-0,71;-3,16;2,28;-0,66;-3,44;0,00
14.702;0,96;-1,05;-0,17;13,65;-0,71;-3,16;1,06;-2,00;-4,30;0,00
14.703;0,96;-1,05;-0,17;13,83;-5,93;-1,41;1,06;-2,00;-4,30;0,00
14.739;0,96;-1,05;-0,17;13,83;-5,93;-1,41;1,41;0,08;-5,82;0,00
14.74;-0,14;-1,49;0,65;13,83;-5,93;-1,41;1,41;0,08;-5,82;0,00
14.768;-0,14;-1,49;0,65;7,75;-18,99;11,69;1,41;0,08;-5,82;0,00
14.769;-0,14;-1,49;0,65;8,30;-17,44;11,71;1,41;0,08;-5,82;0,00
14.809;-0,56;-1,26;0,94;8,30;-17,44;11,71;1,41;0,08;-5,82;0,00
14.819;-0,56;-1,26;0,94;8,30;-17,44;11,71;1,69;-1,47;-4,99;0,00
14.838;-0,56;-1,26;0,94;-0,10;-13,70;15,05;1,69;-1,47;-4,99;0,00
14.84;-0,56;-1,26;0,94;0,52;-12,19;14,46;1,69;-1,47;-4,99;0,00
14.877;-0,47;-1,44;1,15;0,52;-12,19;14,46;1,69;-1,47;-4,99;0,00
14.896;-0,47;-1,44;1,15;0,52;-12,19;14,46;1,85;-2,41;-4,49;0,00
14.909;-0,47;-1,44;1,15;0,29;-10,30;16,31;1,85;-2,41;-4,49;0,00
14.91;-0,47;-1,44;1,15;0,06;-8,74;15,53;1,85;-2,41;-4,49;0,00
14.936;-0,47;-1,44;1,15;0,06;-8,74;15,53;2,82;-1,25;-4,21;0,00
14.946;-1,09;-1,97;1,25;0,06;-8,74;15,53;2,82;-1,25;-4,21;0,00
14.976;-1,09;-1,97;1,25;-2,91;-10,04;16,08;2,82;-1,25;-4,21;0,00
15.016;-1,09;-1,97;1,25;-2,91;-10,04;16,08;3,45;-5,82;-3,52;0,00
15.017;-1,18;-3,76;1,15;-2,91;-10,04;16,08;3,45;-5,82;-3,52;0,00
15.047;-1,18;-3,76;1,15;-6,82;-18,88;15,30;3,45;-5,82;-3,52;0,00
15.048;-1,18;-3,76;1,15;-7,32;-17,76;12,97;3,45;-5,82;-3,52;0,00
15.084;-3,26;-4,10;0,50;-7,32;-17,76;12,97;3,45;-5,82;-3,52;0,00
15.094;-3,26;-4,10;0,50;-7,32;-17,76;12,97;1,98;-6,65;-5,10;0,00
15.113;-3,26;-4,10;0,50;-14,47;-34,64;7,17;1,98;-6,65;-5,10;0,00
15.115;-3,26;-4,10;0,50;-16,26;-33,90;6,46;1,98;-6,65;-5,10;0,00
15.133;-3,26;-4,10;0,50;-16,26;-33,90;6,46;1,52;-1,43;-1,75;0,00
15.157;-3,38;-1,55;-0,98;-16,26;-33,90;6,46;1,52;-1,43;-1,75;0,00
15.184;-3,38;-1,55;-0,98;-39,05;-18,57;-3,94;1,52;-1,43;-1,75;0,00
15.185;-3,38;-1,55;-0,98;-38,57;-18,27;-3,94;1,52;-1,43;-1,75;0,00
15.212;-3,38;-1,55;-0,98;-38,57;-18,27;-3,94;-0,46;-0,06;0,56;0,00
15.222;-2,08;-0,95;-0,08;-38,57;-18,27;-3,94;-0,46;-0,06;0,56;0,00
15.252;-2,08;-0,95;-0,08;-24,26;-0,79;-9,54;-0,46;-0,06;0,56;0,00
15.292;-0,17;-1,17;0,53;-24,26;-0,79;-9,54;-0,46;-0,06;0,56;0,00
15.294;-0,17;-1,17;0,53;-24,26;-0,79;-9,54;-0,76;0,98;1,60;0,00
15.321;-0,17;-1,17;0,53;-9,31;0,19;0,28;-0,76;0,98;1,60;0,00
15.322;-0,17;-1,17;0,53;-8,54;0,08;0,69;-0,76;0,98;1,60;0,00
15.36;-0,52;-1,13;0,89;-8,54;0,08;0,69;-0,76;0,98;1,60;0,00
15.37;-0,52;-1,13;0,89;-8,54;0,08;0,69;-0,86;3,02;0,88;0,00
15.39;-0,52;-1,13;0,89;1,66;-1,99;6,92;-0,86;3,02;0,88;0,00
15.391;-0,52;-1,13;0,89;2,23;-2,18;7,25;-0,86;3,02;0,88;0,00
15.413;-0,52;-1,13;0,89;2,23;-2,18;7,25;0,04;0,40;2,21;0,00
15.43;-0,85;-1,02;0,21;2,23;-2,18;7,25;0,04;0,40;2,21;0,00
15.459;-0,85;-1,02;0,21;0,91;-0,23;5,41;0,04;0,40;2,21;0,00
15.46;-0,85;-1,02;0,21;2,11;-1,04;5,12;0,04;0,40;2,21;0,00
15.489;-0,85;-1,02;0,21;2,11;-1,04;5,12;0,15;-0,77;3,95;0,00
15.498;-2,27;-1,88;-0,33;2,11;-1,04;5,12;0,15;-0,77;3,95;0,00
15.529;-2,27;-1,88;-0,33;-6,78;-5,51;-2,58;0,15;-0,77;3,95;0,00
15.567;-2,60;-3,03;1,09;-6,78;-5,51;-2,58;0,15;-0,77;3,95;0,00
15.568;-2,60;-3,03;1,09;-6,78;-5,51;-2,58;-0,58;0,37;5,84;0,00
15.597;-2,60;-3,03;1,09;-17,46;-17,69;0,43;-0,58;0,37;5,84;0,00
15.599;-2,60;-3,03;1,09;-15,99;-20,23;0,35;-0,58;0,37;5,84;0,00
15.606;-2,60;-3,03;1,09;-15,99;-20,23;0,35;0,83;0,11;6,85;0,00
15.636;-0,83;-1,87;1,20;-15,99;-20,23;0,35;0,83;0,11;6,85;0,00
15.666;-0,83;-1,87;1,20;-5,09;-28,43;13,94;0,83;0,11;6,85;0,00
15.666;-0,83;-1,87;1,20;-5,08;-30,30;15,07;0,83;0,11;6,85;0,00
15.686;-0,83;-1,87;1,20;-5,08;-30,30;15,07;2,43;2,82;4,70;0,00
15.706;-0,22;-0,44;0,04;-5,08;-30,30;15,07;2,43;2,82;4,70;0,00
15.735;-0,22;-0,44;0,04;3,99;-12,46;7,00;2,43;2,82;4,70;0,00
15.736;-0,22;-0,44;0,04;3,36;-13,62;7,56;2,43;2,82;4,70;0,00
15.764;-0,22;-0,44;0,04;3,36;-13,62;7,56;1,53;1,49;3,21;0,00
15.774;-0,13;-0,12;0,61;3,36;-13,62;7,56;1,53;1,49;3,21;0,00
15.804;-0,13;-0,12;0,61;3,36;-13,62;7,56;1,12;3,68;2,10;0,00
15.804;-0,13;-0,12;0,61;10,84;-7,02;4,25;1,12;3,68;2,10;0,00
15.843;-0,27;-0,44;0,98;10,84;-7,02;4,25;1,12;3,68;2,10;0,00
15.873;-0,27;-0,44;0,98;5,45;-7,72;13,76;1,12;3,68;2,10;0,00
15.874;-0,27;-0,44;0,98;4,18;-8,10;14,76;1,12;3,68;2,10;0,00
15.89;-0,27;-0,44;0,98;4,18;-8,10;14,76;1,45;2,74;2,91;0,00
15.912;-0,01;-0,67;0,51;4,18;-8,10;14,76;1,45;2,74;2,91;0,00
15.942;-0,01;-0,67;0,51;4,70;-11,24;14,32;1,45;2,74;2,91;0,00
15.943;-0,01;-0,67;0,51;3,34;-11,48;14,68;1,45;2,74;2,91;0,00
15.961;-0,01;-0,67;0,51;3,34;-11,48;14,68;0,68;1,73;3,12;0,00
15.981;0,56;-0,48;-0,47;3,34;-11,48;14,68;0,68;1,73;3,12;0,00
16.0;0,56;-0,48;-0,47;3,34;-11,48;14,68;0,55;0,09;2,39;0,00
16.01;0,56;-0,48;-0,47;4,76;-13,12;8,85;0,55;0,09;2,39;0,00
16.011;0,56;-0,48;-0,47;4,09;-13,04;8,85;0,55;0,09;2,39;0,00
16.051;1,26;0,41;-1,58;4,09;-13,04;8,85;0,55;0,09;2,39;0,00
16.08;1,26;0,41;-1,58;10,95;-6,27;-1,98;0,55;0,09;2,39;0,00
16.081;1,26;0,41;-1,58;10,95;-6,27;-1,98;0,90;-0,51;1,32;0,00
16.12;0,47;0,71;-1,87;10,95;-6,27;-1,98;0,90;-0,51;1,32;0,00
16.149;0,47;0,71;-1,87;13,03;-0,26;-11,42;0,90;-0,51;1,32;0,00
16.15;0,47;0,71;-1,87;12,61;-0,15;-11,10;0,90;-0,51;1,32;0,00
16.158;0,47;0,71;-1,87;12,61;-0,15;-11,10;0,35;0,05;0,65;0,00
16.188;0,10;0,63;-1,05;12,61;-0,15;-11,10;0,35;0,05;0,65;0,00
16.218;0,10;0,63;-1,05;4,26;0,59;-7,92;0,35;0,05;0,65;0,00
16.221;0,10;0,63;-1,05;4,20;0,49;-7,86;0,35;0,05;0,65;0,00
16.238;0,10;0,63;-1,05;4,20;0,49;-7,86;-0,24;-0,39;0,46;0,00
16.257;0,03;0,41;-0,39;4,20;0,49;-7,86;-0,24;-0,39;0,46;0,00
16.281;0,03;0,41;-0,39;4,20;0,49;-7,86;-0,22;0,27;0,20;0,00
16.286;0,03;0,41;-0,39;0,87;-0,24;1,27;-0,22;0,27;0,20;0,00
16.287;0,03;0,41;-0,39;0,67;-0,27;1,25;-0,22;0,27;0,20;0,00
16.326;0,05;0,31;-0,59;0,67;-0,27;1,25;-0,22;0,27;0,20;0,00
16.355;0,05;0,31;-0,59;0,67;-0,27;1,25;-0,07;0,46;-0,13;0,00
16.356;0,05;0,31;-0,59;0,99;-2,42;3,49;-0,07;0,46;-0,13;0,00
16.395;0,64;0,23;-1,22;0,99;-2,42;3,49;-0,07;0,46;-0,13;0,00
16.424;0,64;0,23;-1,22;2,53;-3,51;1,08;-0,07;0,46;-0,13;0,00
16.425;0,64;0,23;-1,22;2,72;-3,50;0,99;-0,07;0,46;-0,13;0,00
16.435;0,64;0,23;-1,22;2,72;-3,50;0,99;-0,24;-0,56;-0,56;0,00
16.463;1,38;0,09;-2,04;2,72;-3,50;0,99;-0,24;-0,56;-0,56;0,00
16.473;1,38;0,09;-2,04;2,72;-3,50;0,99;-1,61;-1,43;-2,88;0,00
16.493;1,38;0,09;-2,04;13,93;-3,68;-12,15;-1,61;-1,43;-2,88;0,00
16.494;1,38;0,09;-2,04;14,85;-3,88;-12,52;-1,61;-1,43;-2,88;0,00
16.532;0,85;-0,40;-0,67;14,85;-3,88;-12,52;-1,61;-1,43;-2,88;0,00
16.552;0,85;-0,40;-0,67;14,85;-3,88;-12,52;-1,24;-1,11;-4,74;0,00
16.562;0,85;-0,40;-0,67;14,36;-7,98;-4,72;-1,24;-1,11;-4,74;0,00
16.563;0,85;-0,40;-0,67;15,59;-7,12;-5,00;-1,24;-1,11;-4,74;0,00
16.601;0,34;-1,66;0,61;15,59;-7,12;-5,00;-1,24;-1,11;-4,74;0,00
16.631;0,34;-1,66;0,61;15,59;-7,12;-5,00;-1,74;0,03;-6,16;0,00
16.632;0,34;-1,66;0,61;12,31;-11,46;2,65;-1,74;0,03;-6,16;0,00
16.67;0,34;-1,66;0,61;12,31;-11,46;2,65;-0,80;-0,86;-7,34;0,00
16.671;-0,23;-2,22;1,15;12,31;-11,46;2,65;-0,80;-0,86;-7,34;0,00
16.701;-0,23;-2,22;1,15;7,35;-22,07;14,84;-0,80;-0,86;-7,34;0,00
16.702;-0,23;-2,22;1,15;7,82;-19,88;14,30;-0,80;-0,86;-7,34;0,00
16.74;-0,81;-2,00;1,39;7,82;-19,88;14,30;-0,80;-0,86;-7,34;0,00
16.759;-0,81;-2,00;1,39;7,82;-19,88;14,30;0,87;-0,29;-6,79;0,00
16.769;-0,81;-2,00;1,39;1,72;-19,78;18,64;0,87;-0,29;-6,79;0,00
16.769;-0,81;-2,00;1,39;0,92;-17,53;18,07;0,87;-0,29;-6,79;0,00
16.809;-1,09;-1,44;0,73;0,92;-17,53;18,07;0,87;-0,29;-6,79;0,00
16.828;-1,09;-1,44;0,73;0,92;-17,53;18,07;2,46;0,37;-5,02;0,00
16.838;-1,09;-1,44;0,73;-4,31;-10,55;13,94;2,46;0,37;-5,02;0,00
16.839;-1,09;-1,44;0,73;-5,18;-9,39;12,94;2,46;0,37;-5,02;0,00
16.869;-1,09;-1,44;0,73;-5,18;-9,39;12,94;2,57;-2,67;-2,98;0,00
16.886;-0,87;-2,11;1,03;-5,18;-9,39;12,94;2,57;-2,67;-2,98;0,00
16.908;-0,87;-2,11;1,03;-7,17;-5,56;7,81;2,57;-2,67;-2,98;0,00
16.947;-0,87;-2,11;1,03;-7,17;-5,56;7,81;2,95;-2,54;-4,24;0,00
16.947;-1,42;-3,69;0,33;-7,17;-5,56;7,81;2,95;-2,54;-4,24;0,00
16.98;-1,42;-3,69;0,33;-4,76;-20,62;9,37;2,95;-2,54;-4,24;0,00
16.981;-1,42;-3,69;0,33;-6,43;-20,08;8,05;2,95;-2,54;-4,24;0,00
17.015;-1,65;-3,05;-0,62;-6,43;-20,08;8,05;2,95;-2,54;-4,24;0,00
17.025;-1,65;-3,05;-0,62;-6,43;-20,08;8,05;2,61;0,06;-2,97;0,00
17.045;-1,65;-3,05;-0,62;-21,06;-25,65;-3,87;2,61;0,06;-2,97;0,00
17.046;-1,65;-3,05;-0,62;-21,43;-25,50;-4,57;2,61;0,06;-2,97;0,00
17.084;-1,52;-1,67;-1,21;-21,43;-25,50;-4,57;2,61;0,06;-2,97;0,00
17.106;-1,52;-1,67;-1,21;-21,43;-25,50;-4,57;0,96;1,85;-1,84;0,00
17.132;-1,52;-1,67;-1,21;-11,87;-15,40;-13,05;0,96;1,85;-1,84;0,00
17.133;-1,52;-1,67;-1,21;-11,73;-15,13;-12,78;0,96;1,85;-1,84;0,00
17.144;-1,52;-1,67;-1,21;-11,73;-15,13;-12,78;-1,19;-0,28;0,72;0,00
17.154;-0,52;-1,05;-0,15;-11,73;-15,13;-12,78;-1,19;-0,28;0,72;0,00
17.184;-0,52;-1,05;-0,15;-12,79;-1,84;-11,01;-1,19;-0,28;0,72;0,00
17.223;-0,49;-0,69;0,14;-12,79;-1,84;-11,01;-1,19;-0,28;0,72;0,00
17.223;-0,49;-0,69;0,14;-12,79;-1,84;-11,01;-1,22;-0,03;1,35;0,00
17.254;-0,49;-0,69;0,14;-3,12;2,51;-1,36;-1,22;-0,03;1,35;0,00
17.255;-0,49;-0,69;0,14;-2,41;2,49;-0,86;-1,22;-0,03;1,35;0,00
17.292;-0,90;-1,19;0,38;-2,41;2,49;-0,86;-1,22;-0,03;1,35;0,00
17.302;-0,90;-1,19;0,38;-2,41;2,49;-0,86;-1,34;-1,90;2,70;0,00
17.322;-0,90;-1,19;0,38;-3,08;1,31;1,69;-1,34;-1,90;2,70;0,00
17.322;-0,90;-1,19;0,38;-1,72;0,89;1,64;-1,34;-1,90;2,70;0,00
17.34;-0,90;-1,19;0,38;-1,72;0,89;1,64;-0,08;-3,39;4,45;0,00
17.36;-1,24;-1,34;0,03;-1,72;0,89;1,64;-0,08;-3,39;4,45;0,00
17.39;-1,24;-1,34;0,03;-5,43;-3,27;-0,76;-0,08;-3,39;4,45;0,00
17.391;-1,24;-1,34;0,03;-3,86;-4,31;-0,90;-0,08;-3,39;4,45;0,00
17.419;-1,24;-1,34;0,03;-3,86;-4,31;-0,90;-0,31;-0,37;4,78;0,00
17.429;-2,02;-2,18;1,33;-3,86;-4,31;-0,90;-0,31;-0,37;4,78;0,00
17.459;-2,02;-2,18;1,33;-6,50;-9,72;4,57;-0,31;-0,37;4,78;0,00
17.498;-2,02;-2,18;1,33;-6,50;-9,72;4,57;1,10;-0,64;5,72;0,00
17.499;-1,81;-2,61;1,64;-6,50;-9,72;4,57;1,10;-0,64;5,72;0,00
17.528;-1,81;-2,61;1,64;-11,21;-18,78;12,39;1,10;-0,64;5,72;0,00
17.53;-1,81;-2,61;1,64;-10,25;-21,22;11,51;1,10;-0,64;5,72;0,00
17.537;-1,81;-2,61;1,64;-10,25;-21,22;11,51;3,13;-0,01;5,66;0,00
17.568;-1,25;-1,35;0,61;-10,25;-21,22;11,51;3,13;-0,01;5,66;0,00
17.598;-1,25;-1,35;0,61;-3,87;-22,35;9,55;3,13;-0,01;5,66;0,00
17.599;-1,25;-1,35;0,61;-3,87;-24,33;10,00;3,13;-0,01;5,66;0,00
17.617;-1,25;-1,35;0,61;-3,87;-24,33;10,00;3,18;1,68;3,51;0,00
17.636;-0,71;-0,39;-0,00;-3,87;-24,33;10,00;3,18;1,68;3,51;0,00
17.666;-0,71;-0,39;-0,00;2,15;-10,36;-0,54;3,18;1,68;3,51;0,00
17.667;-0,71;-0,39;-0,00;1,98;-10,92;2,07;3,18;1,68;3,51;0,00
17.695;-0,71;-0,39;-0,00;1,98;-10,92;2,07;1,21;5,79;1,78;0,00
17.712;-0,67;-0,59;1,06;1,98;-10,92;2,07;1,21;5,79;1,78;0,00
17.738;-0,67;-0,59;1,06;1,98;-10,92;2,07;0,89;4,22;3,27;0,00
17.739;-0,67;-0,59;1,06;1,76;-8,56;7,62;0,89;4,22;3,27;0,00
17.774;0,02;-0,62;0,91;1,76;-8,56;7,62;0,89;4,22;3,27;0,00
17.804;0,02;-0,62;0,91;5,93;-12,30;15,99;0,89;4,22;3,27;0,00
17.805;0,02;-0,62;0,91;4,13;-12,85;17,27;0,89;4,22;3,27;0,00
17.814;0,02;-0,62;0,91;4,13;-12,85;17,27;0,77;3,88;3,43;0,00
17.843;0,33;-0,81;0,52;4,13;-12,85;17,27;0,77;3,88;3,43;0,00
17.873;0,33;-0,81;0,52;5,70;-12,80;14,57;0,77;3,88;3,43;0,00
17.874;0,33;-0,81;0,52;4,35;-12,97;14,72;0,77;3,88;3,43;0,00
17.893;0,33;-0,81;0,52;4,35;-12,97;14,72;0,35;1,54;2,79;0,00
17.914;0,86;-0,15;-0,51;4,35;-12,97;14,72;0,35;1,54;2,79;0,00
17.942;0,86;-0,15;-0,51;7,62;-13,01;8,37;0,35;1,54;2,79;0,00
17.943;0,86;-0,15;-0,51;7,28;-12,93;8,17;0,35;1,54;2,79;0,00
17.971;0,86;-0,15;-0,51;7,28;-12,93;8,17;0,21;-1,29;2,19;0,00
17.981;1,34;0,35;-1,09;7,28;-12,93;8,17;0,21;-1,29;2,19;0,00
18.01;1,34;0,35;-1,09;7,28;-12,93;8,17;0,86;-0,45;1,51;0,00
18.011;1,34;0,35;-1,09;12,34;-4,68;-1,32;0,86;-0,45;1,51;0,00
18.05;0,80;0,89;-1,72;12,34;-4,68;-1,32;0,86;-0,45;1,51;0,00
18.079;0,80;0,89;-1,72;12,39;-0,04;-7,08;0,86;-0,45;1,51;0,00
18.08;0,80;0,89;-1,72;11,95;0,06;-6,84;0,86;-0,45;1,51;0,00
18.089;0,80;0,89;-1,72;11,95;0,06;-6,84;0,12;0,08;0,36;0,00
18.119;0,01;0,66;-0,72;11,95;0,06;-6,84;0,12;0,08;0,36;0,00
18.149;0,01;0,66;-0,72;6,18;2,10;-6,30;0,12;0,08;0,36;0,00
18.151;0,01;0,66;-0,72;6,15;1,98;-6,28;0,12;0,08;0,36;0,00
18.168;0,01;0,66;-0,72;6,15;1,98;-6,28;-0,27;-0,18;-0,11;0,00
18.187;-0,21;0,48;-0,50;6,15;1,98;-6,28;-0,27;-0,18;-0,11;0,00
18.207;-0,21;0,48;-0,50;6,15;1,98;-6,28;-0,04;0,33;-0,07;0,00
18.218;-0,21;0,48;-0,50;-0,63;-1,60;2,53;-0,04;0,33;-0,07;0,00
18.218;-0,21;0,48;-0,50;-0,74;-1,59;2,48;-0,04;0,33;-0,07;0,00
18.257;0,19;0,28;-0,75;-0,74;-1,59;2,48;-0,04;0,33;-0,07;0,00
18.287;0,19;0,28;-0,75;-0,74;-1,59;2,48;-0,18;0,15;-0,15;0,00
18.287;0,19;0,28;-0,75;-0,81;-2,08;1,60;-0,18;0,15;-0,15;0,00
18.326;0,95;0,75;-1,76;-0,81;-2,08;1,60;-0,18;0,15;-0,15;0,00
18.355;0,95;0,75;-1,76;5,19;-2,86;-3,04;-0,18;0,15;-0,15;0,00
18.356;0,95;0,75;-1,76;5,62;-2,68;-2,93;-0,18;0,15;-0,15;0,00
18.379;0,95;0,75;-1,76;5,62;-2,68;-2,93;0,19;-0,71;-1,54;0,00
18.41;1,07;0,47;-1,68;5,62;-2,68;-2,93;0,19;-0,71;-1,54;0,00
18.411;1,07;0,47;-1,68;5,62;-2,68;-2,93;-0,69;-0,11;-3,18;0,00
18.425;1,07;0,47;-1,68;13,06;2,45;-12,29;-0,69;-0,11;-3,18;0,00
18.426;1,07;0,47;-1,68;13,63;2,46;-12,26;-0,69;-0,11;-3,18;0,00
18.469;0,71;-0,84;-0,47;13,63;2,46;-12,26;-0,69;-0,11;-3,18;0,00
18.487;0,71;-0,84;-0,47;13,63;2,46;-12,26;-1,56;-0,99;-4,55;0,00
18.493;0,71;-0,84;-0,47;12,07;-6,14;-5,45;-1,56;-0,99;-4,55;0,00
18.493;0,71;-0,84;-0,47;13,22;-5,85;-5,97;-1,56;-0,99;-4,55;0,00
18.533;0,30;-1,43;0,86;13,22;-5,85;-5,97;-1,56;-0,99;-4,55;0,00
18.563;0,30;-1,43;0,86;13,22;-5,85;-5,97;-1,24;-0,56;-5,48;0,00
18.563;0,30;-1,43;0,86;11,28;-18,24;9,23;-1,24;-0,56;-5,48;0,00
18.602;-0,02;-1,16;1,12;11,28;-18,24;9,23;-1,24;-0,56;-5,48;0,00
18.602;-0,02;-1,16;1,12;11,28;-18,24;9,23;-0,39;-1,12;-5,19;0,00
18.631;-0,02;-1,16;1,12;7,42;-14,84;15,35;-0,39;-1,12;-5,19;0,00
18.632;-0,02;-1,16;1,12;8,03;-13,32;14,76;-0,39;-1,12;-5,19;0,00
18.671;-0,09;-1,25;1,14;8,03;-13,32;14,76;-0,39;-1,12;-5,19;0,00
18.68;-0,09;-1,25;1,14;8,03;-13,32;14,76;0,81;0,03;-5,09;0,00
18.7;-0,09;-1,25;1,14;6,15;-11,46;16,32;0,81;0,03;-5,09;0,00
18.701;-0,09;-1,25;1,14;5,83;-9,67;16,06;0,81;0,03;-5,09;0,00
18.741;-0,57;-2,02;1,56;5,83;-9,67;16,06;0,81;0,03;-5,09;0,00
18.759;-0,57;-2,02;1,56;5,83;-9,67;16,06;2,51;-0,18;-4,92;0,00
18.77;-0,57;-2,02;1,56;3,79;-9,79;15,27;2,51;-0,18;-4,92;0,00
18.774;-0,57;-2,02;1,56;3,18;-8,12;14,00;2,51;-0,18;-4,92;0,00
18.808;-0,92;-3,51;0,61;3,18;-8,12;14,00;2,51;-0,18;-4,92;0,00
18.838;-0,92;-3,51;0,61;3,18;-8,12;14,00;4,28;-3,91;-5,11;0,00
18.839;-0,92;-3,51;0,61;-1,93;-19,24;13,33;4,28;-3,91;-5,11;0,00
18.877;-0,92;-3,51;0,61;-1,93;-19,24;13,33;2,77;-2,88;-5,48;0,00
18.878;-2,72;-4,02;0,25;-1,93;-19,24;13,33;2,77;-2,88;-5,48;0,00
18.907;-2,72;-4,02;0,25;-13,14;-31,85;4,82;2,77;-2,88;-5,48;0,00
18.909;-2,72;-4,02;0,25;-14,82;-31,03;3,62;2,77;-2,88;-5,48;0,00
18.947;-2,58;-2,55;-0,47;-14,82;-31,03;3,62;2,77;-2,88;-5,48;0,00
18.957;-2,58;-2,55;-0,47;-14,82;-31,03;3,62;1,57;-2,22;-2,26;0,00
18.976;-2,58;-2,55;-0,47;-27,80;-23,16;-2,96;1,57;-2,22;-2,26;0,00
18.977;-2,58;-2,55;-0,47;-28,03;-22,88;-3,31;1,57;-2,22;-2,26;0,00
19.016;-2,26;-1,52;-0,61;-28,03;-22,88;-3,31;1,57;-2,22;-2,26;0,00
19.039;-2,26;-1,52;-0,61;-28,03;-22,88;-3,31;0,04;0,35;-0,53;0,00
19.045;-2,26;-1,52;-0,61;-23,67;-9,70;-9,78;0,04;0,35;-0,53;0,00
19.046;-2,26;-1,52;-0,61;-22,82;-9,48;-9,26;0,04;0,35;-0,53;0,00
19.076;-2,26;-1,52;-0,61;-22,82;-9,48;-9,26;-1,13;-0,04;1,76;0,00
19.086;-0,41;-1,21;0,23;-22,82;-9,48;-9,26;-1,13;-0,04;1,76;0,00
19.114;-0,41;-1,21;0,23;-12,67;-3,03;-3,81;-1,13;-0,04;1,76;0,00
19.153;-0,41;-1,21;0,23;-12,67;-3,03;-3,81;-1,06;1,12;1,44;0,00
19.153;0,32;-0,84;0,61;-12,67;-3,03;-3,81;-1,06;1,12;1,44;0,00
19.184;0,32;-0,84;0,61;2,79;-0,50;3,27;-1,06;1,12;1,44;0,00
19.185;0,32;-0,84;0,61;3,32;-0,62;3,77;-1,06;1,12;1,44;0,00
19.223;0,11;-0,54;0,62;3,32;-0,62;3,77;-1,06;1,12;1,44;0,00
19.232;0,11;-0,54;0,62;3,32;-0,62;3,77;-0,50;1,15;1,32;0,00
19.258;0,11;-0,54;0,62;8,08;4,47;5,77;-0,50;1,15;1,32;0,00
19.26;0,11;-0,54;0,62;8,58;4,13;5,70;-0,50;1,15;1,32;0,00
19.278;0,11;-0,54;0,62;8,58;4,13;5,70;0,45;-1,29;2,26;0,00
19.292;-1,80;-0,98;-0,12;8,58;4,13;5,70;0,45;-1,29;2,26;0,00
19.321;-1,80;-0,98;-0,12;0,12;1,75;3,29;0,45;-1,29;2,26;0,00
19.322;-1,80;-0,98;-0,12;1,08;1,06;2,95;0,45;-1,29;2,26;0,00
19.351;-1,80;-0,98;-0,12;1,08;1,06;2,95;0,06;-0,30;3,69;0,00
19.36;-2,97;-2,14;0,69;1,08;1,06;2,95;0,06;-0,30;3,69;0,00
19.398;-2,97;-2,14;0,69;-18,10;-5,69;-2,32;0,06;-0,30;3,69;0,00
19.43;-2,97;-2,14;0,69;-18,10;-5,69;-2,32;0,67;0,67;5,58;0,00
19.431;-1,96;-2,85;1,75;-18,10;-5,69;-2,32;0,67;0,67;5,58;0,00
19.459;-1,96;-2,85;1,75;-16,99;-20,44;10,90;0,67;0,67;5,58;0,00
19.461;-1,96;-2,85;1,75;-15,56;-22,57;10,93;0,67;0,67;5,58;0,00
19.468;-1,96;-2,85;1,75;-15,56;-22,57;10,93;2,51;1,16;5,65;0,00
19.498;-0,95;-1,44;0,79;-15,56;-22,57;10,93;2,51;1,16;5,65;0,00
19.529;-0,95;-1,44;0,79;-1,69;-21,73;13,91;2,51;1,16;5,65;0,00
19.531;-0,95;-1,44;0,79;-1,52;-23,36;14,67;2,51;1,16;5,65;0,00
19.548;-0,95;-1,44;0,79;-1,52;-23,36;14,67;2,64;2,94;4,00;0,00
19.567;-0,72;-0,87;0,46;-1,52;-23,36;14,67;2,64;2,94;4,00;0,00
19.597;-0,72;-0,87;0,46;2,72;-12,82;6,78;2,64;2,94;4,00;0,00
19.598;-0,72;-0,87;0,46;2,03;-14,22;8,36;2,64;2,94;4,00;0,00
19.627;-0,72;-0,87;0,46;2,03;-14,22;8,36;2,22;3,34;4,21;0,00
19.637;-0,01;-0,74;0,68;2,03;-14,22;8,36;2,22;3,34;4,21;0,00
19.666;-0,01;-0,74;0,68;4,84;-11,19;8,24;2,22;3,34;4,21;0,00
19.705;0,40;-0,60;0,62;4,84;-11,19;8,24;2,22;3,34;4,21;0,00
19.706;0,40;-0,60;0,62;4,84;-11,19;8,24;1,21;4,01;3,68;0,00
19.736;0,40;-0,60;0,62;10,68;-12,58;13,38;1,21;4,01;3,68;0,00
19.737;0,40;-0,60;0,62;8,68;-12,89;14,72;1,21;4,01;3,68;0,00
19.745;0,40;-0,60;0,62;8,68;-12,89;14,72;0,53;4,92;2,60;0,00
19.774;0,30;-0,58;0,25;8,68;-12,89;14,72;0,53;4,92;2,60;0,00
19.805;0,30;-0,58;0,25;7,06;-11,11;11,28;0,53;4,92;2,60;0,00
19.806;0,30;-0,58;0,25;5,20;-11,38;11,39;0,53;4,92;2,60;0,00
19.824;0,30;-0,58;0,25;5,20;-11,38;11,39;-0,76;3,39;1,72;0,00
19.847;0,59;-0,18;-0,32;5,20;-11,38;11,39;-0,76;3,39;1,72;0,00
19.874;0,59;-0,18;-0,32;5,57;-11,97;8,21;-0,76;3,39;1,72;0,00
19.875;0,59;-0,18;-0,32;4,77;-11,95;7,97;-0,76;3,39;1,72;0,00
19.902;0,59;-0,18;-0,32;4,77;-11,95;7,97;-0,47;0,98;1,55;0,00
19.913;1,47;0,40;-0,95;4,77;-11,95;7,97;-0,47;0,98;1,55;0,00
19.941;1,47;0,40;-0,95;4,77;-11,95;7,97;1,12;-1,03;1,81;0,00
19.942;1,47;0,40;-0,95;7,74;-4,40;2,02;1,12;-1,03;1,81;0,00
19.981;1,22;0,98;-1,71;7,74;-4,40;2,02;1,12;-1,03;1,81;0,00
20.011;1,22;0,98;-1,71;14,99;1,66;-5,97;1,12;-1,03;1,81;0,00
20.011;1,22;0,98;-1,71;14,64;2,01;-5,62;1,12;-1,03;1,81;0,00
20.02;1,22;0,98;-1,71;14,64;2,01;-5,62;0,72;0,21;0,10;0,00
20.05;0,45;0,27;-0,92;14,64;2,01;-5,62;0,72;0,21;0,10;0,00
20.081;0,45;0,27;-0,92;7,32;1,90;-6,43;0,72;0,21;0,10;0,00
20.082;0,45;0,27;-0,92;7,15;1,75;-6,40;0,72;0,21;0,10;0,00
20.099;0,45;0,27;-0,92;7,15;1,75;-6,40;-0,30;0,38;-0,57;0,00
20.119;0,50;0,04;-0,50;7,15;1,75;-6,40;-0,30;0,38;-0,57;0,00
20.14;0,50;0,04;-0,50;7,15;1,75;-6,40;-0,59;-0,27;-1,19;0,00
20.149;0,50;0,04;-0,50;2,75;-4,21;1,46;-0,59;-0,27;-1,19;0,00
20.15;0,50;0,04;-0,50;3,05;-4,38;1,31;-0,59;-0,27;-1,19;0,00
20.187;0,62;-0,10;-0,37;3,05;-4,38;1,31;-0,59;-0,27;-1,19;0,00
20.218;0,62;-0,10;-0,37;3,05;-4,38;1,31;-0,77;-1,32;-1,23;0,00
20.219;0,62;-0,10;-0,37;4,68;-6,47;4,06;-0,77;-1,32;-1,23;0,00
20.258;1,00;0,03;-0,67;4,68;-6,47;4,06;-0,77;-1,32;-1,23;0,00
20.287;1,00;0,03;-0,67;8,46;-6,20;2,37;-0,77;-1,32;-1,23;0,00
20.287;1,00;0,03;-0,67;9,37;-6,30;2,02;-0,77;-1,32;-1,23;0,00
20.296;1,00;0,03;-0,67;9,37;-6,30;2,02;-1,05;-1,54;-2,71;0,00
20.326;0,44;-0,08;-0,54;9,37;-6,30;2,02;-1,05;-1,54;-2,71;0,00
20.337;0,44;-0,08;-0,54;9,37;-6,30;2,02;-0,50;-0,92;-4,97;0,00
20.356;0,44;-0,08;-0,54;10,84;-5,75;0,69;-0,50;-0,92;-4,97;0,00
20.356;0,44;-0,08;-0,54;12,03;-5,19;0,47;-0,50;-0,92;-4,97;0,00
20.395;0,34;-1,06;0,37;12,03;-5,19;0,47;-0,50;-0,92;-4,97;0,00
20.414;0,34;-1,06;0,37;12,03;-5,19;0,47;-0,86;-2,92;-5,92;0,00
20.424;0,34;-1,06;0,37;7,85;-7,76;2,96;-0,86;-2,92;-5,92;0,00
20.425;0,34;-1,06;0,37;9,33;-6,41;2,06;-0,86;-2,92;-5,92;0,00
20.465;-0,67;-3,02;1,43;9,33;-6,41;2,06;-0,86;-2,92;-5,92;0,00
20.493;-0,67;-3,02;1,43;9,33;-6,41;2,06;-0,07;-1,25;-7,82;0,00
20.495;-0,67;-3,02;1,43;9,31;-19,79;13,95;-0,07;-1,25;-7,82;0,00
20.532;-0,67;-3,02;1,43;9,31;-19,79;13,95;1,57;-2,01;-7,58;0,00
20.533;-1,77;-2,73;1,06;9,31;-19,79;13,95;1,57;-2,01;-7,58;0,00
20.563;-1,77;-2,73;1,06;-6,98;-29,29;17,15;1,57;-2,01;-7,58;0,00
20.564;-1,77;-2,73;1,06;-7,59;-26,52;16,11;1,57;-2,01;-7,58;0,00
20.602;-1,46;-1,73;0,07;-7,59;-26,52;16,11;1,57;-2,01;-7,58;0,00
20.613;-1,46;-1,73;0,07;-7,59;-26,52;16,11;2,38;-0,18;-5,93;0,00
20.636;-1,46;-1,73;0,07;-10,50;-15,03;8,88;2,38;-0,18;-5,93;0,00
20.637;-1,46;-1,73;0,07;-11,97;-13,64;7,98;2,38;-0,18;-5,93;0,00
20.671;-1,13;-1,31;-0,25;-11,97;-13,64;7,98;2,38;-0,18;-5,93;0,00
20.691;-1,13;-1,31;-0,25;-11,97;-13,64;7,98;1,99;-0,59;-4,39;0,00
20.701;-1,13;-1,31;-0,25;-10,07;-4,68;-1,08;1,99;-0,59;-4,39;0,00
20.702;-1,13;-1,31;-0,25;-11,34;-4,33;-1,80;1,99;-0,59;-4,39;0,00
20.74;-0,99;-2,16;0,39;-11,34;-4,33;-1,80;1,99;-0,59;-4,39;0,00
20.77;-0,99;-2,16;0,39;-11,34;-4,33;-1,80;1,25;-0,85;-2,78;0,00
20.77;-0,99;-2,16;0,39;-11,27;-3,83;-2,67;1,25;-0,85;-2,78;0,00
20.809;-1,31;-2,29;-0,28;-11,27;-3,83;-2,67;1,25;-0,85;-2,78;0,00
20.81;-1,31;-2,29;-0,28;-11,27;-3,83;-2,67;1,76;0,94;-2,00;0,00
20.839;-1,31;-2,29;-0,28;-10,48;-14,72;0,82;1,76;0,94;-2,00;0,00
20.84;-1,31;-2,29;-0,28;-10,93;-14,66;0,11;1,76;0,94;-2,00;0,00
20.878;-0,48;-2,02;-0,42;-10,93;-14,66;0,11;1,76;0,94;-2,00;0,00
20.887;-0,48;-2,02;-0,42;-10,93;-14,66;0,11;0,69;-0,33;0,57;0,00
20.908;-0,48;-2,02;-0,42;-10,87;-12,68;-5,49;0,69;-0,33;0,57;0,00
20.911;-0,48;-2,02;-0,42;-10,41;-12,49;-5,52;0,69;-0,33;0,57;0,00
20.947;0,02;-1,19;-0,03;-10,41;-12,49;-5,52;0,69;-0,33;0,57;0,00
20.966;0,02;-1,19;-0,03;-10,41;-12,49;-5,52;-0,40;0,17;0,86;0,00
20.976;0,02;-1,19;-0,03;-1,60;-5,68;-5,14;-0,40;0,17;0,86;0,00
20.977;0,02;-1,19;-0,03;-1,27;-5,55;-4,81;-0,40;0,17;0,86;0,00
21.006;0,02;-1,19;-0,03;-1,27;-5,55;-4,81;-0,65;0,43;0,50;0,00
21.016;0,05;-0,67;0,13;-1,27;-5,55;-4,81;-0,65;0,43;0,50;0,00
21.046;0,05;-0,67;0,13;1,66;1,24;-0,64;-0,65;0,43;0,50;0,00
21.085;-0,60;-0,40;0,00;1,66;1,24;-0,64;-0,65;0,43;0,50;0,00
21.086;-0,60;-0,40;0,00;1,66;1,24;-0,64;-0,92;0,26;0,61;0,00
21.114;-0,60;-0,40;0,00;-0,09;6,08;-1,15;-0,92;0,26;0,61;0,00
21.116;-0,60;-0,40;0,00;0,29;5,98;-0,69;-0,92;0,26;0,61;0,00
21.154;-1,23;-1,12;-0,10;0,29;5,98;-0,69;-0,92;0,26;0,61;0,00
21.166;-1,23;-1,12;-0,10;0,29;5,98;-0,69;-0,82;-2,41;2,60;0,00
21.183;-1,23;-1,12;-0,10;-6,97;3,55;-0,12;-0,82;-2,41;2,60;0,00
21.184;-1,23;-1,12;-0,10;-5,73;3,14;-0,38;-0,82;-2,41;2,60;0,00
21.203;-1,23;-1,12;-0,10;-5,73;3,14;-0,38;-0,22;-1,76;3,36;0,00
21.226;-2,28;-1,94;-0,02;-5,73;3,14;-0,38;-0,22;-1,76;3,36;0,00
21.252;-2,28;-1,94;-0,02;-10,39;-4,57;-3,77;-0,22;-1,76;3,36;0,00
21.253;-2,28;-1,94;-0,02;-8,66;-5,52;-3,54;-0,22;-1,76;3,36;0,00
21.282;-2,28;-1,94;-0,02;-8,66;-5,52;-3,54;-0,32;-0,64;5,59;0,00
21.291;-2,30;-3,12;1,19;-8,66;-5,52;-3,54;-0,32;-0,64;5,59;0,00
21.322;-2,30;-3,12;1,19;-15,73;-17,87;4,20;-0,32;-0,64;5,59;0,00
21.361;-1,40;-2,32;1,11;-15,73;-17,87;4,20;-0,32;-0,64;5,59;0,00
21.361;-1,40;-2,32;1,11;-15,73;-17,87;4,20;1,44;-1,23;6,54;0,00
21.391;-1,40;-2,32;1,11;-8,78;-25,88;11,17;1,44;-1,23;6,54;0,00
21.392;-1,40;-2,32;1,11;-7,99;-28,10;10,33;1,44;-1,23;6,54;0,00
21.4;-1,40;-2,32;1,11;-7,99;-28,10;10,33;2,75;1,19;4,47;0,00
21.429;-1,15;-1,06;0,56;-7,99;-28,10;10,33;2,75;1,19;4,47;0,00
21.459;-1,15;-1,06;0,56;0,23;-15,75;6,12;2,75;1,19;4,47;0,00
21.46;-1,15;-1,06;0,56;0,34;-17,38;7,50;2,75;1,19;4,47;0,00
21.478;-1,15;-1,06;0,56;0,34;-17,38;7,50;2,32;3,14;4,38;0,00
21.498;-0,82;-0,98;0,92;0,34;-17,38;7,50;2,32;3,14;4,38;0,00
21.528;-0,82;-0,98;0,92;-0,59;-11,97;5,87;2,32;3,14;4,38;0,00
21.529;-0,82;-0,98;0,92;-1,65;-13,90;7,44;2,32;3,14;4,38;0,00
21.557;-0,82;-0,98;0,92;-1,65;-13,90;7,44;2,11;3,74;5,17;0,00
21.569;0,05;-1,06;1,11;-1,65;-13,90;7,44;2,11;3,74;5,17;0,00
21.597;0,05;-1,06;1,11;4,95;-17,25;14,88;2,11;3,74;5,17;0,00
21.636;0,19;-0,72;0,63;4,95;-17,25;14,88;2,11;3,74;5,17;0,00
21.637;0,19;-0,72;0,63;4,95;-17,25;14,88;2,00;5,77;4,06;0,00
21.666;0,19;-0,72;0,63;7,27;-15,70;15,09;2,00;5,77;4,06;0,00
21.667;0,19;-0,72;0,63;4,68;-15,79;16,22;2,00;5,77;4,06;0,00
21.678;0,19;-0,72;0,63;4,68;-15,79;16,22;0,29;5,60;2,85;0,00
21.706;0,48;-0,50;-0,08;4,68;-15,79;16,22;0,29;5,60;2,85;0,00
21.735;0,48;-0,50;-0,08;3,29;-13,48;11,15;0,29;5,60;2,85;0,00
21.736;0,48;-0,50;-0,08;1,98;-13,59;10,69;0,29;5,60;2,85;0,00
21.756;0,48;-0,50;-0,08;1,98;-13,59;10,69;-1,85;1,73;1,31;0,00
21.774;1,15;0,14;-0,42;1,98;-13,59;10,69;-1,85;1,73;1,31;0,00
21.804;1,15;0,14;-0,42;7,07;-9,39;1,38;-1,85;1,73;1,31;0,00
21.806;1,15;0,14;-0,42;6,57;-9,78;0,50;-1,85;1,73;1,31;0,00
21.833;1,15;0,14;-0,42;6,57;-9,78;0,50;-2,45;-0,11;1,27;0,00
21.843;1,42;0,77;-0,53;6,57;-9,78;0,50;-2,45;-0,11;1,27;0,00
21.873;1,42;0,77;-0,53;6,57;-9,78;0,50;0,72;-0,29;0,71;0,00
21.873;1,42;0,77;-0,53;11,14;-4,46;3,15;0,72;-0,29;0,71;0,00
21.913;0,95;0,94;-0,95;11,14;-4,46;3,15;0,72;-0,29;0,71;0,00
21.942;0,95;0,94;-0,95;11,26;0,72;-3,74;0,72;-0,29;0,71;0,00
21.943;0,95;0,94;-0,95;10,66;0,92;-3,55;0,72;-0,29;0,71;0,00
21.951;0,95;0,94;-0,95;10,66;0,92;-3,55;0,88;1,48;-0,14;0,00
21.981;0,43;0,67;-0,38;10,66;0,92;-3,55;0,88;1,48;-0,14;0,00
22.011;0,43;0,67;-0,38;2,85;1,89;-1,36;0,88;1,48;-0,14;0,00
22.012;0,43;0,67;-0,38;3,20;1,89;-1,11;0,88;1,48;-0,14;0,00
22.03;0,43;0,67;-0,38;3,20;1,89;-1,11;0,06;-1,66;0,10;0,00
22.05;0,34;0,39;-0,07;3,20;1,89;-1,11;0,06;-1,66;0,10;0,00
22.07;0,34;0,39;-0,07;3,20;1,89;-1,11;0,66;-0,10;-0,59;0,00
22.088;0,34;0,39;-0,07;0,99;-2,64;4,71;0,66;-0,10;-0,59;0,00
22.089;0,34;0,39;-0,07;1,17;-2,49;4,84;0,66;-0,10;-0,59;0,00
22.119;0,94;0,33;-0,60;1,17;-2,49;4,84;0,66;-0,10;-0,59;0,00
22.149;0,94;0,33;-0,60;1,17;-2,49;4,84;0,44;-0,82;-1,23;0,00
22.15;0,94;0,33;-0,60;3,26;-3,69;2,59;0,44;-0,82;-1,23;0,00
22.189;1,33;0,43;-1,22;3,26;-3,69;2,59;0,44;-0,82;-1,23;0,00
22.218;1,33;0,43;-1,22;11,02;-3,47;-1,73;0,44;-0,82;-1,23;0,00
22.218;1,33;0,43;-1,22;11,82;-3,24;-1,38;0,44;-0,82;-1,23;0,00
22.227;1,33;0,43;-1,22;11,82;-3,24;-1,38;1,08;-1,38;-2,66;0,00
22.257;1,12;0,07;-1,23;11,82;-3,24;-1,38;1,08;-1,38;-2,66;0,00
22.267;1,12;0,07;-1,23;11,82;-3,24;-1,38;0,45;-3,21;-3,58;0,00
22.287;1,12;0,07;-1,23;12,13;-3,14;-5,85;0,45;-3,21;-3,58;0,00
22.288;1,12;0,07;-1,23;13,70;-2,79;-5,81;0,45;-3,21;-3,58;0,00
22.326;0,66;-1,53;0,49;13,70;-2,79;-5,81;0,45;-3,21;-3,58;0,00
22.356;0,66;-1,53;0,49;13,70;-2,79;-5,81;-2,08;-2,10;-4,89;0,00
22.357;0,66;-1,53;0,49;13,27;-9,75;-0,81;-2,08;-2,10;-4,89;0,00
22.357;0,66;-1,53;0,49;14,66;-9,26;-1,63;-2,08;-2,10;-4,89;0,00
22.395;-0,12;-2,29;1,51;14,66;-9,26;-1,63;-2,08;-2,10;-4,89;0,00
22.425;-0,12;-2,29;1,51;14,66;-9,26;-1,63;-0,89;-1,75;-7,45;0,00
22.427;-0,12;-2,29;1,51;9,68;-24,93;16,96;-0,89;-1,75;-7,45;0,00
22.464;-0,62;-2,11;1,06;9,68;-24,93;16,96;-0,89;-1,75;-7,45;0,00
22.494;-0,62;-2,11;1,06;3,57;-23,09;17,57;-0,89;-1,75;-7,45;0,00
22.495;-0,62;-2,11;1,06;3,64;-20,53;16,98;-0,89;-1,75;-7,45;0,00
22.504;-0,62;-2,11;1,06;3,64;-20,53;16,98;0,21;-0,97;-7,29;0,00
22.533;-0,89;-1,81;0,78;3,64;-20,53;16,98;0,21;-0,97;-7,29;0,00
22.543;-0,89;-1,81;0,78;3,64;-20,53;16,98;0,83;-0,25;-6,33;0,00
22.574;-0,89;-1,81;0,78;0,39;-15,53;11,54;0,83;-0,25;-6,33;0,00
22.575;-0,89;-1,81;0,78;-0,70;-13,62;11,13;0,83;-0,25;-6,33;0,00
22.604;-0,86;-2,71;0,76;-0,70;-13,62;11,13;0,83;-0,25;-6,33;0,00
22.622;-0,86;-2,71;0,76;-0,70;-13,62;11,13;1,33;-3,04;-4,47;0,00
22.632;-0,86;-2,71;0,76;-5,15;-12,13;9,48;1,33;-3,04;-4,47;0,00
22.632;-0,86;-2,71;0,76;-6,26;-11,05;8,35;1,33;-3,04;-4,47;0,00
22.671;-2,11;-3,45;0,63;-6,26;-11,05;8,35;1,33;-3,04;-4,47;0,00
22.701;-2,11;-3,45;0,63;-6,26;-11,05;8,35;1,05;-1,71;-4,62;0,00
22.703;-2,11;-3,45;0,63;-9,24;-22,15;5,41;1,05;-1,71;-4,62;0,00
22.742;-2,11;-3,45;0,63;-9,24;-22,15;5,41;1,15;-1,64;-2,97;0,00
22.743;-2,17;-2,61;-0,20;-9,24;-22,15;5,41;1,15;-1,64;-2,97;0,00
22.769;-2,17;-2,61;-0,20;-20,05;-22,75;4,51;1,15;-1,64;-2,97;0,00
22.77;-2,17;-2,61;-0,20;-20,86;-22,30;3,91;1,15;-1,64;-2,97;0,00
22.811;-2,70;-1,49;-0,48;-20,86;-22,30;3,91;1,15;-1,64;-2,97;0,00
22.836;-2,70;-1,49;-0,48;-20,86;-22,30;3,91;0,27;1,08;-1,24;0,00
22.839;-2,70;-1,49;-0,48;-24,39;-9,94;-7,58;0,27;1,08;-1,24;0,00
22.84;-2,70;-1,49;-0,48;-24,00;-9,77;-7,42;0,27;1,08;-1,24;0,00
22.879;-0,91;-0,92;0,07;-24,00;-9,77;-7,42;0,27;1,08;-1,24;0,00
22.898;-0,91;-0,92;0,07;-24,00;-9,77;-7,42;-0,42;-0,92;1,59;0,00
22.909;-0,91;-0,92;0,07;-17,52;-1,58;-3,51;-0,42;-0,92;1,59;0,00
22.91;-0,91;-0,92;0,07;-16,51;-1,67;-3,19;-0,42;-0,92;1,59;0,00
22.937;-0,91;-0,92;0,07;-16,51;-1,67;-3,19;-0,42;0,48;2,00;0,00
22.947;-0,52;-0,68;0,48;-16,51;-1,67;-3,19;-0,42;0,48;2,00;0,00
22.976;-0,52;-0,68;0,48;-2,17;2,41;2,15;-0,42;0,48;2,00;0,00
23.016;-0,52;-0,68;0,48;-2,17;2,41;2,15;0,15;-0,57;2,84;0,00
23.016;-0,74;-0,98;0,52;-2,17;2,41;2,15;0,15;-0,57;2,84;0,00
23.046;-0,74;-0,98;0,52;-0,59;2,24;4,45;0,15;-0,57;2,84;0,00
23.047;-0,74;-0,98;0,52;0,50;1,58;4,07;0,15;-0,57;2,84;0,00
23.085;-1,57;-1,80;0,17;0,50;1,58;4,07;0,15;-0,57;2,84;0,00
23.094;-1,57;-1,80;0,17;0,50;1,58;4,07;1,14;-1,53;4,10;0,00
23.114;-1,57;-1,80;0,17;-3,79;-4,27;0,98;1,14;-1,53;4,10;0,00
23.114;-1,57;-1,80;0,17;-2,65;-5,52;0,32;1,14;-1,53;4,10;0,00
23.134;-1,57;-1,80;0,17;-2,65;-5,52;0,32;1,02;0,56;4,22;0,00
23.153;-1,84;-2,59;1,23;-2,65;-5,52;0,32;1,02;0,56;4,22;0,00
23.184;-1,84;-2,59;1,23;-9,13;-16,25;2,81;1,02;0,56;4,22;0,00
23.185;-1,84;-2,59;1,23;-8,23;-17,89;2,38;1,02;0,56;4,22;0,00
23.212;-1,84;-2,59;1,23;-8,23;-17,89;2,38;2,16;-0,87;4,33;0,00
23.222;-1,49;-1,47;0,98;-8,23;-17,89;2,38;2,16;-0,87;4,33;0,00
23.253;-1,49;-1,47;0,98;-4,11;-21,66;9,54;2,16;-0,87;4,33;0,00
23.292;-1,49;-1,47;0,98;-4,11;-21,66;9,54;2,71;0,99;3,25;0,00
23.292;-1,52;-0,84;0,69;-4,11;-21,66;9,54;2,71;0,99;3,25;0,00
23.322;-1,52;-0,84;0,69;-5,14;-9,09;2,83;2,71;0,99;3,25;0,00
23.323;-1,52;-0,84;0,69;-4,82;-10,56;3,73;2,71;0,99;3,25;0,00
23.361;-0,52;-1,02;1,39;-4,82;-10,56;3,73;2,71;0,99;3,25;0,00
23.37;-0,52;-1,02;1,39;-4,82;-10,56;3,73;2,38;3,67;3,38;0,00
23.39;-0,52;-1,02;1,39;-0,99;-10,82;7,04;2,38;3,67;3,38;0,00
23.391;-0,52;-1,02;1,39;-1,50;-12,42;9,11;2,38;3,67;3,38;0,00
23.41;-0,52;-1,02;1,39;-1,50;-12,42;9,11;2,48;4,48;4,10;0,00
23.44;0,24;-1,07;1,63;-1,50;-12,42;9,11;2,48;4,48;4,10;0,00
23.47;0,24;-1,07;1,63;8,77;-15,94;20,39;2,48;4,48;4,10;0,00
23.473;0,24;-1,07;1,63;7,31;-16,60;21,78;2,48;4,48;4,10;0,00
23.488;0,24;-1,07;1,63;7,31;-16,60;21,78;2,36;2,85;3,70;0,00
23.498;0,36;-1,35;0,74;7,31;-16,60;21,78;2,36;2,85;3,70;0,00
23.528;0,36;-1,35;0,74;9,60;-18,82;16,09;2,36;2,85;3,70;0,00
23.569;0,36;-1,35;0,74;9,60;-18,82;16,09;1,71;0,80;3,10;0,00
23.569;0,95;-0,54;-0,77;9,60;-18,82;16,09;1,71;0,80;3,10;0,00
23.597;0,95;-0,54;-0,77;10,46;-18,48;8,47;1,71;0,80;3,10;0,00
23.598;0,95;-0,54;-0,77;9,51;-18,24;8,92;1,71;0,80;3,10;0,00
23.607;0,95;-0,54;-0,77;9,51;-18,24;8,92;1,44;0,82;1,79;0,00
23.637;1,11;0,57;-1,81;9,51;-18,24;8,92;1,44;0,82;1,79;0,00
23.666;1,11;0,57;-1,81;16,22;-5,46;-7,86;1,44;0,82;1,79;0,00
23.666;1,11;0,57;-1,81;15,21;-5,15;-7,19;1,44;0,82;1,79;0,00
23.686;1,11;0,57;-1,81;15,21;-5,15;-7,19;1,13;1,30;1,24;0,00
23.706;0,87;0,48;-1,93;15,21;-5,15;-7,19;1,13;1,30;1,24;0,00
23.735;0,87;0,48;-1,93;8,89;1,25;-10,82;1,13;1,30;1,24;0,00
23.737;0,87;0,48;-1,93;8,52;1,16;-10,65;1,13;1,30;1,24;0,00
23.765;0,87;0,48;-1,93;8,52;1,16;-10,65;-0,38;0,69;0,16;0,00
23.778;-0,14;0,56;-0,96;8,52;1,16;-10,65;-0,38;0,69;0,16;0,00
23.804;-0,14;0,56;-0,96;8,52;1,16;-10,65;-1,62;0,80;0,33;0,00
23.805;-0,14;0,56;-0,96;7,23;-0,32;-7,80;-1,62;0,80;0,33;0,00
23.844;-0,11;0,46;-0,48;7,23;-0,32;-7,80;-1,62;0,80;0,33;0,00
23.873;-0,11;0,46;-0,48;-2,25;-3,26;0,71;-1,62;0,80;0,33;0,00
23.874;-0,11;0,46;-0,48;-2,06;-3,48;0,42;-1,62;0,80;0,33;0,00
23.882;-0,11;0,46;-0,48;-2,06;-3,48;0,42;-0,62;-0,53;0,36;0,00
23.912;-0,06;0,52;-0,63;-2,06;-3,48;0,42;-0,62;-0,53;0,36;0,00
23.942;-0,06;0,52;-0,63;1,82;-1,69;0,69;-0,62;-0,53;0,36;0,00
23.944;-0,06;0,52;-0,63;1,27;-1,93;0,45;-0,62;-0,53;0,36;0,00
23.962;-0,06;0,52;-0,63;1,27;-1,93;0,45;-0,88;0,64;0,61;0,00
23.981;0,90;0,48;-1,22;1,27;-1,93;0,45;-0,88;0,64;0,61;0,00
24.001;0,90;0,48;-1,22;1,27;-1,93;0,45;-0,05;-2,16;-1,45;0,00
24.023;0,90;0,48;-1,22;1,66;-3,83;0,36;-0,05;-2,16;-1,45;0,00
24.024;0,90;0,48;-1,22;2,60;-3,71;0,27;-0,05;-2,16;-1,45;0,00
24.05;0,96;0,64;-1,56;2,60;-3,71;0,27;-0,05;-2,16;-1,45;0,00
24.08;0,96;0,64;-1,56;2,60;-3,71;0,27;-0,81;0,32;-3,18;0,00
24.081;0,96;0,64;-1,56;13,61;0,23;-10,86;-0,81;0,32;-3,18;0,00
24.119;0,66;-0,16;-0,82;13,61;0,23;-10,86;-0,81;0,32;-3,18;0,00
24.149;0,66;-0,16;-0,82;9,97;-3,91;-4,42;-0,81;0,32;-3,18;0,00
24.15;0,66;-0,16;-0,82;11,07;-3,30;-4,44;-0,81;0,32;-3,18;0,00
24.159;0,66;-0,16;-0,82;11,07;-3,30;-4,44;-0,32;-0,46;-4,57;0,00
24.188;0,28;-1,47;0,60;11,07;-3,30;-4,44;-0,32;-0,46;-4,57;0,00
24.218;0,28;-1,47;0,60;9,85;-11,82;2,23;-0,32;-0,46;-4,57;0,00
24.221;0,28;-1,47;0,60;10,84;-10,95;1,70;-0,32;-0,46;-4,57;0,00
24.238;0,28;-1,47;0,60;10,84;-10,95;1,70;-1,92;-0,50;-5,27;0,00
24.266;-0,31;-1,59;1,19;10,84;-10,95;1,70;-1,92;-0,50;-5,27;0,00
24.277;-0,31;-1,59;1,19;10,84;-10,95;1,70;-0,56;0,26;-6,19;0,00
24.287;-0,31;-1,59;1,19;7,49;-20,31;14,94;-0,56;0,26;-6,19;0,00
24.288;-0,31;-1,59;1,19;7,80;-18,35;14,79;-0,56;0,26;-6,19;0,00
24.326;-0,29;-1,49;1,03;7,80;-18,35;14,79;-0,56;0,26;-6,19;0,00
24.355;-0,29;-1,49;1,03;7,80;-18,35;14,79;0,58;-0,44;-5,52;0,00
24.356;-0,29;-1,49;1,03;2,66;-13,69;15,93;0,58;-0,44;-5,52;0,00
24.395;-0,82;-1,53;0,91;2,66;-13,69;15,93;0,58;-0,44;-5,52;0,00
24.425;-0,82;-1,53;0,91;2,87;-11,96;13,20;0,58;-0,44;-5,52;0,00
24.426;-0,82;-1,53;0,91;2,23;-10,26;12,61;0,58;-0,44;-5,52;0,00
24.434;-0,82;-1,53;0,91;2,23;-10,26;12,61;1,68;-0,93;-4,88;0,00
24.474;-0,85;-2,62;1,26;2,23;-10,26;12,61;1,68;-0,93;-4,88;0,00
24.474;-0,85;-2,62;1,26;2,23;-10,26;12,61;1,94;-4,85;-3,87;0,00
24.507;-0,85;-2,62;1,26;-2,28;-12,21;12,79;1,94;-4,85;-3,87;0,00
24.508;-0,85;-2,62;1,26;-2,96;-11,10;11,02;1,94;-4,85;-3,87;0,00
24.534;-2,16;-3,45;1,04;-2,96;-11,10;11,02;1,94;-4,85;-3,87;0,00
24.553;-2,16;-3,45;1,04;-2,96;-11,10;11,02;1,13;-4,32;-4,10;0,00
24.565;-2,16;-3,45;1,04;-8,52;-22,58;9,51;1,13;-4,32;-4,10;0,00
24.566;-2,16;-3,45;1,04;-9,86;-21,77;8,65;1,13;-4,32;-4,10;0,00
24.602;-3,10;-2,18;0,47;-9,86;-21,77;8,65;1,13;-4,32;-4,10;0,00
24.631;-3,10;-2,18;0,47;-9,86;-21,77;8,65;0,76;-1,98;-3,16;0,00
24.632;-3,10;-2,18;0,47;-26,28;-21,38;6,12;0,76;-1,98;-3,16;0,00
24.671;-3,10;-2,18;0,47;-26,28;-21,38;6,12;0,36;1,52;-1,66;0,00
24.672;-2,63;-1,14;-0,04;-26,28;-21,38;6,12;0,36;1,52;-1,66;0,00
24.701;-2,63;-1,14;-0,04;-26,58;-6,89;-1,86;0,36;1,52;-1,66;0,00
24.702;-2,63;-1,14;-0,04;-26,49;-6,75;-1,88;0,36;1,52;-1,66;0,00
24.741;-1,05;-0,98;0,20;-26,49;-6,75;-1,88;0,36;1,52;-1,66;0,00
24.75;-1,05;-0,98;0,20;-26,49;-6,75;-1,88;-0,17;1,31;0,77;0,00
24.77;-1,05;-0,98;0,20;-19,49;0,36;-2,61;-0,17;1,31;0,77;0,00
24.772;-1,05;-0,98;0,20;-18,59;0,28;-2,37;-0,17;1,31;0,77;0,00
24.809;-0,25;-0,87;0,49;-18,59;0,28;-2,37;-0,17;1,31;0,77;0,00
24.829;-0,25;-0,87;0,49;-18,59;0,28;-2,37;-0,39;1,66;1,44;0,00
24.839;-0,25;-0,87;0,49;-1,11;-0,57;1,32;-0,39;1,66;1,44;0,00
24.839;-0,25;-0,87;0,49;-0,42;-0,77;1,59;-0,39;1,66;1,44;0,00
24.869;-0,25;-0,87;0,49;-0,42;-0,77;1,59;-0,43;0,42;1,98;0,00
24.878;-0,36;-0,84;0,41;-0,42;-0,77;1,59;-0,43;0,42;1,98;0,00
24.913;-0,36;-0,84;0,41;2,67;1,21;2,50;-0,43;0,42;1,98;0,00
24.946;-0,36;-0,84;0,41;2,67;1,21;2,50;0,01;-1,57;3,13;0,00
24.947;-1,42;-1,10;0,20;2,67;1,21;2,50;0,01;-1,57;3,13;0,00
24.977;-1,42;-1,10;0,20;-1,54;-0,61;1,74;0,01;-1,57;3,13;0,00
24.977;-1,42;-1,10;0,20;-0,66;-1,43;1,14;0,01;-1,57;3,13;0,00
25.016;-2,62;-2,14;0,88;-0,66;-1,43;1,14;0,01;-1,57;3,13;0,00
25.034;-2,62;-2,14;0,88;-0,66;-1,43;1,14;0,53;-0,16;4,16;0,00
25.064;-2,62;-2,14;0,88;-12,20;-7,45;0,25;0,53;-0,16;4,16;0,00
25.064;-2,62;-2,14;0,88;-10,85;-9,11;0,12;0,53;-0,16;4,16;0,00
25.085;-1,45;-2,26;1,70;-10,85;-9,11;0,12;0,53;-0,16;4,16;0,00
25.105;-1,45;-2,26;1,70;-10,85;-9,11;0,12;1,28;-1,60;5,81;0,00
25.115;-1,45;-2,26;1,70;-11,64;-21,53;8,25;1,28;-1,60;5,81;0,00
25.119;-1,45;-2,26;1,70;-11,16;-23,56;7,86;1,28;-1,60;5,81;0,00
25.144;-1,45;-2,26;1,70;-11,16;-23,56;7,86;2,67;-0,43;4,39;0,00
25.156;-1,07;-0,76;0,97;-11,16;-23,56;7,86;2,67;-0,43;4,39;0,00
25.184;-1,07;-0,76;0,97;-1,82;-17,58;10,82;2,67;-0,43;4,39;0,00
25.223;-1,07;-0,76;0,97;-1,82;-17,58;10,82;2,55;1,41;3,01;0,00
25.224;-0,92;-0,52;0,92;-1,82;-17,58;10,82;2,55;1,41;3,01;0,00
25.253;-0,92;-0,52;0,92;0,66;-7,34;4,71;2,55;1,41;3,01;0,00
25.253;-0,92;-0,52;0,92;0,60;-8,63;5,89;2,55;1,41;3,01;0,00
25.292;-0,45;-1,05;1,48;0,60;-8,63;5,89;2,55;1,41;3,01;0,00
25.315;-0,45;-1,05;1,48;0,60;-8,63;5,89;2,71;3,26;3,03;0,00
25.322;-0,45;-1,05;1,48;1,69;-11,49;9,40;2,71;3,26;3,03;0,00
25.322;-0,45;-1,05;1,48;0,85;-12,69;11,32;2,71;3,26;3,03;0,00
25.341;-0,45;-1,05;1,48;0,85;-12,69;11,32;3,56;4,60;3,73;0,00
25.361;0,19;-1,21;1,17;0,85;-12,69;11,32;3,56;4,60;3,73;0,00
25.39;0,19;-1,21;1,17;6,64;-19,28;17,73;3,56;4,60;3,73;0,00
25.39;0,19;-1,21;1,17;4,63;-19,42;19,70;3,56;4,60;3,73;0,00
25.419;0,19;-1,21;1,17;4,63;-19,42;19,70;2,77;4,89;3,77;0,00
25.429;0,63;-1,06;0,41;4,63;-19,42;19,70;2,77;4,89;3,77;0,00
25.459;0,63;-1,06;0,41;7,44;-17,96;13,53;2,77;4,89;3,77;0,00
25.498;0,63;-1,06;0,41;7,44;-17,96;13,53;1,11;2,85;2,68;0,00
25.499;1,23;-0,24;-1,04;7,44;-17,96;13,53;1,11;2,85;2,68;0,00
25.528;1,23;-0,24;-1,04;10,29;-15,83;6,39;1,11;2,85;2,68;0,00
25.531;1,23;-0,24;-1,04;9,48;-15,51;6,45;1,11;2,85;2,68;0,00
25.538;1,23;-0,24;-1,04;9,48;-15,51;6,45;-0,52;-0,80;2,20;0,00
25.569;1,74;0,17;-0,80;9,48;-15,51;6,45;-0,52;-0,80;2,20;0,00
25.597;1,74;0,17;-0,80;14,65;-6,43;-3,95;-0,52;-0,80;2,20;0,00
25.599;1,74;0,17;-0,80;14,10;-6,11;-3,68;-0,52;-0,80;2,20;0,00
25.617;1,74;0,17;-0,80;14,10;-6,11;-3,68;1,27;0,70;0,82;0,00
25.638;0,94;1,06;-1,77;14,10;-6,11;-3,68;1,27;0,70;0,82;0,00
25.666;0,94;1,06;-1,77;12,67;0,96;-5,17;1,27;0,70;0,82;0,00
25.667;0,94;1,06;-1,77;12,43;1,08;-4,99;1,27;0,70;0,82;0,00
25.696;0,94;1,06;-1,77;12,43;1,08;-4,99;0,35;0,16;-0,32;0,00
25.706;0,20;0,78;-1,06;12,43;1,08;-4,99;0,35;0,16;-0,32;0,00
25.735;0,20;0,78;-1,06;12,43;1,08;-4,99;-0,35;0,56;-1,20;0,00
25.736;0,20;0,78;-1,06;5,97;3,93;-7,96;-0,35;0,56;-1,20;0,00
25.774;-0,29;0,38;-0,25;5,97;3,93;-7,96;-0,35;0,56;-1,20;0,00
25.805;-0,29;0,38;-0,25;-3,09;0,06;1,47;-0,35;0,56;-1,20;0,00
25.805;-0,29;0,38;-0,25;-3,02;-0,03;1,37;-0,35;0,56;-1,20;0,00
25.815;-0,29;0,38;-0,25;-3,02;-0,03;1,37;-0,06;0,23;-0,45;0,00
25.843;0,30;0,33;-0,46;-3,02;-0,03;1,37;-0,06;0,23;-0,45;0,00
25.877;0,30;0,33;-0,46;-1,33;-3,00;3,77;-0,06;0,23;-0,45;0,00
25.878;0,30;0,33;-0,46;-1,45;-3,03;3,63;-0,06;0,23;-0,45;0,00
25.898;0,30;0,33;-0,46;-1,45;-3,03;3,63;-0,18;0,23;-0,22;0,00
25.913;1,38;0,15;-1,15;-1,45;-3,03;3,63;-0,18;0,23;-0,22;0,00
25.942;1,38;0,15;-1,15;5,33;-3,68;2,89;-0,18;0,23;-0,22;0,00
25.943;1,38;0,15;-1,15;6,27;-3,56;2,94;-0,18;0,23;-0,22;0,00
25.972;1,38;0,15;-1,15;6,27;-3,56;2,94;0,29;-1,89;-2,17;0,00
25.987;1,24;0,25;-1,37;6,27;-3,56;2,94;0,29;-1,89;-2,17;0,00
26.011;1,24;0,25;-1,37;6,27;-3,56;2,94;-0,75;-1,04;-3,53;0,00
26.011;1,24;0,25;-1,37;16,66;-3,68;-10,15;-0,75;-1,04;-3,53;0,00
26.051;1,09;-0,21;-0,73;16,66;-3,68;-10,15;-0,75;-1,04;-3,53;0,00
26.08;1,09;-0,21;-0,73;12,26;-3,28;-2,61;-0,75;-1,04;-3,53;0,00
26.082;1,09;-0,21;-0,73;13,56;-2,90;-2,85;-0,75;-1,04;-3,53;0,00
26.09;1,09;-0,21;-0,73;13,56;-2,90;-2,85;-0,62;-1,46;-4,64;0,00
26.119;-0,12;-1,81;1,13;13,56;-2,90;-2,85;-0,62;-1,46;-4,64;0,00
26.149;-0,12;-1,81;1,13;10,73;-14,73;6,50;-0,62;-1,46;-4,64;0,00
26.15;-0,12;-1,81;1,13;11,71;-13,45;6,23;-0,62;-1,46;-4,64;0,00
26.17;-0,12;-1,81;1,13;11,71;-13,45;6,23;-0,32;-0,63;-6,28;0,00
26.189;-0,65;-1,89;1,34;11,71;-13,45;6,23;-0,32;-0,63;-6,28;0,00
26.208;-0,65;-1,89;1,34;11,71;-13,45;6,23;1,01;-1,95;-6,42;0,00
26.218;-0,65;-1,89;1,34;1,54;-20,75;19,02;1,01;-1,95;-6,42;0,00
26.219;-0,65;-1,89;1,34;2,03;-18,57;18,26;1,01;-1,95;-6,42;0,00
26.258;-0,94;-1,68;0,95;2,03;-18,57;18,26;1,01;-1,95;-6,42;0,00
26.287;-0,94;-1,68;0,95;2,03;-18,57;18,26;1,83;-0,61;-5,43;0,00
26.288;-0,94;-1,68;0,95;-0,96;-15,25;16,31;1,83;-0,61;-5,43;0,00
26.327;-1,07;-1,28;0,39;-0,96;-15,25;16,31;1,83;-0,61;-5,43;0,00
26.355;-1,07;-1,28;0,39;-4,24;-10,04;10,34;1,83;-0,61;-5,43;0,00
26.356;-1,07;-1,28;0,39;-4,58;-8,82;9,17;1,83;-0,61;-5,43;0,00
26.372;-1,07;-1,28;0,39;-4,58;-8,82;9,17;1,96;-2,87;-3,63;0,00
26.396;-1,02;-1,86;0,26;-4,58;-8,82;9,17;1,96;-2,87;-3,63;0,00
26.405;-1,02;-1,86;0,26;-4,58;-8,82;9,17;1,12;-2,67;-3,35;0,00
26.425;-1,02;-1,86;0,26;-4,54;-6,18;1,81;1,12;-2,67;-3,35;0,00
26.426;-1,02;-1,86;0,26;-5,30;-5,44;1,04;1,12;-2,67;-3,35;0,00
26.464;-1,71;-2,69;0,12;-5,30;-5,44;1,04;1,12;-2,67;-3,35;0,00
26.484;-1,71;-2,69;0,12;-5,30;-5,44;1,04;0,92;-2,11;-3,50;0,00
26.494;-1,71;-2,69;0,12;-9,04;-16,00;3,36;0,92;-2,11;-3,50;0,00
26.494;-1,71;-2,69;0,12;-10,04;-15,37;2,88;0,92;-2,11;-3,50;0,00
26.533;-2,10;-2,58;-0,10;-10,04;-15,37;2,88;0,92;-2,11;-3,50;0,00
26.563;-2,10;-2,58;-0,10;-10,04;-15,37;2,88;0,49;-1,06;-2,10;0,00
26.564;-2,10;-2,58;-0,10;-17,37;-17,86;-0,30;0,49;-1,06;-2,10;0,00
26.603;-1,45;-1,70;-0,06;-17,37;-17,86;-0,30;0,49;-1,06;-2,10;0,00
26.605;-1,45;-1,70;-0,06;-17,37;-17,86;-0,30;-0,48;-0,49;-0,16;0,00
26.632;-1,45;-1,70;-0,06;-17,22;-11,34;-4,91;-0,48;-0,49;-0,16;0,00
26.632;-1,45;-1,70;-0,06;-16,99;-11,12;-4,66;-0,48;-0,49;-0,16;0,00
26.671;-1,00;-0,81;0,17;-16,99;-11,12;-4,66;-0,48;-0,49;-0,16;0,00
26.681;-1,00;-0,81;0,17;-16,99;-11,12;-4,66;-0,41;0,78;0,23;0,00
26.701;-1,00;-0,81;0,17;-9,51;-3,59;1,30;-0,41;0,78;0,23;0,00
26.702;-1,00;-0,81;0,17;-9,19;-3,55;1,48;-0,41;0,78;0,23;0,00
26.74;-0,60;-0,49;0,27;-9,19;-3,55;1,48;-0,41;0,78;0,23;0,00
26.77;-0,60;-0,49;0,27;-9,19;-3,55;1,48;-0,48;0,58;1,28;0,00
26.772;-0,60;-0,49;0,27;-5,17;4,24;0,81;-0,48;0,58;1,28;0,00
26.772;-0,60;-0,49;0,27;-4,51;3,98;1,00;-0,48;0,58;1,28;0,00
26.81;-1,25;-0,82;0,18;-4,51;3,98;1,00;-0,48;0,58;1,28;0,00
26.839;-1,25;-0,82;0,18;-3,05;3,60;2,66;-0,48;0,58;1,28;0,00
26.84;-1,25;-0,82;0,18;-3,05;3,60;2,66;-0,07;0,19;2,35;0,00
26.878;-1,25;-0,82;0,18;-3,05;3,60;2,66;0,19;-0,78;3,88;0,00
26.879;-2,35;-1,79;0,33;-3,05;3,60;2,66;0,19;-0,78;3,88;0,00
26.908;-2,35;-1,79;0,33;-10,10;-3,27;-0,08;0,19;-0,78;3,88;0,00
26.909;-2,35;-1,79;0,33;-8,71;-4,25;-0,23;0,19;-0,78;3,88;0,00
26.947;-1,91;-2,64;1,21;-8,71;-4,25;-0,23;0,19;-0,78;3,88;0,00
26.957;-1,91;-2,64;1,21;-8,71;-4,25;-0,23;0,78;-0,10;5,50;0,00
26.977;-1,91;-2,64;1,21;-14,87;-17,50;6,82;0,78;-0,10;5,50;0,00
26.978;-1,91;-2,64;1,21;-13,57;-19,31;6,47;0,78;-0,10;5,50;0,00
27.016;-1,83;-1,88;1,09;-13,57;-19,31;6,47;0,78;-0,10;5,50;0,00
27.035;-1,83;-1,88;1,09;-13,57;-19,31;6,47;2,14;1,33;5,07;0,00
27.045;-1,83;-1,88;1,09;-6,37;-21,54;11,75;2,14;1,33;5,07;0,00
27.046;-1,83;-1,88;1,09;-5,98;-23,34;12,19;2,14;1,33;5,07;0,00
27.075;-1,83;-1,88;1,09;-5,98;-23,34;12,19;2,58;2,24;5,09;0,00
27.086;-1,95;-1,45;0,76;-5,98;-23,34;12,19;2,58;2,24;5,09;0,00
27.118;-1,95;-1,45;0,76;-8,20;-16,27;7,70;2,58;2,24;5,09;0,00
27.154;-1,95;-1,45;0,76;-8,20;-16,27;7,70;2,55;4,07;5,55;0,00
27.154;-0,21;-1,38;1,20;-8,20;-16,27;7,70;2,55;4,07;5,55;0,00
27.184;-0,21;-1,38;1,20;-3,06;-18,38;10,65;2,55;4,07;5,55;0,00
27.185;-0,21;-1,38;1,20;-4,55;-19,92;12,87;2,55;4,07;5,55;0,00
27.223;0,36;-0,98;1,13;-4,55;-19,92;12,87;2,55;4,07;5,55;0,00
27.242;0,36;-0,98;1,13;-4,55;-19,92;12,87;1,65;7,00;4,31;0,00
27.253;0,36;-0,98;1,13;9,12;-17,11;18,57;1,65;7,00;4,31;0,00
27.254;0,36;-0,98;1,13;6,51;-17,32;19,69;1,65;7,00;4,31;0,00
27.274;0,36;-0,98;1,13;6,51;-17,32;19,69;0,27;3,15;2,64;0,00
27.292;0,68;-0,85;0,20;6,51;-17,32;19,69;0,27;3,15;2,64;0,00
27.322;0,68;-0,85;0,20;8,47;-15,42;13,71;0,27;3,15;2,64;0,00
27.323;0,68;-0,85;0,20;7,23;-15,66;13,30;0,27;3,15;2,64;0,00
27.351;0,68;-0,85;0,20;7,23;-15,66;13,30;-1,28;0,46;1,87;0,00
27.361;0,82;-0,48;0,37;7,23;-15,66;13,30;-1,28;0,46;1,87;0,00
27.391;0,82;-0,48;0,37;5,70;-15,44;10,72;-1,28;0,46;1,87;0,00
27.432;1,60;0,54;-1,20;5,70;-15,44;10,72;-1,28;0,46;1,87;0,00
27.434;1,60;0,54;-1,20;5,70;-15,44;10,72;0,56;-2,27;1,68;0,00
27.46;1,60;0,54;-1,20;14,04;-5,96;3,95;0,56;-2,27;1,68;0,00
27.461;1,60;0,54;-1,20;13,49;-5,54;4,23;0,56;-2,27;1,68;0,00
27.469;1,60;0,54;-1,20;13,49;-5,54;4,23;1,62;0,37;0,47;0,00
27.499;1,52;0,70;-2,01;13,49;-5,54;4,23;1,62;0,37;0,47;0,00
27.528;1,52;0,70;-2,01;19,62;0,58;-10,23;1,62;0,37;0,47;0,00
27.529;1,52;0,70;-2,01;19,37;0,76;-9,92;1,62;0,37;0,47;0,00
27.548;1,52;0,70;-2,01;19,37;0,76;-9,92;-0,25;0,69;-0,98;0,00
27.569;0,20;0,08;-0,81;19,37;0,76;-9,92;-0,25;0,69;-0,98;0,00
27.598;0,20;0,08;-0,81;4,91;-1,15;-8,14;-0,25;0,69;-0,98;0,00
27.599;0,20;0,08;-0,81;4,94;-1,24;-8,08;-0,25;0,69;-0,98;0,00
27.627;0,20;0,08;-0,81;4,94;-1,24;-8,08;-0,41;-0,28;-0,91;0,00
27.637;0,25;0,20;-0,49;4,94;-1,24;-8,08;-0,41;-0,28;-0,91;0,00
27.666;0,25;0,20;-0,49;4,94;-1,24;-8,08;-0,98;-1,42;-0,85;0,00
27.666;0,25;0,20;-0,49;1,10;-4,27;1,94;-0,98;-1,42;-0,85;0,00
27.706;0,66;0,28;-0,80;1,10;-4,27;1,94;-0,98;-1,42;-0,85;0,00
27.736;0,66;0,28;-0,80;3,90;-3,95;2,17;-0,98;-1,42;-0,85;0,00
27.736;0,66;0,28;-0,80;4,78;-4,04;1,84;-0,98;-1,42;-0,85;0,00
27.746;0,66;0,28;-0,80;4,78;-4,04;1,84;-1,06;-1,25;-2,59;0,00
27.774;0,76;0,22;-0,85;4,78;-4,04;1,84;-1,06;-1,25;-2,59;0,00
27.804;0,76;0,22;-0,85;10,15;-2,76;-2,56;-1,06;-1,25;-2,59;0,00
27.805;0,76;0,22;-0,85;11,09;-2,39;-2,72;-1,06;-1,25;-2,59;0,00
27.824;0,76;0,22;-0,85;11,09;-2,39;-2,72;-0,57;-0,47;-4,81;0,00
27.847;0,43;-0,55;-0,29;11,09;-2,39;-2,72;-0,57;-0,47;-4,81;0,00
27.875;0,43;-0,55;-0,29;10,74;-4,38;-3,05;-0,57;-0,47;-4,81;0,00
27.877;0,43;-0,55;-0,29;11,82;-3,44;-3,41;-0,57;-0,47;-4,81;0,00
27.904;0,43;-0,55;-0,29;11,82;-3,44;-3,41;-0,87;-1,22;-5,56;0,00
27.913;-0,35;-2,15;1,32;11,82;-3,44;-3,41;-0,87;-1,22;-5,56;0,00
27.942;-0,35;-2,15;1,32;11,82;-3,44;-3,41;0,73;-0,58;-7,08;0,00
27.943;-0,35;-2,15;1,32;8,65;-16,40;11,38;0,73;-0,58;-7,08;0,00
27.989;-0,93;-2,28;1,03;8,65;-16,40;11,38;0,73;-0,58;-7,08;0,00
28.036;-0,93;-2,28;1,03;0,24;-22,16;18,66;0,73;-0,58;-7,08;0,00
28.038;-0,93;-2,28;1,03;-0,04;-19,72;18,17;0,73;-0,58;-7,08;0,00
28.039;-0,93;-2,28;1,03;-0,04;-19,72;18,17;1,92;-0,25;-6,46;0,00
28.05;-1,10;-1,63;0,78;-0,04;-19,72;18,17;1,92;-0,25;-6,46;0,00
28.08;-1,10;-1,63;0,78;-5,64;-14,00;11,63;1,92;-0,25;-6,46;0,00
28.081;-1,10;-1,63;0,78;-6,42;-12,46;10,73;1,92;-0,25;-6,46;0,00
28.1;-1,10;-1,63;0,78;-6,42;-12,46;10,73;2,47;-0,93;-4,59;0,00
28.126;-1,15;-1,27;0,09;-6,42;-12,46;10,73;2,47;-0,93;-4,59;0,00
28.139;-1,15;-1,27;0,09;-6,42;-12,46;10,73;2,64;-2,28;-3,21;0,00
28.15;-1,15;-1,27;0,09;-5,29;-8,22;7,12;2,64;-2,28;-3,21;0,00
28.151;-1,15;-1,27;0,09;-6,00;-7,51;5,86;2,64;-2,28;-3,21;0,00
28.188;-0,60;-1,98;0,31;-6,00;-7,51;5,86;2,64;-2,28;-3,21;0,00
28.218;-0,60;-1,98;0,31;-6,00;-7,51;5,86;1,97;-2,17;-2,91;0,00
28.219;-0,60;-1,98;0,31;-6,99;-4,14;0,10;1,97;-2,17;-2,91;0,00
28.257;-1,39;-2,91;0,02;-6,99;-4,14;0,10;1,97;-2,17;-2,91;0,00
28.297;-1,39;-2,91;0,02;-6,75;-15,51;2,45;1,97;-2,17;-2,91;0,00
28.298;-1,39;-2,91;0,02;-7,76;-15,24;1,68;1,97;-2,17;-2,91;0,00
28.299;-1,39;-2,91;0,02;-7,76;-15,24;1,68;1,78;-1,30;-2,70;0,00
28.326;-1,68;-2,40;-0,84;-7,76;-15,24;1,68;1,78;-1,30;-2,70;0,00
28.336;-1,68;-2,40;-0,84;-7,76;-15,24;1,68;0,46;-1,09;-0,61;0,00
28.355;-1,68;-2,40;-0,84;-15,70;-18,26;-5,81;0,46;-1,09;-0,61;0,00
28.356;-1,68;-2,40;-0,84;-15,72;-17,99;-5,85;0,46;-1,09;-0,61;0,00
28.396;-1,07;-1,79;-0,14;-15,72;-17,99;-5,85;0,46;-1,09;-0,61;0,00
28.415;-1,07;-1,79;-0,14;-15,72;-17,99;-5,85;-1,03;-1,20;1,31;0,00
28.426;-1,07;-1,79;-0,14;-14,55;-10,38;-9,75;-1,03;-1,20;1,31;0,00
28.427;-1,07;-1,79;-0,14;-13,74;-10,19;-9,18;-1,03;-1,20;1,31;0,00
28.464;-0,45;-1,06;0,26;-13,74;-10,19;-9,18;-1,03;-1,20;1,31;0,00
28.494;-0,45;-1,06;0,26;-13,74;-10,19;-9,18;-0,97;-0,44;1,88;0,00
28.495;-0,45;-1,06;0,26;-4,44;-4,19;0,67;-0,97;-0,44;1,88;0,00
28.533;-0,36;-0,83;0,20;-4,44;-4,19;0,67;-0,97;-0,44;1,88;0,00
28.534;-0,36;-0,83;0,20;-4,44;-4,19;0,67;-0,68;-0,86;2,04;0,00
28.563;-0,36;-0,83;0,20;-0,59;0,47;2,36;-0,68;-0,86;2,04;0,00
28.566;-0,36;-0,83;0,20;0,18;0,21;2,47;-0,68;-0,86;2,04;0,00
28.602;-0,53;-0,74;0,18;0,18;0,21;2,47;-0,68;-0,86;2,04;0,00
28.621;-0,53;-0,74;0,18;0,18;0,21;2,47;-0,44;-0,76;2,68;0,00
28.632;-0,53;-0,74;0,18;0,10;2,65;0,74;-0,44;-0,76;2,68;0,00
28.632;-0,53;-0,74;0,18;1,08;2,05;0,68;-0,44;-0,76;2,68;0,00
28.671;-1,51;-1,17;0,53;1,08;2,05;0,68;-0,44;-0,76;2,68;0,00
28.691;-1,51;-1,17;0,53;1,08;2,05;0,68;0,12;-0,99;3,31;0,00
28.701;-1,51;-1,17;0,53;-0,66;-0,26;2,29;0,12;-0,99;3,31;0,00
28.702;-1,51;-1,17;0,53;0,47;-1,36;1,89;0,12;-0,99;3,31;0,00
28.74;-1,97;-1,93;1,21;0,47;-1,36;1,89;0,12;-0,99;3,31;0,00
28.77;-1,97;-1,93;1,21;0,47;-1,36;1,89;0,96;-1,05;4,54;0,00
28.772;-1,97;-1,93;1,21;-10,02;-9,95;6,13;0,96;-1,05;4,54;0,00
28.809;-1,97;-1,93;1,21;-10,02;-9,95;6,13;2,37;-0,47;4,41;0,00
28.81;-1,43;-1,77;1,36;-10,02;-9,95;6,13;2,37;-0,47;4,41;0,00
28.839;-1,43;-1,77;1,36;-6,76;-15,68;11,07;2,37;-0,47;4,41;0,00
28.84;-1,43;-1,77;1,36;-6,20;-17,37;10,51;2,37;-0,47;4,41;0,00
28.878;-1,93;-1,02;0,90;-6,20;-17,37;10,51;2,37;-0,47;4,41;0,00
28.888;-1,93;-1,02;0,90;-6,20;-17,37;10,51;3,09;2,00;2,89;0,00
28.908;-1,93;-1,02;0,90;-5,52;-12,03;8,38;3,09;2,00;2,89;0,00
28.909;-1,93;-1,02;0,90;-5,22;-13,35;9,15;3,09;2,00;2,89;0,00
28.948;-1,33;-1,36;1,22;-5,22;-13,35;9,15;3,09;2,00;2,89;0,00
28.966;-1,33;-1,36;1,22;-5,22;-13,35;9,15;2,81;3,66;3,45;0,00
28.977;-1,33;-1,36;1,22;-6,71;-12,36;7,71;2,81;3,66;3,45;0,00
28.978;-1,33;-1,36;1,22;-7,25;-13,95;10,23;2,81;3,66;3,45;0,00
29.006;-1,33;-1,36;1,22;-7,25;-13,95;10,23;2,58;5,71;4,51;0,00
29.017;0,51;-1,38;1,35;-7,25;-13,95;10,23;2,58;5,71;4,51;0,00
29.046;0,51;-1,38;1,35;4,05;-20,22;20,02;2,58;5,71;4,51;0,00
29.085;0,51;-1,38;1,35;4,05;-20,22;20,02;1,05;5,85;3,57;0,00
29.086;0,42;-0,90;0,50;4,05;-20,22;20,02;1,05;5,85;3,57;0,00
29.115;0,42;-0,90;0,50;12,31;-15,19;15,21;1,05;5,85;3,57;0,00
29.117;0,42;-0,90;0,50;9,86;-15,65;16,20;1,05;5,85;3,57;0,00
29.154;0,93;-0,86;0,44;9,86;-15,65;16,20;1,05;5,85;3,57;0,00
29.164;0,93;-0,86;0,44;9,86;-15,65;16,20;-0,81;1,24;3,31;0,00
29.184;0,93;-0,86;0,44;9,42;-16,22;11,13;-0,81;1,24;3,31;0,00
29.184;0,93;-0,86;0,44;8,53;-16,35;10,87;-0,81;1,24;3,31;0,00
29.203;0,93;-0,86;0,44;8,53;-16,35;10,87;0,78;-1,27;2,27;0,00
29.223;1,53;0,07;-0,89;8,53;-16,35;10,87;0,78;-1,27;2,27;0,00
29.253;1,53;0,07;-0,89;13,00;-9,85;7,59;0,78;-1,27;2,27;0,00
29.254;1,53;0,07;-0,89;12,46;-9,41;7,75;0,78;-1,27;2,27;0,00
29.282;1,53;0,07;-0,89;12,46;-9,41;7,75;1,31;0,32;1,27;0,00
29.292;1,70;0,71;-1,96;12,46;-9,41;7,75;1,31;0,32;1,27;0,00
29.321;1,70;0,71;-1,96;15,64;-1,44;-5,49;1,31;0,32;1,27;0,00
29.361;1,70;0,71;-1,96;15,64;-1,44;-5,49;0,53;0,23;-0,48;0,00
29.362;0,34;0,45;-1,44;15,64;-1,44;-5,49;0,53;0,23;-0,48;0,00
29.391;0,34;0,45;-1,44;13,46;2,89;-12,02;0,53;0,23;-0,48;0,00
29.392;0,34;0,45;-1,44;13,26;2,84;-11,82;0,53;0,23;-0,48;0,00
29.4;0,34;0,45;-1,44;13,26;2,84;-11,82;-0,31;1,39;-1,66;0,00
29.43;-0,66;0,44;-0,76;13,26;2,84;-11,82;-0,31;1,39;-1,66;0,00
29.46;-0,66;0,44;-0,76;-1,50;-2,90;-1,86;-0,31;1,39;-1,66;0,00
29.461;-0,66;0,44;-0,76;-1,59;-2,89;-1,86;-0,31;1,39;-1,66;0,00
29.479;-0,66;0,44;-0,76;-1,59;-2,89;-1,86;-0,40;0,31;-0,54;0,00
29.499;-0,36;0,67;-0,73;-1,59;-2,89;-1,86;-0,40;0,31;-0,54;0,00
29.528;-0,36;0,67;-0,73;-5,81;0,70;-0,19;-0,40;0,31;-0,54;0,00
29.529;-0,36;0,67;-0,73;-5,84;0,40;-0,38;-0,40;0,31;-0,54;0,00
29.559;-0,36;0,67;-0,73;-5,84;0,40;-0,38;-0,90;0,10;0,51;0,00
29.568;0,33;0,36;-0,84;-5,84;0,40;-0,38;-0,90;0,10;0,51;0,00
29.597;0,33;0,36;-0,84;-1,63;-0,14;1,93;-0,90;0,10;0,51;0,00
29.637;0,33;0,36;-0,84;-1,63;-0,14;1,93;-0,87;-0,66;-0,10;0,00
29.638;0,92;0,01;-1,45;-1,63;-0,14;1,93;-0,87;-0,66;-0,10;0,00
29.666;0,92;0,01;-1,45;7,58;-4,02;-4,53;-0,87;-0,66;-0,10;0,00
29.669;0,92;0,01;-1,45;7,78;-4,25;-4,72;-0,87;-0,66;-0,10;0,00
29.689;0,92;0,01;-1,45;7,78;-4,25;-4,72;-1,18;0,17;-1,74;0,00
29.706;1,07;0,46;-1,09;7,78;-4,25;-4,72;-1,18;0,17;-1,74;0,00
29.736;1,07;0,46;-1,09;8,92;-5,98;-6,07;-1,18;0,17;-1,74;0,00
29.737;1,07;0,46;-1,09;9,76;-6,05;-6,27;-1,18;0,17;-1,74;0,00
29.762;1,07;0,46;-1,09;9,76;-6,05;-6,27;-0,83;-1,37;-3,14;0,00
29.789;1,47;0,43;-0,63;9,76;-6,05;-6,27;-0,83;-1,37;-3,14;0,00
29.805;1,47;0,43;-0,63;15,26;1,45;-1,62;-0,83;-1,37;-3,14;0,00
29.806;1,47;0,43;-0,63;16,62;1,70;-2,15;-0,83;-1,37;-3,14;0,00
29.835;1,47;0,43;-0,63;16,62;1,70;-2,15;-1,23;-2,03;-4,53;0,00
29.843;0,37;-1,87;1,02;16,62;1,70;-2,15;-1,23;-2,03;-4,53;0,00
29.873;0,37;-1,87;1,02;16,62;1,70;-2,15;-1,13;-0,22;-6,70;0,00
29.874;0,37;-1,87;1,02;16,57;-10,78;4,34;-1,13;-0,22;-6,70;0,00
29.913;-0,69;-2,15;1,35;16,57;-10,78;4,34;-1,13;-0,22;-6,70;0,00
29.942;-0,69;-2,15;1,35;4,57;-26,20;18,91;-1,13;-0,22;-6,70;0,00
29.943;-0,69;-2,15;1,35;5,28;-23,79;18,59;-1,13;-0,22;-6,70;0,00
29.953;-0,69;-2,15;1,35;5,28;-23,79;18,59;0,98;0,28;-6,80;0,00
29.982;-0,86;-1,55;0,85;5,28;-23,79;18,59;0,98;0,28;-6,80;0,00
30.011;-0,86;-1,55;0,85;-2,22;-17,03;15,96;0,98;0,28;-6,80;0,00
30.012;-0,86;-1,55;0,85;-2,50;-15,10;15,44;0,98;0,28;-6,80;0,00
30.03;-0,86;-1,55;0,85;-2,50;-15,10;15,44;2,10;-0,54;-4,77;0,00
30.051;-0,67;-1,43;0,61;-2,50;-15,10;15,44;2,10;-0,54;-4,77;0,00
30.07;-0,67;-1,43;0,61;-2,50;-15,10;15,44;2,43;-1,44;-3,70;0,00
30.08;-0,67;-1,43;0,61;0,10;-9,34;9,45;2,43;-1,44;-3,70;0,00
30.081;-0,67;-1,43;0,61;-0,46;-8,08;8,47;2,43;-1,44;-3,70;0,00
30.119;-0,81;-2,40;0,62;-0,46;-8,08;8,47;2,43;-1,44;-3,70;0,00
30.149;-0,81;-2,40;0,62;-0,46;-8,08;8,47;2,54;-4,34;-3,55;0,00
30.15;-0,81;-2,40;0,62;-3,50;-9,15;6,95;2,54;-4,34;-3,55;0,00
30.188;-1,70;-3,27;0,34;-3,50;-9,15;6,95;2,54;-4,34;-3,55;0,00
30.219;-1,70;-3,27;0,34;-5,65;-21,13;3,13;2,54;-4,34;-3,55;0,00
30.22;-1,70;-3,27;0,34;-7,06;-20,33;2,09;2,54;-4,34;-3,55;0,00
30.228;-1,70;-3,27;0,34;-7,06;-20,33;2,09;1,14;-3,88;-3,85;0,00
30.258;-2,58;-2,40;0,52;-7,06;-20,33;2,09;1,14;-3,88;-3,85;0,00
30.267;-2,58;-2,40;0,52;-7,06;-20,33;2,09;-0,03;-1,44;-2,49;0,00
30.287;-2,58;-2,40;0,52;-19,40;-21,71;2,74;-0,03;-1,44;-2,49;0,00
30.288;-2,58;-2,40;0,52;-20,09;-21,24;2,64;-0,03;-1,44;-2,49;0,00
30.327;-2,55;-1,24;0,33;-20,09;-21,24;2,64;-0,03;-1,44;-2,49;0,00
30.346;-2,55;-1,24;0,33;-20,09;-21,24;2,64;-0,09;-0,13;0,07;0,00
30.357;-2,55;-1,24;0,33;-25,50;-7,77;1,25;-0,09;-0,13;0,07;0,00
30.358;-2,55;-1,24;0,33;-24,83;-7,65;1,27;-0,09;-0,13;0,07;0,00
30.396;-1,28;-0,89;0,60;-24,83;-7,65;1,27;-0,09;-0,13;0,07;0,00
30.425;-1,28;-0,89;0,60;-24,83;-7,65;1,27;0,03;0,61;2,26;0,00
30.427;-1,28;-0,89;0,60;-18,16;0,23;1,94;0,03;0,61;2,26;0,00
30.464;-0,64;-0,89;0,67;-18,16;0,23;1,94;0,03;0,61;2,26;0,00
30.494;-0,64;-0,89;0,67;-4,31;0,92;4,03;0,03;0,61;2,26;0,00
30.496;-0,64;-0,89;0,67;-3,07;0,34;3,98;0,03;0,61;2,26;0,00
30.504;-0,64;-0,89;0,67;-3,07;0,34;3,98;0,20;0,48;3,17;0,00
30.533;-1,54;-1,26;0,87;-3,07;0,34;3,98;0,20;0,48;3,17;0,00
30.544;-1,54;-1,26;0,87;-3,07;0,34;3,98;1,50;-0,51;3,66;0,00
30.568;-1,54;-1,26;0,87;-1,97;-1,95;5,16;1,50;-0,51;3,66;0,00
30.569;-1,54;-1,26;0,87;-0,92;-3,13;4,40;1,50;-0,51;3,66;0,00
30.603;-2,16;-2,27;1,17;-0,92;-3,13;4,40;1,50;-0,51;3,66;0,00
30.623;-2,16;-2,27;1,17;-0,92;-3,13;4,40;1,67;0,87;4,81;0,00
30.633;-2,16;-2,27;1,17;-11,33;-9,16;3,44;1,67;0,87;4,81;0,00
30.634;-2,16;-2,27;1,17;-10,04;-11,12;3,64;1,67;0,87;4,81;0,00
30.671;-1,17;-2,23;1,64;-10,04;-11,12;3,64;1,67;0,87;4,81;0,00
30.701;-1,17;-2,23;1,64;-10,04;-11,12;3,64;2,43;1,55;4,64;0,00
30.702;-1,17;-2,23;1,64;-6,70;-24,67;12,39;2,43;1,55;4,64;0,00
30.74;-1,17;-2,23;1,64;-6,70;-24,67;12,39;2,76;1,39;3,49;0,00
30.742;-1,10;-0,81;0,73;-6,70;-24,67;12,39;2,76;1,39;3,49;0,00
30.77;-1,10;-0,81;0,73;1,11;-15,10;8,41;2,76;1,39;3,49;0,00
30.772;-1,10;-0,81;0,73;1,08;-16,55;8,96;2,76;1,39;3,49;0,00
30.809;-0,54;-0,87;0,78;1,08;-16,55;8,96;2,76;1,39;3,49;0,00
30.823;-0,54;-0,87;0,78;1,08;-16,55;8,96;2,52;3,31;3,09;0,00
30.84;-0,54;-0,87;0,78;0,97;-11,10;6,97;2,52;3,31;3,09;0,00
30.84;-0,54;-0,87;0,78;0,56;-12,15;8,91;2,52;3,31;3,09;0,00
30.878;0,11;-0,71;0,54;0,56;-12,15;8,91;2,52;3,31;3,09;0,00
30.904;0,11;-0,71;0,54;0,56;-12,15;8,91;2,04;5,75;2,90;0,00
30.937;0,11;-0,71;0,54;7,41;-12,79;9,04;2,04;5,75;2,90;0,00
30.938;0,11;-0,71;0,54;5,65;-13,31;11,17;2,04;5,75;2,90;0,00
30.939;0,11;-0,71;0,54;5,65;-13,31;11,17;0,79;5,14;2,69;0,00
30.947;0,38;-0,51;0,47;5,65;-13,31;11,17;0,79;5,14;2,69;0,00
30.977;0,38;-0,51;0,47;7,88;-11,62;12,00;0,79;5,14;2,69;0,00
31.016;0,25;-0,32;0,39;7,88;-11,62;12,00;0,79;5,14;2,69;0,00
31.017;0,25;-0,32;0,39;7,88;-11,62;12,00;-0,36;3,47;1,67;0,00
31.046;0,25;-0,32;0,39;7,74;-10,84;11,18;-0,36;3,47;1,67;0,00
31.047;0,25;-0,32;0,39;6,36;-11,02;11,26;-0,36;3,47;1,67;0,00
31.085;0,87;0,41;0,06;6,36;-11,02;11,26;-0,36;3,47;1,67;0,00
31.095;0,87;0,41;0,06;6,36;-11,02;11,26;-0,63;-0,08;2,12;0,00
31.116;0,87;0,41;0,06;4,58;-6,17;9,68;-0,63;-0,08;2,12;0,00
31.117;0,87;0,41;0,06;4,34;-6,24;9,40;-0,63;-0,08;2,12;0,00
31.135;0,87;0,41;0,06;4,34;-6,24;9,40;1,93;-1,88;1,86;0,00
31.154;1,50;0,93;-1,65;4,34;-6,24;9,40;1,93;-1,88;1,86;0,00
31.184;1,50;0,93;-1,65;15,48;0,07;2,32;1,93;-1,88;1,86;0,00
31.185;1,50;0,93;-1,65;15,14;0,68;2,79;1,93;-1,88;1,86;0,00
31.213;1,50;0,93;-1,65;15,14;0,68;2,79;1,16;0,67;0,17;0,00
31.223;0,06;0,60;-1,52;15,14;0,68;2,79;1,16;0,67;0,17;0,00
31.254;0,06;0,60;-1,52;10,15;3,02;-12,46;1,16;0,67;0,17;0,00
31.292;0,06;0,60;-1,52;10,15;3,02;-12,46;0,13;-0,63;0,89;0,00
31.292;-0,09;0,51;-1,02;10,15;3,02;-12,46;0,13;-0,63;0,89;0,00
31.323;-0,09;0,51;-1,02;-2,55;-0,14;-2,84;0,13;-0,63;0,89;0,00
31.324;-0,09;0,51;-1,02;-2,04;-0,11;-2,81;0,13;-0,63;0,89;0,00
31.362;-0,05;0,32;-0,42;-2,04;-0,11;-2,81;0,13;-0,63;0,89;0,00
31.371;-0,05;0,32;-0,42;-2,04;-0,11;-2,81;-0,62;-0,95;0,84;0,00
31.391;-0,05;0,32;-0,42;1,53;-1,04;-0,58;-0,62;-0,95;0,84;0,00
31.391;-0,05;0,32;-0,42;1,22;-1,26;-0,72;-0,62;-0,95;0,84;0,00
31.41;-0,05;0,32;-0,42;1,22;-1,26;-0,72;-0,63;-0,49;-0,04;0,00
31.43;0,79;0,12;-1,13;1,22;-1,26;-0,72;-0,63;-0,49;-0,04;0,00
31.46;0,79;0,12;-1,13;1,74;-3,90;2,95;-0,63;-0,49;-0,04;0,00
31.461;0,79;0,12;-1,13;2,66;-3,91;2,66;-0,63;-0,49;-0,04;0,00
31.489;0,79;0,12;-1,13;2,66;-3,91;2,66;-0,66;-1,34;-2,24;0,00
31.499;0,96;0,40;-1,60;2,66;-3,91;2,66;-0,66;-1,34;-2,24;0,00
31.529;0,96;0,40;-1,60;13,40;-3,22;-8,70;-0,66;-1,34;-2,24;0,00
31.568;0,96;0,40;-1,60;13,40;-3,22;-8,70;-0,79;-0,31;-3,35;0,00
31.569;0,65;0,12;-1,06;13,40;-3,22;-8,70;-0,79;-0,31;-3,35;0,00
31.598;0,65;0,12;-1,06;10,69;-1,85;-6,71;-0,79;-0,31;-3,35;0,00
31.598;0,65;0,12;-1,06;11,55;-1,46;-6,86;-0,79;-0,31;-3,35;0,00
31.608;0,65;0,12;-1,06;11,55;-1,46;-6,86;-1,08;-0,62;-3,89;0,00
31.637;0,50;-1,26;0,14;11,55;-1,46;-6,86;-1,08;-0,62;-3,89;0,00
31.666;0,50;-1,26;0,14;10,44;-9,29;0,95;-1,08;-0,62;-3,89;0,00
31.667;0,50;-1,26;0,14;11,25;-8,54;0,53;-1,08;-0,62;-3,89;0,00
31.686;0,50;-1,26;0,14;11,25;-8,54;0,53;-1,35;-0,86;-5,20;0,00
31.705;-0,13;-1,63;0,85;11,25;-8,54;0,53;-1,35;-0,86;-5,20;0,00
31.737;-0,13;-1,63;0,85;9,50;-17,51;9,59;-1,35;-0,86;-5,20;0,00
31.738;-0,13;-1,63;0,85;9,74;-15,89;9,41;-1,35;-0,86;-5,20;0,00
31.766;-0,13;-1,63;0,85;9,74;-15,89;9,41;-0,77;0,11;-6,01;0,00
31.775;-0,52;-1,43;1,06;9,74;-15,89;9,41;-0,77;0,11;-6,01;0,00
31.805;-0,52;-1,43;1,06;9,74;-15,89;9,41;1,07;-0,92;-5,24;0,00
31.806;-0,52;-1,43;1,06;2,29;-14,76;15,92;1,07;-0,92;-5,24;0,00
31.844;-0,63;-1,25;0,78;2,29;-14,76;15,92;1,07;-0,92;-5,24;0,00
31.874;-0,63;-1,25;0,78;2,25;-10,44;12,67;1,07;-0,92;-5,24;0,00
31.875;-0,63;-1,25;0,78;1,81;-8,93;12,00;1,07;-0,92;-5,24;0,00
31.883;-0,63;-1,25;0,78;1,81;-8,93;12,00;1,15;-2,36;-4,27;0,00
31.913;-0,76;-2,00;1,15;1,81;-8,93;12,00;1,15;-2,36;-4,27;0,00
31.945;-0,76;-2,00;1,15;-1,69;-8,22;12,26;1,15;-2,36;-4,27;0,00
31.946;-0,76;-2,00;1,15;-2,39;-7,09;11,11;1,15;-2,36;-4,27;0,00
31.972;-0,76;-2,00;1,15;-2,39;-7,09;11,11;1,71;-2,84;-4,30;0,00
31.982;-1,60;-2,84;0,61;-2,39;-7,09;11,11;1,71;-2,84;-4,30;0,00
32.002;-1,60;-2,84;0,61;-2,39;-7,09;11,11;1,63;-4,27;-4,26;0,00
32.012;-1,60;-2,84;0,61;-7,79;-15,67;9,77;1,63;-4,27;-4,26;0,00
32.012;-1,60;-2,84;0,61;-9,03;-14,88;8,57;1,63;-4,27;-4,26;0,00
32.051;-2,51;-3,02;0,18;-9,03;-14,88;8,57;1,63;-4,27;-4,26;0,00
32.081;-2,51;-3,02;0,18;-9,03;-14,88;8,57;0,79;-0,61;-3,31;0,00
32.083;-2,51;-3,02;0,18;-16,13;-22,07;2,60;0,79;-0,61;-3,31;0,00
32.12;-2,18;-2,22;-0,27;-16,13;-22,07;2,60;0,79;-0,61;-3,31;0,00
32.15;-2,18;-2,22;-0,27;-25,21;-16,49;-3,02;0,79;-0,61;-3,31;0,00
32.151;-2,18;-2,22;-0,27;-25,13;-16,22;-3,11;0,79;-0,61;-3,31;0,00
32.168;-2,18;-2,22;-0,27;-25,13;-16,22;-3,11;0,11;-0,78;-0,47;0,00
32.189;-1,33;-1,44;-0,04;-25,13;-16,22;-3,11;0,11;-0,78;-0,47;0,00
32.219;-1,33;-1,44;-0,04;-16,16;-9,11;-3,55;0,11;-0,78;-0,47;0,00
32.22;-1,33;-1,44;-0,04;-15,60;-8,95;-3,17;0,11;-0,78;-0,47;0,00
32.238;-1,33;-1,44;-0,04;-15,60;-8,95;-3,17;-0,65;1,26;0,59;0,00
32.259;-0,56;-0,90;0,27;-15,60;-8,95;-3,17;-0,65;1,26;0,59;0,00
32.279;-0,56;-0,90;0,27;-15,60;-8,95;-3,17;-0,77;0,82;1,95;0,00
32.287;-0,56;-0,90;0,27;-7,11;-1,59;0,40;-0,77;0,82;1,95;0,00
32.288;-0,56;-0,90;0,27;-6,18;-1,80;0,73;-0,77;0,82;1,95;0,00
32.327;-0,71;-0,54;0,19;-6,18;-1,80;0,73;-0,77;0,82;1,95;0,00
32.356;-0,71;-0,54;0,19;-6,18;-1,80;0,73;-0,70;0,43;2,60;0,00
32.357;-0,71;-0,54;0,19;0,59;2,89;1,90;-0,70;0,43;2,60;0,00
32.395;-1,28;-1,15;0,56;0,59;2,89;1,90;-0,70;0,43;2,60;0,00
32.426;-1,28;-1,15;0,56;-4,90;1,50;3,94;-0,70;0,43;2,60;0,00
32.428;-1,28;-1,15;0,56;-3,33;0,28;3,44;-0,70;0,43;2,60;0,00
32.436;-1,28;-1,15;0,56;-3,33;0,28;3,44;0,17;-1,66;4,89;0,00
32.464;-1,54;-2,16;1,02;-3,33;0,28;3,44;0,17;-1,66;4,89;0,00
32.48;-1,54;-2,16;1,02;-3,33;0,28;3,44;1,67;-0,43;5,49;0,00
32.501;-1,54;-2,16;1,02;-4,92;-10,44;4,82;1,67;-0,43;5,49;0,00
32.501;-1,54;-2,16;1,02;-3,85;-12,32;4,42;1,67;-0,43;5,49;0,00
32.534;-1,66;-1,83;0,97;-3,85;-12,32;4,42;1,67;-0,43;5,49;0,00
32.553;-1,66;-1,83;0,97;-3,85;-12,32;4,42;2,97;0,60;4,45;0,00
32.565;-1,66;-1,83;0,97;-5,13;-19,11;9,19;2,97;0,60;4,45;0,00
32.566;-1,66;-1,83;0,97;-4,81;-20,74;9,19;2,97;0,60;4,45;0,00
32.603;-1,61;-0,98;0,66;-4,81;-20,74;9,19;2,97;0,60;4,45;0,00
32.632;-1,61;-0,98;0,66;-4,81;-20,74;9,19;3,18;1,80;3,48;0,00
32.632;-1,61;-0,98;0,66;-5,46;-14,72;6,87;3,18;1,80;3,48;0,00
32.671;-1,61;-0,98;0,66;-5,46;-14,72;6,87;2,72;4,38;2,29;0,00
32.672;-0,87;-0,26;0,26;-5,46;-14,72;6,87;2,72;4,38;2,29;0,00
32.702;-0,87;-0,26;0,26;-2,97;-8,94;3,83;2,72;4,38;2,29;0,00
32.703;-0,87;-0,26;0,26;-3,34;-9,59;5,93;2,72;4,38;2,29;0,00
32.74;-0,18;-0,23;0,80;-3,34;-9,59;5,93;2,72;4,38;2,29;0,00
32.75;-0,18;-0,23;0,80;-3,34;-9,59;5,93;1,61;5,80;2,40;0,00
32.77;-0,18;-0,23;0,80;4,20;-5,26;9,33;1,61;5,80;2,40;0,00
32.771;-0,18;-0,23;0,80;2,57;-5,68;11,19;1,61;5,80;2,40;0,00
32.81;0,12;-0,35;0,65;2,57;-5,68;11,19;1,61;5,80;2,40;0,00
32.831;0,12;-0,35;0,65;2,57;-5,68;11,19;0,93;3,98;2,23;0,00
32.84;0,12;-0,35;0,65;6,30;-6,90;15,55;0,93;3,98;2,23;0,00
32.841;0,12;-0,35;0,65;4,74;-7,01;16,15;0,93;3,98;2,23;0,00
32.87;0,12;-0,35;0,65;4,74;-7,01;16,15;-0,17;2,37;1,91;0,00
32.878;0,30;-0,76;-0,10;4,74;-7,01;16,15;-0,17;2,37;1,91;0,00
32.908;0,30;-0,76;-0,10;3,96;-8,89;12,58;-0,17;2,37;1,91;0,00
32.947;0,60;-0,24;-0,33;3,96;-8,89;12,58;-0,17;2,37;1,91;0,00
32.948;0,60;-0,24;-0,33;3,96;-8,89;12,58;-1,35;-0,02;1,33;0,00
32.977;0,60;-0,24;-0,33;7,72;-12,45;4,00;-1,35;-0,02;1,33;0,00
32.978;0,60;-0,24;-0,33;7,42;-12,79;3,63;-1,35;-0,02;1,33;0,00
33.017;0,92;0,75;-1,41;7,42;-12,79;3,63;-1,35;-0,02;1,33;0,00
33.026;0,92;0,75;-1,41;7,42;-12,79;3,63;0,41;-1,47;1,68;0,00
33.046;0,92;0,75;-1,41;11,86;-3,83;0,91;0,41;-1,47;1,68;0,00
33.047;0,92;0,75;-1,41;11,40;-3,56;1,13;0,41;-1,47;1,68;0,00
33.085;0,72;0,60;-1,59;11,40;-3,56;1,13;0,41;-1,47;1,68;0,00
33.105;0,72;0,60;-1,59;11,40;-3,56;1,13;0,59;1,50;1,43;0,00
33.115;0,72;0,60;-1,59;6,72;3,48;-8,23;0,59;1,50;1,43;0,00
33.116;0,72;0,60;-1,59;6,44;3,57;-7,98;0,59;1,50;1,43;0,00
33.145;0,72;0,60;-1,59;6,44;3,57;-7,98;-0,05;0,51;-0,24;0,00
33.164;-0,07;0,47;-0,92;6,44;3,57;-7,98;-0,05;0,51;-0,24;0,00
33.185;-0,07;0,47;-0,92;5,96;1,97;-5,56;-0,05;0,51;-0,24;0,00
33.223;-0,07;0,47;-0,92;5,96;1,97;-5,56;-0,58;0,01;-0,08;0,00
33.224;0,13;0,27;-0,59;5,96;1,97;-5,56;-0,58;0,01;-0,08;0,00
33.253;0,13;0,27;-0,59;-0,25;-3,23;1,98;-0,58;0,01;-0,08;0,00
33.254;0,13;0,27;-0,59;-0,00;-3,21;1,91;-0,58;0,01;-0,08;0,00
33.293;0,93;0,36;-1,14;-0,00;-3,21;1,91;-0,58;0,01;-0,08;0,00
33.302;0,93;0,36;-1,14;-0,00;-3,21;1,91;-0,32;-0,80;-0,80;0,00
33.322;0,93;0,36;-1,14;5,65;-1,81;0,15;-0,32;-0,80;-0,80;0,00
33.322;0,93;0,36;-1,14;6,29;-1,86;-0,05;-0,32;-0,80;-0,80;0,00
33.341;0,93;0,36;-1,14;6,29;-1,86;-0,05;-0,45;-1,86;-2,37;0,00
33.361;0,78;0,49;-1,48;6,29;-1,86;-0,05;-0,45;-1,86;-2,37;0,00
33.391;0,78;0,49;-1,48;12,87;-1,14;-6,46;-0,45;-1,86;-2,37;0,00
33.391;0,78;0,49;-1,48;13,84;-1,13;-6,91;-0,45;-1,86;-2,37;0,00
33.421;0,78;0,49;-1,48;13,84;-1,13;-6,91;-1,19;-2,32;-2,45;0,00
33.43;0,56;-0,24;-0,43;13,84;-1,13;-6,91;-1,19;-2,32;-2,45;0,00
33.46;0,56;-0,24;-0,43;10,15;-1,65;-3,58;-1,19;-2,32;-2,45;0,00
33.499;0,56;-0,24;-0,43;10,15;-1,65;-3,58;-0,96;-0,98;-3,47;0,00
33.499;0,44;-1,18;0,38;10,15;-1,65;-3,58;-0,96;-0,98;-3,47;0,00
33.529;0,44;-1,18;0,38;10,73;-11,11;4,85;-0,96;-0,98;-3,47;0,00
33.531;0,44;-1,18;0,38;11,30;-10,31;4,47;-0,96;-0,98;-3,47;0,00
33.538;0,44;-1,18;0,38;11,30;-10,31;4,47;-1,47;0,02;-5,03;0,00
33.569;-0,05;-1,41;1,00;11,30;-10,31;4,47;-1,47;0,02;-5,03;0,00
33.598;-0,05;-1,41;1,00;8,59;-16,04;12,23;-1,47;0,02;-5,03;0,00
33.599;-0,05;-1,41;1,00;8,93;-14,48;11,83;-1,47;0,02;-5,03;0,00
33.617;-0,05;-1,41;1,00;8,93;-14,48;11,83;-0,41;-0,91;-5,72;0,00
33.637;-0,15;-1,51;0,94;8,93;-14,48;11,83;-0,41;-0,91;-5,72;0,00
33.666;-0,15;-1,51;0,94;5,98;-13,11;14,56;-0,41;-0,91;-5,72;0,00
33.667;-0,15;-1,51;0,94;5,42;-11,22;14,32;-0,41;-0,91;-5,72;0,00
33.696;-0,15;-1,51;0,94;5,42;-11,22;14,32;0,65;0,20;-6,04;0,00
33.706;-0,91;-1,71;1,30;5,42;-11,22;14,32;0,65;0,20;-6,04;0,00
33.735;-0,91;-1,71;1,30;5,42;-11,22;14,32;2,50;-3,20;-3,84;0,00
33.736;-0,91;-1,71;1,30;0,02;-10,04;13,35;2,50;-3,20;-3,84;0,00
33.775;-0,28;-2,74;1,00;0,02;-10,04;13,35;2,50;-3,20;-3,84;0,00
33.805;-0,28;-2,74;1,00;-1,08;-14,69;14,28;2,50;-3,20;-3,84;0,00
33.806;-0,28;-2,74;1,00;-1,71;-13,57;12,34;2,50;-3,20;-3,84;0,00
33.814;-0,28;-2,74;1,00;-1,71;-13,57;12,34;1,92;-5,53;-4,69;0,00
33.853;-1,87;-4,26;1,17;-1,71;-13,57;12,34;1,92;-5,53;-4,69;0,00
33.882;-1,87;-4,26;1,17;-1,87;-27,60;10,79;1,92;-5,53;-4,69;0,00
33.883;-1,87;-4,26;1,17;-3,98;-26,79;9,91;1,92;-5,53;-4,69;0,00
33.893;-1,87;-4,26;1,17;-3,98;-26,79;9,91;1,22;-3,14;-5,20;0,00
33.913;-3,47;-3,19;-0,13;-3,98;-26,79;9,91;1,22;-3,14;-5,20;0,00
33.942;-3,47;-3,19;-0,13;-29,93;-28,58;4,45;1,22;-3,14;-5,20;0,00
33.943;-3,47;-3,19;-0,13;-30,21;-28,20;4,16;1,22;-3,14;-5,20;0,00
33.972;-3,47;-3,19;-0,13;-30,21;-28,20;4,16;0,61;-0,44;-2,01;0,00
33.982;-3,15;-1,47;-0,26;-30,21;-28,20;4,16;0,61;-0,44;-2,01;0,00
34.012;-3,15;-1,47;-0,26;-30,21;-28,20;4,16;-0,71;-0,36;1,82;0,00
34.012;-3,15;-1,47;-0,26;-34,03;-13,76;-8,03;-0,71;-0,36;1,82;0,00
34.051;-0,83;-0,96;0,46;-34,03;-13,76;-8,03;-0,71;-0,36;1,82;0,00
34.081;-0,83;-0,96;0,46;-19,37;-1,98;-0,19;-0,71;-0,36;1,82;0,00
34.082;-0,83;-0,96;0,46;-17,73;-2,22;-0,07;-0,71;-0,36;1,82;0,00
34.09;-0,83;-0,96;0,46;-17,73;-2,22;-0,07;-0,43;-0,00;3,38;0,00
34.12;-0,69;-0,96;0,83;-17,73;-2,22;-0,07;-0,43;-0,00;3,38;0,00
34.15;-0,69;-0,96;0,83;-0,79;1,78;3,43;-0,43;-0,00;3,38;0,00
34.15;-0,69;-0,96;0,83;0,54;1,04;3,60;-0,43;-0,00;3,38;0,00
34.17;-0,69;-0,96;0,83;0,54;1,04;3,60;-0,01;0,87;3,67;0,00
34.189;-0,96;-1,68;0,99;0,54;1,04;3,60;-0,01;0,87;3,67;0,00
34.214;-0,96;-1,68;0,99;0,54;1,04;3,60;1,51;0,01;4,83;0,00
34.239;-0,96;-1,68;0,99;-0,44;-5,28;7,59;1,51;0,01;4,83;0,00
34.242;-0,96;-1,68;0,99;0,86;-6,86;7,05;1,51;0,01;4,83;0,00
34.258;-1,71;-2,32;1,22;0,86;-6,86;7,05;1,51;0,01;4,83;0,00
34.288;-1,71;-2,32;1,22;-3,06;-15,15;6,93;1,51;0,01;4,83;0,00
34.289;-1,71;-2,32;1,22;-3,06;-15,15;6,93;1,95;1,36;5,70;0,00
34.326;-1,50;-2,12;1,45;-3,06;-15,15;6,93;1,95;1,36;5,70;0,00
34.356;-1,50;-2,12;1,45;-6,96;-22,31;12,44;1,95;1,36;5,70;0,00
34.358;-1,50;-2,12;1,45;-6,66;-24,68;12,59;1,95;1,36;5,70;0,00
34.366;-1,50;-2,12;1,45;-6,66;-24,68;12,59;3,01;1,01;5,64;0,00
34.396;-0,52;-0,36;-0,30;-6,66;-24,68;12,59;3,01;1,01;5,64;0,00
34.405;-0,52;-0,36;-0,30;-6,66;-24,68;12,59;2,92;2,88;2,13;0,00
34.427;-0,52;-0,36;-0,30;0,67;-15,81;5,51;2,92;2,88;2,13;0,00
34.428;-0,52;-0,36;-0,30;0,57;-16,39;7,03;2,92;2,88;2,13;0,00
