time;gFx;gFy;gFz;ax;ay;az;wx;wy;wz;P
0.004;-0,42;0,47;0,64;0,26;0,29;-0,41;-0,14;0,20;-0,07;0,00
0.009;-0,42;0,47;0,64;0,26;0,29;-0,41;-0,27;0,04;-0,11;0,00
0.039;-0,42;0,47;0,64;-0,21;0,11;-1,05;-0,27;0,04;-0,11;0,00
0.04;-0,42;0,47;0,64;-0,19;0,22;-1,09;-0,27;0,04;-0,11;0,00
0.069;-0,43;0,37;0,42;-0,19;0,22;-1,09;-0,27;0,04;-0,11;0,00
0.088;-0,43;0,37;0,42;-0,19;0,22;-1,09;-0,49;0,37;-0,28;0,00
0.112;-0,43;0,37;0,42;-0,07;-0,31;-2,43;-0,49;0,37;-0,28;0,00
0.112;-0,43;0,37;0,42;0,12;-0,05;-2,44;-0,49;0,37;-0,28;0,00
0.138;-0,43;0,18;0,42;0,12;-0,05;-2,44;-0,49;0,37;-0,28;0,00
0.168;-0,43;0,18;0,42;0,12;-0,05;-2,44;-1,21;0,29;-0,54;0,00
0.177;-0,43;0,18;0,42;0,01;-1,05;-3,89;-1,21;0,29;-0,54;0,00
0.178;-0,43;0,18;0,42;0,24;-0,45;-3,94;-1,21;0,29;-0,54;0,00
0.207;-0,54;0,06;0,52;0,24;-0,45;-3,94;-1,21;0,29;-0,54;0,00
0.208;-0,54;0,06;0,52;0,24;-0,45;-3,94;-1,86;0,50;-0,76;0,00
0.247;-0,54;0,06;0,52;0,15;-1,30;-3,32;-1,86;0,50;-0,76;0,00
0.276;-0,50;0,07;0,76;0,15;-1,30;-3,32;-1,86;0,50;-0,76;0,00
0.286;-0,50;0,07;0,76;0,15;-1,30;-3,32;-2,39;0,32;-0,68;0,00
0.315;-0,50;0,07;0,76;-0,45;-0,95;-0,72;-2,39;0,32;-0,68;0,00
0.316;-0,50;0,07;0,76;-0,30;-0,07;-0,73;-2,39;0,32;-0,68;0,00
0.344;-0,39;-0,07;0,34;-0,30;-0,07;-0,73;-2,39;0,32;-0,68;0,00
0.365;-0,39;-0,07;0,34;-0,30;-0,07;-0,73;-2,52;0,79;-0,79;0,00
0.384;-0,39;-0,07;0,34;0,82;0,60;-2,41;-2,52;0,79;-0,79;0,00
0.385;-0,39;-0,07;0,34;0,97;1,71;-2,12;-2,52;0,79;-0,79;0,00
0.404;-0,39;-0,07;0,34;0,97;1,71;-2,12;-3,31;2,03;-1,77;0,00
0.414;-0,58;-0,52;0,49;0,97;1,71;-2,12;-3,31;2,03;-1,77;0,00
0.453;-0,58;-0,52;0,49;2,64;-0,19;-4,51;-3,31;2,03;-1,77;0,00
0.454;-0,58;-0,52;0,49;2,64;1,19;-3,61;-3,31;2,03;-1,77;0,00
0.483;-0,98;-0,78;1,07;2,64;1,19;-3,61;-3,31;2,03;-1,77;0,00
0.483;-0,98;-0,78;1,07;2,64;1,19;-3,61;-3,24;1,37;-2,36;0,00
0.522;-0,98;-0,78;1,07;-2,30;-2,58;4,11;-3,24;1,37;-2,36;0,00
0.561;-1,56;-0,56;1,81;-2,30;-2,58;4,11;-3,24;1,37;-2,36;0,00
0.562;-1,56;-0,56;1,81;-2,30;-2,58;4,11;-1,76;1,19;-1,88;0,00
0.591;-1,56;-0,56;1,81;-8,02;0,15;10,33;-1,76;1,19;-1,88;0,00
0.594;-1,56;-0,56;1,81;-8,23;0,65;10,48;-1,76;1,19;-1,88;0,00
0.6;-1,56;-0,56;1,81;-8,23;0,65;10,48;0,24;0,73;-0,43;0,00
0.622;-1,65;-0,53;1,85;-8,23;0,65;10,48;0,24;0,73;-0,43;0,00
0.66;-1,65;-0,53;1,85;-10,70;2,14;15,36;0,24;0,73;-0,43;0,00
0.661;-1,65;-0,53;1,85;-10,06;1,56;14,93;0,24;0,73;-0,43;0,00
0.68;-1,65;-0,53;1,85;-10,06;1,56;14,93;2,61;2,04;1,00;0,00
0.691;-1,09;-1,16;1,32;-10,06;1,56;14,93;2,61;2,04;1,00;0,00
0.729;-1,09;-1,16;1,32;-6,08;-3,44;9,41;2,61;2,04;1,00;0,00
0.73;-1,09;-1,16;1,32;-5,35;-4,22;9,38;2,61;2,04;1,00;0,00
0.759;-1,09;-1,16;1,32;-5,35;-4,22;9,38;2,76;2,09;1,01;0,00
0.76;-0,55;-0,96;0,79;-5,35;-4,22;9,38;2,76;2,09;1,01;0,00
0.799;-0,55;-0,96;0,79;0,74;-7,85;5,71;2,76;2,09;1,01;0,00
0.8;-0,55;-0,96;0,79;0,74;-7,85;5,71;2,61;1,90;0,55;0,00
0.828;-0,25;-0,37;0,35;0,74;-7,85;5,71;2,61;1,90;0,55;0,00
0.867;-0,25;-0,37;0,35;4,98;-2,51;0,54;2,61;1,90;0,55;0,00
0.868;-0,25;-0,37;0,35;5,15;-3,11;0,60;2,61;1,90;0,55;0,00
0.877;-0,25;-0,37;0,35;5,15;-3,11;0,60;2,79;1,13;0,67;0,00
0.905;-0,07;-0,22;0,05;5,15;-3,11;0,60;2,79;1,13;0,67;0,00
0.936;-0,07;-0,22;0,05;7,87;-0,53;-2,97;2,79;1,13;0,67;0,00
0.937;-0,07;-0,22;0,05;8,08;-1,43;-2,47;2,79;1,13;0,67;0,00
0.957;-0,07;-0,22;0,05;8,08;-1,43;-2,47;3,04;1,71;1,25;0,00
0.967;-0,08;-0,35;0,05;8,08;-1,43;-2,47;3,04;1,71;1,25;0,00
1.007;-0,08;-0,35;0,05;8,74;-2,56;-2,97;3,04;1,71;1,25;0,00
1.007;-0,08;-0,35;0,05;8,73;-3,26;-2,41;3,04;1,71;1,25;0,00
1.034;-0,06;-0,39;-0,08;8,73;-3,26;-2,41;3,04;1,71;1,25;0,00
1.035;-0,06;-0,39;-0,08;8,73;-3,26;-2,41;2,85;1,27;1,08;0,00
1.074;-0,06;-0,39;-0,08;8,48;-4,99;-2,06;2,85;1,27;1,08;0,00
1.075;-0,06;-0,39;-0,08;8,48;-4,99;-2,06;1,26;0,64;-0,33;0,00
1.103;-0,55;-0,32;-0,04;8,48;-4,99;-2,06;1,26;0,64;-0,33;0,00
1.143;-0,55;-0,32;-0,04;6,90;-4,14;-3,19;1,26;0,64;-0,33;0,00
1.145;-0,55;-0,32;-0,04;6,76;-3,32;-3,40;1,26;0,64;-0,33;0,00
1.16;-0,55;-0,32;-0,04;6,76;-3,32;-3,40;-2,24;-1,38;-1,92;0,00
1.183;-1,86;-0,68;0,85;6,76;-3,32;-3,40;-2,24;-1,38;-1,92;0,00
1.212;-1,86;-0,68;0,85;-4,43;-3,69;1,48;-2,24;-1,38;-1,92;0,00
1.213;-1,86;-0,68;0,85;-4,88;-2,84;0,49;-2,24;-1,38;-1,92;0,00
1.231;-1,86;-0,68;0,85;-4,88;-2,84;0,49;-3,14;-3,26;-0,97;0,00
1.241;-2,07;-0,57;1,03;-4,88;-2,84;0,49;-3,14;-3,26;-0,97;0,00
1.271;-2,07;-0,57;1,03;-4,88;-2,84;0,49;-1,16;-0,95;0,23;0,00
1.28;-2,07;-0,57;1,03;-11,52;-4,08;5,66;-1,16;-0,95;0,23;0,00
1.281;-2,07;-0,57;1,03;-11,43;-3,94;5,41;-1,16;-0,95;0,23;0,00
1.311;-1,40;-0,33;0,83;-11,43;-3,94;5,41;-1,16;-0,95;0,23;0,00
1.35;-1,40;-0,33;0,83;-11,43;-3,94;5,41;-1,09;-1,34;0,71;0,00
1.351;-1,40;-0,33;0,83;-10,00;-1,76;4,37;-1,09;-1,34;0,71;0,00
1.379;-0,52;0,06;0,36;-10,00;-1,76;4,37;-1,09;-1,34;0,71;0,00
1.419;-0,52;0,06;0,36;0,18;1,59;0,24;-1,09;-1,34;0,71;0,00
1.42;-0,52;0,06;0,36;0,21;1,50;0,25;-1,09;-1,34;0,71;0,00
1.428;-0,52;0,06;0,36;0,21;1,50;0,25;-0,30;-0,09;0,36;0,00
1.448;-0,07;0,29;0,06;0,21;1,50;0,25;-0,30;-0,09;0,36;0,00
1.468;-0,07;0,29;0,06;0,21;1,50;0,25;0,74;0,24;-0,33;0,00
1.488;-0,07;0,29;0,06;5,94;4,54;-3,64;0,74;0,24;-0,33;0,00
1.489;-0,07;0,29;0,06;5,87;4,41;-3,56;0,74;0,24;-0,33;0,00
1.518;-0,01;0,31;-0,17;5,87;4,41;-3,56;0,74;0,24;-0,33;0,00
1.547;-0,01;0,31;-0,17;5,87;4,41;-3,56;1,32;1,85;-0,79;0,00
1.557;-0,01;0,31;-0,17;7,88;5,41;-5,91;1,32;1,85;-0,79;0,00
1.557;-0,01;0,31;-0,17;8,06;5,39;-5,21;1,32;1,85;-0,79;0,00
1.586;0,05;0,18;-0,20;8,06;5,39;-5,21;1,32;1,85;-0,79;0,00
1.625;0,05;0,18;-0,20;8,06;5,39;-5,21;1,15;3,32;-1,78;0,00
1.627;0,05;0,18;-0,20;8,42;4,53;-5,01;1,15;3,32;-1,78;0,00
1.656;-0,40;-0,28;0,47;8,42;4,53;-5,01;1,15;3,32;-1,78;0,00
1.666;-0,40;-0,28;0,47;8,42;4,53;-5,01;-0,81;1,09;-3,12;0,00
1.694;-0,40;-0,28;0,47;7,66;3,63;-1,73;-0,81;1,09;-3,12;0,00
1.695;-0,40;-0,28;0,47;7,18;4,62;-1,24;-0,81;1,09;-3,12;0,00
1.724;-1,00;-1,45;1,27;7,18;4,62;-1,24;-0,81;1,09;-3,12;0,00
1.745;-1,00;-1,45;1,27;7,18;4,62;-1,24;-0,75;1,21;-4,84;0,00
1.764;-1,00;-1,45;1,27;1,04;-3,74;6,91;-0,75;1,21;-4,84;0,00
1.765;-1,00;-1,45;1,27;-0,07;-2,36;7,46;-0,75;1,21;-4,84;0,00
1.793;-2,04;-1,71;1,77;-0,07;-2,36;7,46;-0,75;1,21;-4,84;0,00
1.823;-2,04;-1,71;1,77;-0,07;-2,36;7,46;2,56;3,77;-2,58;0,00
1.833;-2,04;-1,71;1,77;-13,13;-11,51;17,92;2,56;3,77;-2,58;0,00
1.836;-2,04;-1,71;1,77;-13,20;-11,20;17,16;2,56;3,77;-2,58;0,00
1.863;-1,23;-1,78;1,54;-13,20;-11,20;17,16;2,56;3,77;-2,58;0,00
1.902;-1,23;-1,78;1,54;-13,20;-11,20;17,16;3,53;4,05;0,44;0,00
1.903;-1,23;-1,78;1,54;-10,33;-6,51;11,79;3,53;4,05;0,44;0,00
1.933;-0,56;-1,84;1,28;-10,33;-6,51;11,79;3,53;4,05;0,44;0,00
1.945;-0,56;-1,84;1,28;-10,33;-6,51;11,79;4,32;5,94;1,20;0,00
1.971;-0,56;-1,84;1,28;-0,22;-12,46;12,79;4,32;5,94;1,20;0,00
1.972;-0,56;-1,84;1,28;0,64;-12,97;13,10;4,32;5,94;1,20;0,00
2.0;-0,50;-1,03;0,64;0,64;-12,97;13,10;4,32;5,94;1,20;0,00
2.02;-0,50;-1,03;0,64;0,64;-12,97;13,10;4,10;5,55;1,99;0,00
2.045;-0,50;-1,03;0,64;2,76;-7,46;7,33;4,10;5,55;1,99;0,00
2.047;-0,50;-1,03;0,64;3,36;-8,22;7,90;4,10;5,55;1,99;0,00
2.069;-0,05;-0,57;0,47;3,36;-8,22;7,90;4,10;5,55;1,99;0,00
2.098;-0,05;-0,57;0,47;3,36;-8,22;7,90;3,58;4,04;2,74;0,00
2.108;-0,05;-0,57;0,47;7,32;-2,18;4,84;3,58;4,04;2,74;0,00
2.11;-0,05;-0,57;0,47;7,52;-3,17;6,06;3,58;4,04;2,74;0,00
2.138;-0,05;-0,57;0,47;7,52;-3,17;6,06;3,31;5,12;2,60;0,00
2.138;0,13;-0,47;0,40;7,52;-3,17;6,06;3,31;5,12;2,60;0,00
2.178;0,13;-0,47;0,40;9,80;-2,96;6,52;3,31;5,12;2,60;0,00
2.207;0,27;-0,36;0,49;9,80;-2,96;6,52;3,31;5,12;2,60;0,00
2.217;0,27;-0,36;0,49;9,80;-2,96;6,52;2,41;4,25;1,99;0,00
2.247;0,27;-0,36;0,49;10,52;-0,81;8,75;2,41;4,25;1,99;0,00
2.25;0,27;-0,36;0,49;9,85;-0,97;9,61;2,41;4,25;1,99;0,00
2.286;0,22;-0,44;0,36;9,85;-0,97;9,61;2,41;4,25;1,99;0,00
2.309;0,22;-0,44;0,36;9,85;-0,97;9,61;1,69;0,98;-0,11;0,00
2.315;0,22;-0,44;0,36;10,60;-1,74;9,33;1,69;0,98;-0,11;0,00
2.316;0,22;-0,44;0,36;10,53;-1,09;8,66;1,69;0,98;-0,11;0,00
2.335;0,22;-0,44;0,36;10,53;-1,09;8,66;0,66;-3,25;-2,71;0,00
2.345;-0,24;-1,14;0,21;10,53;-1,09;8,66;0,66;-3,25;-2,71;0,00
2.384;-0,24;-1,14;0,21;7,62;-2,72;5,49;0,66;-3,25;-2,71;0,00
2.385;-0,24;-1,14;0,21;7,19;-1,58;4,34;0,66;-3,25;-2,71;0,00
2.415;-0,24;-1,14;0,21;7,19;-1,58;4,34;0,46;-3,56;-4,06;0,00
2.417;-1,22;-2,09;-0,14;7,19;-1,58;4,34;0,46;-3,56;-4,06;0,00
2.454;-1,22;-2,09;-0,14;-2,18;-11,71;1,52;0,46;-3,56;-4,06;0,00
2.483;-0,98;-2,29;0,20;-2,18;-11,71;1,52;0,46;-3,56;-4,06;0,00
2.493;-0,98;-2,29;0,20;-2,18;-11,71;1,52;-1,25;-5,15;-4,80;0,00
2.523;-0,98;-2,29;0,20;-5,89;-13,71;-1,09;-1,25;-5,15;-4,80;0,00
2.526;-0,98;-2,29;0,20;-7,34;-12,66;-1,23;-1,25;-5,15;-4,80;0,00
2.542;-0,98;-2,29;0,20;-7,34;-12,66;-1,23;-1,96;-3,79;-4,25;0,00
2.551;-1,31;-1,59;0,71;-7,34;-12,66;-1,23;-1,96;-3,79;-4,25;0,00
2.591;-1,31;-1,59;0,71;-8,89;-11,26;7,20;-1,96;-3,79;-4,25;0,00
2.592;-1,31;-1,59;0,71;-9,89;-10,87;7,09;-1,96;-3,79;-4,25;0,00
2.611;-1,31;-1,59;0,71;-9,89;-10,87;7,09;0,16;-1,43;-2,52;0,00
2.622;-1,12;-0,13;0,10;-9,89;-10,87;7,09;0,16;-1,43;-2,52;0,00
2.66;-1,12;-0,13;0,10;-11,81;3,68;2,35;0,16;-1,43;-2,52;0,00
2.66;-1,12;-0,13;0,10;-12,39;3,63;2,17;0,16;-1,43;-2,52;0,00
2.689;-1,12;-0,13;0,10;-12,39;3,63;2,17;0,32;0,28;-1,83;0,00
2.69;-0,90;0,01;-0,09;-12,39;3,63;2,17;0,32;0,28;-1,83;0,00
2.729;-0,90;0,01;-0,09;-9,52;10,22;-0,77;0,32;0,28;-1,83;0,00
2.758;-0,89;-0,45;0,10;-9,52;10,22;-0,77;0,32;0,28;-1,83;0,00
2.768;-0,89;-0,45;0,10;-9,52;10,22;-0,77;0,30;2,56;-1,12;0,00
2.798;-0,89;-0,45;0,10;-9,53;8,46;-1,32;0,30;2,56;-1,12;0,00
2.8;-0,89;-0,45;0,10;-9,60;8,30;-1,43;0,30;2,56;-1,12;0,00
2.809;-0,89;-0,45;0,10;-9,60;8,30;-1,43;-0,05;2,19;-0,66;0,00
2.827;-1,18;-1,40;0,77;-9,60;8,30;-1,43;-0,05;2,19;-0,66;0,00
2.867;-1,18;-1,40;0,77;-10,56;-0,93;3,30;-0,05;2,19;-0,66;0,00
2.868;-1,18;-1,40;0,77;-10,04;-0,90;3,25;-0,05;2,19;-0,66;0,00
2.886;-1,18;-1,40;0,77;-10,04;-0,90;3,25;0,20;2,82;1,33;0,00
2.898;-0,85;-1,62;0,76;-10,04;-0,90;3,25;0,20;2,82;1,33;0,00
2.936;-0,85;-1,62;0,76;-9,62;-7,48;8,11;0,20;2,82;1,33;0,00
2.936;-0,85;-1,62;0,76;-8,46;-7,54;7,86;0,20;2,82;1,33;0,00
2.965;-0,85;-1,62;0,76;-8,46;-7,54;7,86;0,92;4,06;2,20;0,00
2.967;-0,52;-1,42;0,38;-8,46;-7,54;7,86;0,92;4,06;2,20;0,00
3.005;-0,52;-1,42;0,38;-8,46;-7,54;7,86;-0,03;4,42;1,82;0,00
3.006;-0,52;-1,42;0,38;-2,76;-4,27;3,10;-0,03;4,42;1,82;0,00
3.035;-0,63;-1,52;0,54;-2,76;-4,27;3,10;-0,03;4,42;1,82;0,00
3.074;-0,63;-1,52;0,54;-1,17;-5,50;4,52;-0,03;4,42;1,82;0,00
3.075;-0,63;-1,52;0,54;-0,29;-5,83;4,99;-0,03;4,42;1,82;0,00
3.084;-0,63;-1,52;0,54;-0,29;-5,83;4,99;0,12;2,91;2,35;0,00
3.104;-0,62;-2,28;0,65;-0,29;-5,83;4,99;0,12;2,91;2,35;0,00
3.143;-0,62;-2,28;0,65;-0,03;-10,59;4,92;0,12;2,91;2,35;0,00
3.144;-0,62;-2,28;0,65;0,64;-10,99;5,65;0,12;2,91;2,35;0,00
3.163;-0,62;-2,28;0,65;0,64;-10,99;5,65;-0,33;2,71;2,52;0,00
3.173;-0,56;-1,80;0,75;0,64;-10,99;5,65;-0,33;2,71;2,52;0,00
3.202;-0,56;-1,80;0,75;0,64;-10,99;5,65;-0,10;0,94;3,40;0,00
3.212;-0,56;-1,80;0,75;0,63;-13,56;9,67;-0,10;0,94;3,40;0,00
3.212;-0,56;-1,80;0,75;1,48;-14,37;9,77;-0,10;0,94;3,40;0,00
3.243;-0,27;-0,96;0,36;1,48;-14,37;9,77;-0,10;0,94;3,40;0,00
3.28;-0,27;-0,96;0,36;1,48;-14,37;9,77;0,05;1,16;3,35;0,00
3.281;-0,27;-0,96;0,36;5,38;-7,53;6,45;0,05;1,16;3,35;0,00
3.311;-0,13;-0,47;0,24;5,38;-7,53;6,45;0,05;1,16;3,35;0,00
3.35;-0,13;-0,47;0,24;7,20;-1,14;4,99;0,05;1,16;3,35;0,00
3.35;-0,13;-0,47;0,24;7,42;-2,34;5,46;0,05;1,16;3,35;0,00
3.36;-0,13;-0,47;0,24;7,42;-2,34;5,46;0,91;1,97;3,57;0,00
3.379;0,30;-0,54;0,10;7,42;-2,34;5,46;0,91;1,97;3,57;0,00
3.399;0,30;-0,54;0,10;7,42;-2,34;5,46;0,83;2,97;2,64;0,00
3.419;0,30;-0,54;0,10;10,31;-3,49;4,52;0,83;2,97;2,64;0,00
3.419;0,30;-0,54;0,10;9,86;-4,25;5,48;0,83;2,97;2,64;0,00
3.448;0,59;-0,44;0,19;9,86;-4,25;5,48;0,83;2,97;2,64;0,00
3.478;0,59;-0,44;0,19;9,86;-4,25;5,48;0,73;1,91;0,54;0,00
3.488;0,59;-0,44;0,19;13,09;-3,67;6,58;0,73;1,91;0,54;0,00
3.492;0,59;-0,44;0,19;12,60;-3,44;6,88;0,73;1,91;0,54;0,00
3.522;0,34;-0,55;0,15;12,60;-3,44;6,88;0,73;1,91;0,54;0,00
3.557;0,34;-0,55;0,15;12,60;-3,44;6,88;0,41;-1,75;-2,62;0,00
3.558;0,34;-0,55;0,15;12,80;-2,45;6,64;0,41;-1,75;-2,62;0,00
3.586;-0,76;-1,65;0,01;12,80;-2,45;6,64;0,41;-1,75;-2,62;0,00
3.629;-0,76;-1,65;0,01;6,61;-7,86;4,48;0,41;-1,75;-2,62;0,00
3.631;-0,76;-1,65;0,01;6,24;-6,20;3,13;0,41;-1,75;-2,62;0,00
3.636;-0,76;-1,65;0,01;6,24;-6,20;3,13;-0,43;-4,53;-5,34;0,00
3.655;-1,62;-2,13;-0,03;6,24;-6,20;3,13;-0,43;-4,53;-5,34;0,00
3.676;-1,62;-2,13;-0,03;6,24;-6,20;3,13;-1,22;-4,31;-5,61;0,00
3.695;-1,62;-2,13;-0,03;-7,99;-12,76;0,49;-1,22;-4,31;-5,61;0,00
3.697;-1,62;-2,13;-0,03;-9,23;-11,32;-0,11;-1,22;-4,31;-5,61;0,00
3.724;-1,43;-2,09;0,67;-9,23;-11,32;-0,11;-1,22;-4,31;-5,61;0,00
3.754;-1,43;-2,09;0,67;-9,23;-11,32;-0,11;-1,42;-5,05;-4,96;0,00
3.764;-1,43;-2,09;0,67;-11,77;-13,11;3,84;-1,42;-5,05;-4,96;0,00
3.765;-1,43;-2,09;0,67;-13,24;-12,34;3,63;-1,42;-5,05;-4,96;0,00
3.793;-1,40;-0,88;0,40;-13,24;-12,34;3,63;-1,42;-5,05;-4,96;0,00
3.832;-1,40;-0,88;0,40;-13,24;-12,34;3,63;0,48;-0,87;-3,15;0,00
3.833;-1,40;-0,88;0,40;-11,28;-4,87;6,43;0,48;-0,87;-3,15;0,00
3.862;-1,12;0,09;0,00;-11,28;-4,87;6,43;0,48;-0,87;-3,15;0,00
3.872;-1,12;0,09;0,00;-11,28;-4,87;6,43;0,42;-1,72;-1,38;0,00
3.902;-1,12;0,09;0,00;-12,76;9,08;0,14;0,42;-1,72;-1,38;0,00
3.903;-1,12;0,09;0,00;-13,08;8,94;-0,02;0,42;-1,72;-1,38;0,00
3.931;-0,87;0,10;-0,29;-13,08;8,94;-0,02;0,42;-1,72;-1,38;0,00
3.951;-0,87;0,10;-0,29;-13,08;8,94;-0,02;0,24;0,10;-0,37;0,00
3.976;-0,87;0,10;-0,29;-8,04;10,58;-2,45;0,24;0,10;-0,37;0,00
3.978;-0,87;0,10;-0,29;-7,96;10,40;-2,45;0,24;0,10;-0,37;0,00
4.0;-1,01;-0,76;0,15;-7,96;10,40;-2,45;0,24;0,10;-0,37;0,00
4.031;-1,01;-0,76;0,15;-7,96;10,40;-2,45;-0,29;-0,34;0,17;0,00
4.04;-1,01;-0,76;0,15;-8,66;6,27;-1,77;-0,29;-0,34;0,17;0,00
4.041;-1,01;-0,76;0,15;-8,33;6,15;-1,77;-0,29;-0,34;0,17;0,00
4.069;-1,09;-1,38;0,37;-8,33;6,15;-1,77;-0,29;-0,34;0,17;0,00
4.07;-1,09;-1,38;0,37;-8,33;6,15;-1,77;0,51;0,99;1,31;0,00
4.116;-1,09;-1,38;0,37;-9,21;-1,31;2,14;0,51;0,99;1,31;0,00
4.151;-1,29;-1,77;0,64;-9,21;-1,31;2,14;0,51;0,99;1,31;0,00
4.152;-1,29;-1,77;0,64;-9,21;-1,31;2,14;0,61;2,45;1,28;0,00
4.177;-1,29;-1,77;0,64;-9,21;-6,99;4,13;0,61;2,45;1,28;0,00
4.179;-1,29;-1,77;0,64;-8,45;-7,04;4,14;0,61;2,45;1,28;0,00
4.209;-1,21;-2,12;0,89;-8,45;-7,04;4,14;0,61;2,45;1,28;0,00
4.228;-1,21;-2,12;0,89;-8,45;-7,04;4,14;0,67;4,62;3,06;0,00
4.247;-1,21;-2,12;0,89;-9,00;-9,57;6,03;0,67;4,62;3,06;0,00
4.248;-1,21;-2,12;0,89;-7,55;-10,14;6,55;0,67;4,62;3,06;0,00
4.266;-1,21;-2,12;0,89;-7,55;-10,14;6,55;0,16;3,11;3,52;0,00
4.276;-0,37;-2,51;1,54;-7,55;-10,14;6,55;0,16;3,11;3,52;0,00
4.315;-0,37;-2,51;1,54;0,13;-18,09;14,07;0,16;3,11;3,52;0,00
4.317;-0,37;-2,51;1,54;0,87;-18,65;14,96;0,16;3,11;3,52;0,00
4.35;-0,37;-2,51;1,54;0,87;-18,65;14,96;1,31;5,49;2,93;0,00
4.352;-0,01;-0,99;0,75;0,87;-18,65;14,96;1,31;5,49;2,93;0,00
4.385;-0,01;-0,99;0,75;6,21;-9,58;12,97;1,31;5,49;2,93;0,00
4.415;0,19;-0,29;0,22;6,21;-9,58;12,97;1,31;5,49;2,93;0,00
4.424;0,19;-0,29;0,22;6,21;-9,58;12,97;0,98;4,27;2,14;0,00
4.454;0,19;-0,29;0,22;9,62;2,03;7,09;0,98;4,27;2,14;0,00
4.454;0,19;-0,29;0,22;9,29;1,51;8,07;0,98;4,27;2,14;0,00
4.483;0,28;-0,47;0,23;9,29;1,51;8,07;0,98;4,27;2,14;0,00
4.503;0,28;-0,47;0,23;9,29;1,51;8,07;0,33;3,33;2,18;0,00
4.523;0,28;-0,47;0,23;9,24;0,86;7,20;0,33;3,33;2,18;0,00
4.526;0,28;-0,47;0,23;8,99;0,48;7,55;0,33;3,33;2,18;0,00
4.542;0,28;-0,47;0,23;8,99;0,48;7,55;0,18;1,52;1,22;0,00
4.552;0,35;-0,62;0,33;8,99;0,48;7,55;0,18;1,52;1,22;0,00
4.592;0,35;-0,62;0,33;9,63;-0,74;8,18;0,18;1,52;1,22;0,00
4.593;0,35;-0,62;0,33;9,41;-0,73;8,10;0,18;1,52;1,22;0,00
4.621;0,13;-0,87;0,17;9,41;-0,73;8,10;0,18;1,52;1,22;0,00
4.622;0,13;-0,87;0,17;9,41;-0,73;8,10;0,74;0,45;0,07;0,00
4.664;0,13;-0,87;0,17;9,04;-2,65;7,58;0,74;0,45;0,07;0,00
4.689;-0,16;-1,47;0,02;9,04;-2,65;7,58;0,74;0,45;0,07;0,00
4.699;-0,16;-1,47;0,02;9,04;-2,65;7,58;0,76;-2,45;-1,52;0,00
4.729;-0,16;-1,47;0,02;5,51;-6,66;6,17;0,76;-2,45;-1,52;0,00
4.73;-0,16;-1,47;0,02;5,51;-5,76;4,73;0,76;-2,45;-1,52;0,00
4.739;-0,16;-1,47;0,02;5,51;-5,76;4,73;0,51;-4,57;-3,86;0,00
4.771;-0,61;-2,11;-0,01;5,51;-5,76;4,73;0,51;-4,57;-3,86;0,00
4.798;-0,61;-2,11;-0,01;1,98;-9,95;-0,09;0,51;-4,57;-3,86;0,00
4.799;-0,61;-2,11;-0,01;0,92;-8,99;-0,82;0,51;-4,57;-3,86;0,00
4.818;-0,61;-2,11;-0,01;0,92;-8,99;-0,82;-0,81;-5,15;-4,44;0,00
4.828;-1,10;-2,47;0,61;0,92;-8,99;-0,82;-0,81;-5,15;-4,44;0,00
4.867;-1,10;-2,47;0,61;-5,99;-15,13;4,74;-0,81;-5,15;-4,44;0,00
4.868;-1,10;-2,47;0,61;-7,12;-14,54;4,55;-0,81;-5,15;-4,44;0,00
4.896;-1,10;-2,47;0,61;-7,12;-14,54;4,55;-0,64;-3,81;-3,30;0,00
4.897;-1,41;-1,15;0,42;-7,12;-14,54;4,55;-0,64;-3,81;-3,30;0,00
4.936;-1,41;-1,15;0,42;-7,12;-14,54;4,55;0,32;-2,12;-1,62;0,00
4.937;-1,41;-1,15;0,42;-12,13;-8,51;6,21;0,32;-2,12;-1,62;0,00
4.966;-0,87;-0,01;-0,24;-12,13;-8,51;6,21;0,32;-2,12;-1,62;0,00
5.005;-0,87;-0,01;-0,24;-9,30;7,27;-0,17;0,32;-2,12;-1,62;0,00
5.009;-0,87;-0,01;-0,24;-9,71;7,19;-0,19;0,32;-2,12;-1,62;0,00
5.02;-0,87;-0,01;-0,24;-9,71;7,19;-0,19;-0,23;-0,54;-1,30;0,00
5.04;-0,84;-0,06;-0,33;-9,71;7,19;-0,19;-0,23;-0,54;-1,30;0,00
5.074;-0,84;-0,06;-0,33;-8,38;9,62;-3,07;-0,23;-0,54;-1,30;0,00
5.075;-0,84;-0,06;-0,33;-8,82;9,45;-2,85;-0,23;-0,54;-1,30;0,00
5.093;-0,84;-0,06;-0,33;-8,82;9,45;-2,85;-0,47;1,53;-1,51;0,00
5.105;-0,91;-0,63;-0,03;-8,82;9,45;-2,85;-0,47;1,53;-1,51;0,00
5.133;-0,91;-0,63;-0,03;-8,82;9,45;-2,85;-0,67;3,52;-1,25;0,00
5.149;-0,91;-0,63;-0,03;-8,18;6,95;-2,18;-0,67;3,52;-1,25;0,00
5.149;-0,91;-0,63;-0,03;-8,57;6,77;-2,02;-0,67;3,52;-1,25;0,00
5.172;-1,34;-1,35;0,62;-8,57;6,77;-2,02;-0,67;3,52;-1,25;0,00
5.212;-1,34;-1,35;0,62;-8,57;6,77;-2,02;-0,10;3,63;0,22;0,00
5.213;-1,34;-1,35;0,62;-13,21;-1,98;4,42;-0,10;3,63;0,22;0,00
5.242;-1,19;-1,58;1,11;-13,21;-1,98;4,42;-0,10;3,63;0,22;0,00
5.281;-1,19;-1,58;1,11;-13,62;-5,10;8,42;-0,10;3,63;0,22;0,00
5.282;-1,19;-1,58;1,11;-12,68;-4,98;8,22;-0,10;3,63;0,22;0,00
5.291;-1,19;-1,58;1,11;-12,68;-4,98;8,22;0,15;3,40;2,14;0,00
5.311;-0,65;-1,82;1,48;-12,68;-4,98;8,22;0,15;3,40;2,14;0,00
5.356;-0,65;-1,82;1,48;-6,67;-7,57;13,12;0,15;3,40;2,14;0,00
5.358;-0,65;-1,82;1,48;-5,44;-7,65;12,98;0,15;3,40;2,14;0,00
5.372;-0,65;-1,82;1,48;-5,44;-7,65;12,98;0,90;5,73;2,89;0,00
5.379;-0,64;-2,36;2,24;-5,44;-7,65;12,98;0,90;5,73;2,89;0,00
5.41;-0,64;-2,36;2,24;-5,44;-7,65;12,98;1,12;4,96;3,77;0,00
5.419;-0,64;-2,36;2,24;-2,97;-11,67;18,69;1,12;4,96;3,77;0,00
5.42;-0,64;-2,36;2,24;-1,55;-12,17;18,75;1,12;4,96;3,77;0,00
5.448;-0,23;-1,63;1,52;-1,55;-12,17;18,75;1,12;4,96;3,77;0,00
5.488;-0,23;-1,63;1,52;-1,55;-12,17;18,75;1,86;3,61;3,36;0,00
5.49;-0,23;-1,63;1,52;2,70;-12,47;19,15;1,86;3,61;3,36;0,00
5.518;-0,56;-0,92;0,77;2,70;-12,47;19,15;1,86;3,61;3,36;0,00
5.557;-0,56;-0,92;0,77;3,45;-3,42;10,02;1,86;3,61;3,36;0,00
5.557;-0,56;-0,92;0,77;4,31;-4,43;10,54;1,86;3,61;3,36;0,00
5.566;-0,56;-0,92;0,77;4,31;-4,43;10,54;2,08;4,09;3,67;0,00
5.586;-0,45;-0,88;0,49;4,31;-4,43;10,54;2,08;4,09;3,67;0,00
5.606;-0,45;-0,88;0,49;4,31;-4,43;10,54;1,87;3,73;4,67;0,00
5.626;-0,45;-0,88;0,49;3,61;-3,22;6,36;1,87;3,73;4,67;0,00
5.627;-0,45;-0,88;0,49;4,09;-4,76;7,28;1,87;3,73;4,67;0,00
5.656;0,09;-0,92;0,58;4,09;-4,76;7,28;1,87;3,73;4,67;0,00
5.685;0,09;-0,92;0,58;4,09;-4,76;7,28;1,92;3,68;4,01;0,00
5.703;0,09;-0,92;0,58;7,54;-7,09;8,53;1,92;3,68;4,01;0,00
5.706;0,09;-0,92;0,58;7,08;-7,94;9,65;1,92;3,68;4,01;0,00
5.731;0,35;-0,73;0,59;7,08;-7,94;9,65;1,92;3,68;4,01;0,00
5.763;0,35;-0,73;0,59;7,08;-7,94;9,65;1,89;3,60;1,64;0,00
5.764;0,35;-0,73;0,59;11,08;-7,48;10,90;1,89;3,60;1,64;0,00
5.799;0,55;-0,46;0,34;11,08;-7,48;10,90;1,89;3,60;1,64;0,00
5.813;0,55;-0,46;0,34;11,08;-7,48;10,90;1,61;-0,70;-0,95;0,00
5.833;0,55;-0,46;0,34;12,15;-3,17;10,47;1,61;-0,70;-0,95;0,00
5.834;0,55;-0,46;0,34;12,10;-2,44;9,87;1,61;-0,70;-0,95;0,00
5.862;-0,30;-1,17;0,08;12,10;-2,44;9,87;1,61;-0,70;-0,95;0,00
5.883;-0,30;-1,17;0,08;12,10;-2,44;9,87;1,22;-3,46;-3,58;0,00
5.901;-0,30;-1,17;0,08;9,65;-4,40;5,56;1,22;-3,46;-3,58;0,00
5.902;-0,30;-1,17;0,08;9,37;-3,02;4,14;1,22;-3,46;-3,58;0,00
5.932;-1,44;-1,93;-0,32;9,37;-3,02;4,14;1,22;-3,46;-3,58;0,00
5.961;-1,44;-1,93;-0,32;9,37;-3,02;4,14;0,73;-3,39;-4,14;0,00
5.971;-1,44;-1,93;-0,32;-3,66;-10,61;0,03;0,73;-3,39;-4,14;0,00
5.972;-1,44;-1,93;-0,32;-4,58;-9,44;-0,52;0,73;-3,39;-4,14;0,00
6.0;-1,43;-1,81;0,01;-4,58;-9,44;-0,52;0,73;-3,39;-4,14;0,00
6.001;-1,43;-1,81;0,01;-4,58;-9,44;-0,52;-0,81;-4,47;-4,04;0,00
6.041;-1,43;-1,81;0,01;-10,92;-10,55;-2,04;-0,81;-4,47;-4,04;0,00
6.069;-1,03;-1,37;0,48;-10,92;-10,55;-2,04;-0,81;-4,47;-4,04;0,00
6.079;-1,03;-1,37;0,48;-10,92;-10,55;-2,04;-1,43;-5,57;-3,75;0,00
6.109;-1,03;-1,37;0,48;-7,14;-6,51;2,12;-1,43;-5,57;-3,75;0,00
6.111;-1,03;-1,37;0,48;-8,40;-5,99;2,05;-1,43;-5,57;-3,75;0,00
6.138;-1,20;-0,38;-0,24;-8,40;-5,99;2,05;-1,43;-5,57;-3,75;0,00
6.159;-1,20;-0,38;-0,24;-8,40;-5,99;2,05;0,33;-1,63;-2,86;0,00
6.178;-1,20;-0,38;-0,24;-9,99;0,65;1,98;0,33;-1,63;-2,86;0,00
6.179;-1,20;-0,38;-0,24;-10,77;0,67;1,62;0,33;-1,63;-2,86;0,00
6.207;-1,09;0,06;-0,34;-10,77;0,67;1,62;0,33;-1,63;-2,86;0,00
6.236;-1,09;0,06;-0,34;-10,77;0,67;1,62;-0,17;0,87;-1,14;0,00
6.246;-1,09;0,06;-0,34;-11,73;10,52;-5,73;-0,17;0,87;-1,14;0,00
6.247;-1,09;0,06;-0,34;-11,63;10,35;-5,49;-0,17;0,87;-1,14;0,00
6.276;-1,12;-0,35;0,01;-11,63;10,35;-5,49;-0,17;0,87;-1,14;0,00
6.277;-1,12;-0,35;0,01;-11,63;10,35;-5,49;-0,35;1,26;0,04;0,00
6.316;-1,12;-0,35;0,01;-9,09;8,33;-2,32;-0,35;1,26;0,04;0,00
6.345;-1,58;-1,05;0,65;-9,09;8,33;-2,32;-0,35;1,26;0,04;0,00
6.355;-1,58;-1,05;0,65;-9,09;8,33;-2,32;-0,38;1,57;0,80;0,00
6.385;-1,58;-1,05;0,65;-12,97;1,74;3,45;-0,38;1,57;0,80;0,00
6.385;-1,58;-1,05;0,65;-12,40;1,67;3,54;-0,38;1,57;0,80;0,00
6.414;-1,89;-1,97;1,10;-12,40;1,67;3,54;-0,38;1,57;0,80;0,00
6.434;-1,89;-1,97;1,10;-12,40;1,67;3,54;0,30;2,19;2,41;0,00
6.454;-1,89;-1,97;1,10;-14,32;-6,67;8,93;0,30;2,19;2,41;0,00
6.455;-1,89;-1,97;1,10;-12,86;-7,01;8,83;0,30;2,19;2,41;0,00
6.473;-1,89;-1,97;1,10;-12,86;-7,01;8,83;1,32;2,30;4,29;0,00
6.483;-1,59;-2,45;1,07;-12,86;-7,01;8,83;1,32;2,30;4,29;0,00
6.523;-1,59;-2,45;1,07;-12,65;-15,11;10,88;1,32;2,30;4,29;0,00
6.523;-1,59;-2,45;1,07;-10,90;-16,25;10,67;1,32;2,30;4,29;0,00
6.552;-1,59;-2,45;1,07;-10,90;-16,25;10,67;2,14;2,84;5,27;0,00
6.553;-0,61;-2,54;1,18;-10,90;-16,25;10,67;2,14;2,84;5,27;0,00
6.591;-0,61;-2,54;1,18;-0,82;-17,72;9,18;2,14;2,84;5,27;0,00
6.622;-0,14;-1,73;1,15;-0,82;-17,72;9,18;2,14;2,84;5,27;0,00
6.632;-0,14;-1,73;1,15;-0,82;-17,72;9,18;2,40;4,55;4,27;0,00
6.663;-0,14;-1,73;1,15;7,27;-18,81;13,34;2,40;4,55;4,27;0,00
6.665;-0,14;-1,73;1,15;7,31;-19,62;14,78;2,40;4,55;4,27;0,00
6.685;-0,14;-1,73;1,15;7,31;-19,62;14,78;2,34;3,64;3,18;0,00
6.689;0,10;-0,71;0,53;7,31;-19,62;14,78;2,34;3,64;3,18;0,00
6.73;0,10;-0,71;0,53;9,00;-7,84;10,95;2,34;3,64;3,18;0,00
6.731;0,10;-0,71;0,53;8,95;-8,51;11,00;2,34;3,64;3,18;0,00
6.749;0,10;-0,71;0,53;8,95;-8,51;11,00;2,24;1,46;2,63;0,00
6.761;0,24;-0,57;0,19;8,95;-8,51;11,00;2,24;1,46;2,63;0,00
6.799;0,24;-0,57;0,19;11,68;-4,25;6,12;2,24;1,46;2,63;0,00
6.799;0,24;-0,57;0,19;11,21;-4,61;6,80;2,24;1,46;2,63;0,00
6.828;0,24;-0,57;0,19;11,21;-4,61;6,80;2,45;2,22;2,10;0,00
6.829;0,35;-0,55;-0,06;11,21;-4,61;6,80;2,45;2,22;2,10;0,00
6.868;0,35;-0,55;-0,06;11,21;-4,61;6,80;1,61;1,54;0,70;0,00
6.869;0,35;-0,55;-0,06;10,75;-5,06;5,07;1,61;1,54;0,70;0,00
6.897;0,28;-0,54;-0,07;10,75;-5,06;5,07;1,61;1,54;0,70;0,00
6.936;0,28;-0,54;-0,07;12,15;-3,82;3,47;1,61;1,54;0,70;0,00
6.937;0,28;-0,54;-0,07;11,71;-3,58;3,74;1,61;1,54;0,70;0,00
6.946;0,28;-0,54;-0,07;11,71;-3,58;3,74;0,54;-0,38;-0,73;0,00
6.966;0,03;-0,66;-0,24;11,71;-3,58;3,74;0,54;-0,38;-0,73;0,00
7.005;0,03;-0,66;-0,24;8,37;-4,00;3,52;0,54;-0,38;-0,73;0,00
7.006;0,03;-0,66;-0,24;8,59;-3,18;2,39;0,54;-0,38;-0,73;0,00
7.025;0,03;-0,66;-0,24;8,59;-3,18;2,39;-1,15;-4,14;-3,33;0,00
7.034;-1,06;-1,58;-0,08;8,59;-3,18;2,39;-1,15;-4,14;-3,33;0,00
7.075;-1,06;-1,58;-0,08;3,09;-7,18;-0,24;-1,15;-4,14;-3,33;0,00
7.077;-1,06;-1,58;-0,08;2,46;-5,73;-1,18;-1,15;-4,14;-3,33;0,00
7.104;-1,87;-2,23;0,35;2,46;-5,73;-1,18;-1,15;-4,14;-3,33;0,00
7.105;-1,87;-2,23;0,35;2,46;-5,73;-1,18;-2,89;-4,94;-5,25;0,00
7.143;-1,87;-2,23;0,35;-9,63;-13,83;2,57;-2,89;-4,94;-5,25;0,00
7.144;-1,87;-2,23;0,35;-9,63;-13,83;2,57;-2,26;-3,76;-5,39;0,00
7.173;-1,51;-1,66;0,54;-9,63;-13,83;2,57;-2,26;-3,76;-5,39;0,00
7.212;-1,51;-1,66;0,54;-13,31;-11,36;5,52;-2,26;-3,76;-5,39;0,00
7.213;-1,51;-1,66;0,54;-14,39;-10,50;5,13;-2,26;-3,76;-5,39;0,00
7.222;-1,51;-1,66;0,54;-14,39;-10,50;5,13;-1,78;-5,39;-4,00;0,00
7.243;-1,05;-0,73;0,28;-14,39;-10,50;5,13;-1,78;-5,39;-4,00;0,00
7.282;-1,05;-0,73;0,28;-8,35;-1,97;4,49;-1,78;-5,39;-4,00;0,00
7.283;-1,05;-0,73;0,28;-9,19;-1,71;4,43;-1,78;-5,39;-4,00;0,00
7.301;-1,05;-0,73;0,28;-9,19;-1,71;4,43;-0,47;-1,76;-2,63;0,00
7.311;-0,97;0,06;-0,19;-9,19;-1,71;4,43;-0,47;-1,76;-2,63;0,00
7.342;-0,97;0,06;-0,19;-9,19;-1,71;4,43;-0,46;-0,32;-1,78;0,00
7.356;-0,97;0,06;-0,19;-8,59;7,45;-0,50;-0,46;-0,32;-1,78;0,00
7.358;-0,97;0,06;-0,19;-9,07;7,38;-0,29;-0,46;-0,32;-1,78;0,00
7.38;-0,92;-0,07;-0,01;-9,07;7,38;-0,29;-0,46;-0,32;-1,78;0,00
7.419;-0,92;-0,07;-0,01;-9,07;7,38;-0,29;-0,47;1,07;-0,51;0,00
7.42;-0,92;-0,07;-0,01;-8,68;10,44;-0,68;-0,47;1,07;-0,51;0,00
7.449;-1,08;-0,79;0,42;-8,68;10,44;-0,68;-0,47;1,07;-0,51;0,00
7.488;-1,08;-0,79;0,42;-8,74;4,86;2,53;-0,47;1,07;-0,51;0,00
7.49;-1,08;-0,79;0,42;-8,50;4,77;2,53;-0,47;1,07;-0,51;0,00
7.506;-1,08;-0,79;0,42;-8,50;4,77;2,53;0,07;1,63;0,44;0,00
7.517;-1,18;-1,32;0,75;-8,50;4,77;2,53;0,07;1,63;0,44;0,00
7.537;-1,18;-1,32;0,75;-8,50;4,77;2,53;0,83;0,32;1,82;0,00
7.558;-1,18;-1,32;0,75;-10,57;-1,36;6,88;0,83;0,32;1,82;0,00
7.56;-1,18;-1,32;0,75;-9,68;-1,46;6,46;0,83;0,32;1,82;0,00
7.587;-1,33;-1,86;0,67;-9,68;-1,46;6,46;0,83;0,32;1,82;0,00
7.616;-1,33;-1,86;0,67;-9,68;-1,46;6,46;1,78;1,37;3,15;0,00
7.627;-1,33;-1,86;0,67;-8,91;-8,13;6,27;1,78;1,37;3,15;0,00
7.627;-1,33;-1,86;0,67;-7,57;-8,58;5,73;1,78;1,37;3,15;0,00
7.656;-0,83;-2,03;0,52;-7,57;-8,58;5,73;1,78;1,37;3,15;0,00
7.695;-0,83;-2,03;0,52;-7,57;-8,58;5,73;1,88;1,95;3,92;0,00
7.696;-0,83;-2,03;0,52;-4,86;-10,27;3,66;1,88;1,95;3,92;0,00
7.725;-0,49;-2,08;0,90;-4,86;-10,27;3,66;1,88;1,95;3,92;0,00
7.734;-0,49;-2,08;0,90;-4,86;-10,27;3,66;1,84;3,44;3,27;0,00
7.764;-0,49;-2,08;0,90;1,49;-15,47;6,68;1,84;3,44;3,27;0,00
7.765;-0,49;-2,08;0,90;2,39;-16,26;7,17;1,84;3,44;3,27;0,00
7.793;-0,17;-1,12;0,46;2,39;-16,26;7,17;1,84;3,44;3,27;0,00
7.813;-0,17;-1,12;0,46;2,39;-16,26;7,17;2,05;2,89;2,64;0,00
7.833;-0,17;-1,12;0,46;6,02;-9,83;6,60;2,05;2,89;2,64;0,00
7.834;-0,17;-1,12;0,46;6,39;-10,56;7,09;2,05;2,89;2,64;0,00
7.863;-0,10;-0,59;0,10;6,39;-10,56;7,09;2,05;2,89;2,64;0,00
7.893;-0,10;-0,59;0,10;6,39;-10,56;7,09;1,86;3,02;2,82;0,00
7.902;-0,10;-0,59;0,10;8,04;-3,44;2,82;1,86;3,02;2,82;0,00
7.902;-0,10;-0,59;0,10;8,13;-4,48;3,65;1,86;3,02;2,82;0,00
7.932;-0,10;-0,59;0,10;8,13;-4,48;3,65;1,37;2,44;2,98;0,00
7.933;0,21;-0,55;-0,00;8,13;-4,48;3,65;1,37;2,44;2,98;0,00
7.971;0,21;-0,55;-0,00;10,01;-3,76;2,98;1,37;2,44;2,98;0,00
8.001;0,25;-0,46;-0,08;10,01;-3,76;2,98;1,37;2,44;2,98;0,00
8.01;0,25;-0,46;-0,08;10,01;-3,76;2,98;0,96;2,41;1,66;0,00
8.039;0,25;-0,46;-0,08;11,44;-3,90;3,33;0,96;2,41;1,66;0,00
8.04;0,25;-0,46;-0,08;10,98;-4,16;3,97;0,96;2,41;1,66;0,00
8.07;0,03;-0,43;-0,26;10,98;-4,16;3,97;0,96;2,41;1,66;0,00
8.09;0,03;-0,43;-0,26;10,98;-4,16;3,97;-0,23;-0,39;-0,92;0,00
8.109;0,03;-0,43;-0,26;10,01;-2,96;1,75;-0,23;-0,39;-0,92;0,00
8.11;0,03;-0,43;-0,26;9,96;-2,47;1,34;-0,23;-0,39;-0,92;0,00
8.139;-0,56;-0,92;-0,15;9,96;-2,47;1,34;-0,23;-0,39;-0,92;0,00
8.168;-0,56;-0,92;-0,15;9,96;-2,47;1,34;-1,33;-2,87;-3,12;0,00
8.189;-0,56;-0,92;-0,15;5,89;-4,38;1,14;-1,33;-2,87;-3,12;0,00
8.19;-0,56;-0,92;-0,15;5,65;-3,17;0,27;-1,33;-2,87;-3,12;0,00
8.208;-1,34;-1,41;-0,04;5,65;-3,17;0,27;-1,33;-2,87;-3,12;0,00
8.209;-1,34;-1,41;-0,04;5,65;-3,17;0,27;-1,01;-2,51;-4,18;0,00
8.247;-1,34;-1,41;-0,04;-3,13;-7,35;0,84;-1,01;-2,51;-4,18;0,00
8.276;-1,37;-1,70;0,12;-3,13;-7,35;0,84;-1,01;-2,51;-4,18;0,00
8.286;-1,37;-1,70;0,12;-3,13;-7,35;0,84;-0,50;-0,98;-4,42;0,00
8.316;-1,37;-1,70;0,12;-7,00;-8,91;1,10;-0,50;-0,98;-4,42;0,00
8.317;-1,37;-1,70;0,12;-7,97;-7,76;0,99;-0,50;-0,98;-4,42;0,00
8.346;-1,13;-1,52;0,32;-7,97;-7,76;0,99;-0,50;-0,98;-4,42;0,00
8.365;-1,13;-1,52;0,32;-7,97;-7,76;0,99;-0,53;-1,90;-4,12;0,00
8.385;-1,13;-1,52;0,32;-7,52;-8,29;3,46;-0,53;-1,90;-4,12;0,00
8.386;-1,13;-1,52;0,32;-8,63;-7,57;3,30;-0,53;-1,90;-4,12;0,00
8.417;-1,13;-1,52;0,32;-8,63;-7,57;3,30;-0,03;-1,07;-2,88;0,00
8.419;-1,16;-0,68;0,17;-8,63;-7,57;3,30;-0,03;-1,07;-2,88;0,00
8.454;-1,16;-0,68;0,17;-8,65;-1,35;3,75;-0,03;-1,07;-2,88;0,00
8.456;-1,16;-0,68;0,17;-9,03;-1,18;3,48;-0,03;-1,07;-2,88;0,00
8.483;-0,73;-0,01;-0,10;-9,03;-1,18;3,48;-0,03;-1,07;-2,88;0,00
8.484;-0,73;-0,01;-0,10;-9,03;-1,18;3,48;0,33;-0,69;-0,85;0,00
8.523;-0,73;-0,01;-0,10;-6,92;7,77;-0,44;0,33;-0,69;-0,85;0,00
8.552;-0,53;-0,10;-0,03;-6,92;7,77;-0,44;0,33;-0,69;-0,85;0,00
8.562;-0,53;-0,10;-0,03;-6,92;7,77;-0,44;0,50;0,65;0,26;0,00
8.592;-0,53;-0,10;-0,03;-2,80;9,38;-0,22;0,50;0,65;0,26;0,00
8.594;-0,53;-0,10;-0,03;-2,71;9,21;-0,38;0,50;0,65;0,26;0,00
8.601;-0,53;-0,10;-0,03;-2,71;9,21;-0,38;1,30;2,50;-0,02;0,00
8.621;-0,89;-0,38;-0,15;-2,71;9,21;-0,38;1,30;2,50;-0,02;0,00
8.66;-0,89;-0,38;-0,15;-3,93;6,42;-1,73;1,30;2,50;-0,02;0,00
8.662;-0,89;-0,38;-0,15;-3,90;6,32;-1,78;1,30;2,50;-0,02;0,00
8.68;-0,89;-0,38;-0,15;-3,90;6,32;-1,78;0,40;1,63;-0,14;0,00
8.69;-1,08;-1,09;0,37;-3,90;6,32;-1,78;0,40;1,63;-0,14;0,00
8.73;-1,08;-1,09;0,37;-7,91;1,48;0,59;0,40;1,63;-0,14;0,00
8.731;-1,08;-1,09;0,37;-7,82;1,47;0,62;0,40;1,63;-0,14;0,00
8.759;-1,08;-1,09;0,37;-7,82;1,47;0,62;0,36;1,82;-0,15;0,00
8.76;-0,89;-1,48;0,73;-7,82;1,47;0,62;0,36;1,82;-0,15;0,00
8.798;-0,89;-1,48;0,73;-7,82;1,47;0,62;0,88;5,26;0,39;0,00
8.799;-0,89;-1,48;0,73;-6,32;-3,69;5,65;0,88;5,26;0,39;0,00
8.828;-1,12;-1,71;1,44;-6,32;-3,69;5,65;0,88;5,26;0,39;0,00
8.867;-1,12;-1,71;1,44;-6,70;-8,07;11,69;0,88;5,26;0,39;0,00
8.868;-1,12;-1,71;1,44;-6,25;-8,06;11,52;0,88;5,26;0,39;0,00
8.883;-1,12;-1,71;1,44;-6,25;-8,06;11,52;2,09;5,38;1,65;0,00
8.897;-0,88;-1,83;1,80;-6,25;-8,06;11,52;2,09;5,38;1,65;0,00
8.937;-0,88;-1,83;1,80;-5,12;-7,92;14,65;2,09;5,38;1,65;0,00
8.938;-0,88;-1,83;1,80;-4,03;-8,37;14,77;2,09;5,38;1,65;0,00
8.956;-0,88;-1,83;1,80;-4,03;-8,37;14,77;2,07;4,62;2,99;0,00
8.967;-0,27;-1,15;1,39;-4,03;-8,37;14,77;2,07;4,62;2,99;0,00
9.006;-0,27;-1,15;1,39;0,40;-7,79;17,50;2,07;4,62;2,99;0,00
9.007;-0,27;-1,15;1,39;1,21;-8,44;17,42;2,07;4,62;2,99;0,00
9.035;-0,27;-1,15;1,39;1,21;-8,44;17,42;2,47;3,36;2,68;0,00
9.036;0,18;-0,28;0,41;1,21;-8,44;17,42;2,47;3,36;2,68;0,00
9.075;0,18;-0,28;0,41;1,21;-8,44;17,42;2,32;3,39;2,05;0,00
9.076;0,18;-0,28;0,41;9,12;0,90;7,20;2,32;3,39;2,05;0,00
9.104;0,00;-0,13;0,05;9,12;0,90;7,20;2,32;3,39;2,05;0,00
9.143;0,00;-0,13;0,05;9,15;4,67;1,89;2,32;3,39;2,05;0,00
9.144;0,00;-0,13;0,05;9,38;3,95;2,31;2,32;3,39;2,05;0,00
9.153;0,00;-0,13;0,05;9,38;3,95;2,31;2,17;2,69;2,09;0,00
9.173;-0,17;-0,40;0,16;9,38;3,95;2,31;2,17;2,69;2,09;0,00
9.212;-0,17;-0,40;0,16;7,49;1,83;1,80;2,17;2,69;2,09;0,00
9.224;-0,17;-0,40;0,16;7,53;1,41;1,97;2,17;2,69;2,09;0,00
9.232;-0,17;-0,40;0,16;7,53;1,41;1,97;1,73;1,40;1,25;0,00
9.242;-0,28;-0,71;0,21;7,53;1,41;1,97;1,73;1,40;1,25;0,00
9.272;-0,28;-0,71;0,21;7,53;1,41;1,97;1,42;2,14;-1,06;0,00
9.282;-0,28;-0,71;0,21;6,31;-1,95;3,65;1,42;2,14;-1,06;0,00
9.283;-0,28;-0,71;0,21;5,83;-1,41;4,11;1,42;2,14;-1,06;0,00
9.311;-0,43;-1,10;0,33;5,83;-1,41;4,11;1,42;2,14;-1,06;0,00
9.35;-0,43;-1,10;0,33;5,83;-1,41;4,11;0,82;-0,84;-2,83;0,00
9.351;-0,43;-1,10;0,33;3,78;-2,95;4,40;0,82;-0,84;-2,83;0,00
9.38;-0,49;-1,98;0,31;3,78;-2,95;4,40;0,82;-0,84;-2,83;0,00
9.419;-0,49;-1,98;0,31;2,83;-9,73;5,35;0,82;-0,84;-2,83;0,00
9.421;-0,49;-1,98;0,31;1,60;-8,48;4,38;0,82;-0,84;-2,83;0,00
9.429;-0,49;-1,98;0,31;1,60;-8,48;4,38;0,98;-1,98;-4,32;0,00
9.454;-1,27;-1,94;-0,00;1,60;-8,48;4,38;0,98;-1,98;-4,32;0,00
9.468;-1,27;-1,94;-0,00;1,60;-8,48;4,38;0,51;-1,26;-2,13;0,00
9.488;-1,27;-1,94;-0,00;-5,27;-11,44;0,16;0,51;-1,26;-2,13;0,00
9.49;-1,27;-1,94;-0,00;-5,88;-10,95;-0,21;0,51;-1,26;-2,13;0,00
9.518;-0,79;-1,23;-0,09;-5,88;-10,95;-0,21;0,51;-1,26;-2,13;0,00
9.548;-0,79;-1,23;-0,09;-5,88;-10,95;-0,21;-0,38;-3,86;-0,69;0,00
9.557;-0,79;-1,23;-0,09;-6,90;-5,97;-1,38;-0,38;-3,86;-0,69;0,00
9.558;-0,79;-1,23;-0,09;-7,07;-5,81;-1,63;-0,38;-3,86;-0,69;0,00
9.587;-0,78;-0,45;0,15;-7,07;-5,81;-1,63;-0,38;-3,86;-0,69;0,00
9.626;-0,78;-0,45;0,15;-7,07;-5,81;-1,63;-0,37;-4,36;0,05;0,00
9.627;-0,78;-0,45;0,15;-4,38;2,20;-2,28;-0,37;-4,36;0,05;0,00
9.656;-0,60;0,18;-0,21;-4,38;2,20;-2,28;-0,37;-4,36;0,05;0,00
9.667;-0,60;0,18;-0,21;-4,38;2,20;-2,28;0,66;-0,68;0,05;0,00
9.695;-0,60;0,18;-0,21;-4,06;8,81;-0,96;0,66;-0,68;0,05;0,00
9.695;-0,60;0,18;-0,21;-4,02;8,59;-1,25;0,66;-0,68;0,05;0,00
9.725;-0,67;0,04;-0,29;-4,02;8,59;-1,25;0,66;-0,68;0,05;0,00
9.745;-0,67;0,04;-0,29;-4,02;8,59;-1,25;0,12;2,37;-0,18;0,00
9.764;-0,67;0,04;-0,29;-3,13;11,39;-5,57;0,12;2,37;-0,18;0,00
9.765;-0,67;0,04;-0,29;-3,02;11,23;-5,23;0,12;2,37;-0,18;0,00
9.794;-0,85;-0,72;0,03;-3,02;11,23;-5,23;0,12;2,37;-0,18;0,00
9.829;-0,85;-0,72;0,03;-3,02;11,23;-5,23;-0,23;2,77;-0,21;0,00
9.833;-0,85;-0,72;0,03;-3,71;5,59;-2,90;-0,23;2,77;-0,21;0,00
9.834;-0,85;-0,72;0,03;-3,59;5,54;-2,30;-0,23;2,77;-0,21;0,00
9.862;-1,32;-1,23;0,60;-3,59;5,54;-2,30;-0,23;2,77;-0,21;0,00
9.902;-1,32;-1,23;0,60;-3,59;5,54;-2,30;-0,09;2,60;-0,06;0,00
9.903;-1,32;-1,23;0,60;-7,63;-1,92;3,29;-0,09;2,60;-0,06;0,00
9.932;-1,46;-1,65;0,80;-7,63;-1,92;3,29;-0,09;2,60;-0,06;0,00
9.942;-1,46;-1,65;0,80;-7,63;-1,92;3,29;0,51;1,58;1,04;0,00
9.971;-1,46;-1,65;0,80;-9,84;-5,74;6,85;0,51;1,58;1,04;0,00
9.972;-1,46;-1,65;0,80;-9,24;-5,85;6,80;0,51;1,58;1,04;0,00
10.001;-1,19;-1,76;0,62;-9,24;-5,85;6,80;0,51;1,58;1,04;0,00
10.021;-1,19;-1,76;0,62;-9,24;-5,85;6,80;1,36;3,25;2,90;0,00
10.04;-1,19;-1,76;0,62;-8,33;-8,44;6,58;1,36;3,25;2,90;0,00
10.04;-1,19;-1,76;0,62;-7,11;-9,12;6,84;1,36;3,25;2,90;0,00
10.069;-0,43;-2,11;1,02;-7,11;-9,12;6,84;1,36;3,25;2,90;0,00
10.099;-0,43;-2,11;1,02;-7,11;-9,12;6,84;0,97;3,48;3,40;0,00
10.109;-0,43;-2,11;1,02;0,82;-13,08;8,47;0,97;3,48;3,40;0,00
10.11;-0,43;-2,11;1,02;1,39;-13,73;9,32;0,97;3,48;3,40;0,00
10.138;-0,43;-2,11;1,02;1,39;-13,73;9,32;1,04;3,27;2,38;0,00
10.139;-0,01;-0,99;0,79;1,39;-13,73;9,32;1,04;3,27;2,38;0,00
10.178;-0,01;-0,99;0,79;6,65;-9,29;11,60;1,04;3,27;2,38;0,00
10.207;0,37;-0,36;0,09;6,65;-9,29;11,60;1,04;3,27;2,38;0,00
10.217;0,37;-0,36;0,09;6,65;-9,29;11,60;1,19;0,87;1,40;0,00
10.247;0,37;-0,36;0,09;11,40;-0,17;5,53;1,19;0,87;1,40;0,00
10.248;0,37;-0,36;0,09;11,35;-0,42;5,48;1,19;0,87;1,40;0,00
10.277;0,15;-0,19;-0,09;11,35;-0,42;5,48;1,19;0,87;1,40;0,00
10.296;0,15;-0,19;-0,09;11,35;-0,42;5,48;1,10;1,81;1,02;0,00
10.316;0,15;-0,19;-0,09;10,57;2,72;1,80;1,10;1,81;1,02;0,00
10.317;0,15;-0,19;-0,09;10,51;2,38;1,91;1,10;1,81;1,02;0,00
10.335;0,15;-0,19;-0,09;10,51;2,38;1,91;0,79;-0,06;0,51;0,00
10.346;0,32;-0,50;-0,24;10,51;2,38;1,91;0,79;-0,06;0,51;0,00
10.385;0,32;-0,50;-0,24;10,97;1,16;0,13;0,79;-0,06;0,51;0,00
10.386;0,32;-0,50;-0,24;10,68;1,28;0,25;0,79;-0,06;0,51;0,00
10.414;-0,05;-1,06;-0,02;10,68;1,28;0,25;0,79;-0,06;0,51;0,00
10.415;-0,05;-1,06;-0,02;10,68;1,28;0,25;0,21;0,25;-0,90;0,00
10.454;-0,05;-1,06;-0,02;9,05;-3,29;0,90;0,21;0,25;-0,90;0,00
10.487;-0,37;-1,75;0,05;9,05;-3,29;0,90;0,21;0,25;-0,90;0,00
10.508;-0,37;-1,75;0,05;9,05;-3,29;0,90;-0,59;-2,83;-3,07;0,00
10.523;-0,37;-1,75;0,05;5,04;-7,72;2,03;-0,59;-2,83;-3,07;0,00
10.523;-0,37;-1,75;0,05;4,16;-6,57;1,18;-0,59;-2,83;-3,07;0,00
10.534;-0,37;-1,75;0,05;4,16;-6,57;1,18;-2,03;-4,21;-4,47;0,00
10.553;-1,49;-2,04;0,60;4,16;-6,57;1,18;-2,03;-4,21;-4,47;0,00
10.592;-1,49;-2,04;0,60;-5,18;-13,64;4,47;-2,03;-4,21;-4,47;0,00
10.593;-1,49;-2,04;0,60;-6,14;-12,82;3,95;-2,03;-4,21;-4,47;0,00
10.611;-1,49;-2,04;0,60;-6,14;-12,82;3,95;-1,19;-4,75;-2,51;0,00
10.621;-1,01;-1,71;0,29;-6,14;-12,82;3,95;-1,19;-4,75;-2,51;0,00
10.661;-1,01;-1,71;0,29;-8,82;-7,51;2,64;-1,19;-4,75;-2,51;0,00
10.661;-1,01;-1,71;0,29;-9,27;-7,17;2,87;-1,19;-4,75;-2,51;0,00
10.69;-1,01;-1,71;0,29;-9,27;-7,17;2,87;-1,31;-1,96;-1,35;0,00
10.691;-1,04;-1,07;0,60;-9,27;-7,17;2,87;-1,31;-1,96;-1,35;0,00
10.73;-1,04;-1,07;0,60;-7,23;-4,10;5,29;-1,31;-1,96;-1,35;0,00
10.76;-0,74;-0,10;0,04;-7,23;-4,10;5,29;-1,31;-1,96;-1,35;0,00
10.769;-0,74;-0,10;0,04;-7,23;-4,10;5,29;-0,17;-2,08;-0,50;0,00
10.799;-0,74;-0,10;0,04;-5,95;4,59;2,98;-0,17;-2,08;-0,50;0,00
10.8;-0,74;-0,10;0,04;-6,04;4,54;2,65;-0,17;-2,08;-0,50;0,00
10.81;-0,74;-0,10;0,04;-6,04;4,54;2,65;0,29;-0,04;-0,33;0,00
10.828;-0,72;0,30;-0,25;-6,04;4,54;2,65;0,29;-0,04;-0,33;0,00
10.868;-0,72;0,30;-0,25;-4,21;12,71;-3,34;0,29;-0,04;-0,33;0,00
10.87;-0,72;0,30;-0,25;-3,97;12,46;-3,05;0,29;-0,04;-0,33;0,00
10.887;-0,72;0,30;-0,25;-3,97;12,46;-3,05;-0,03;1,87;0,50;0,00
10.897;-0,74;-0,28;-0,08;-3,97;12,46;-3,05;-0,03;1,87;0,50;0,00
10.941;-0,74;-0,28;-0,08;-3,88;9,13;-1,67;-0,03;1,87;0,50;0,00
10.942;-0,74;-0,28;-0,08;-3,62;8,91;-1,53;-0,03;1,87;0,50;0,00
10.966;-0,74;-0,28;-0,08;-3,62;8,91;-1,53;0,27;1,63;0,54;0,00
10.967;-1,05;-0,88;0,19;-3,62;8,91;-1,53;0,27;1,63;0,54;0,00
11.006;-1,05;-0,88;0,19;-5,25;2,46;0,71;0,27;1,63;0,54;0,00
11.006;-1,05;-0,88;0,19;-5,25;2,46;0,71;0,38;0,82;0,89;0,00
11.035;-0,95;-1,07;0,30;-5,25;2,46;0,71;0,38;0,82;0,89;0,00
11.075;-0,95;-1,07;0,30;-5,90;-1,33;2,84;0,38;0,82;0,89;0,00
11.075;-0,95;-1,07;0,30;-5,48;-1,47;2,75;0,38;0,82;0,89;0,00
11.085;-0,95;-1,07;0,30;-5,48;-1,47;2,75;0,66;1,45;0,89;0,00
11.104;-0,99;-1,39;0,44;-5,48;-1,47;2,75;0,66;1,45;0,89;0,00
11.143;-0,99;-1,39;0,44;-4,55;-3,68;3,28;0,66;1,45;0,89;0,00
11.145;-0,99;-1,39;0,44;-4,23;-3,76;3,37;0,66;1,45;0,89;0,00
11.165;-0,99;-1,39;0,44;-4,23;-3,76;3,37;1,15;2,78;0,74;0,00
11.19;-1,01;-1,86;0,67;-4,23;-3,76;3,37;1,15;2,78;0,74;0,00
11.204;-1,01;-1,86;0,67;-4,23;-3,76;3,37;0,97;4,69;1,61;0,00
11.213;-1,01;-1,86;0,67;-4,12;-7,31;4,84;0,97;4,69;1,61;0,00
11.214;-1,01;-1,86;0,67;-3,63;-7,56;5,54;0,97;4,69;1,61;0,00
11.242;-0,66;-1,84;1,07;-3,63;-7,56;5,54;0,97;4,69;1,61;0,00
11.285;-0,66;-1,84;1,07;-2,30;-12,88;12,32;0,97;4,69;1,61;0,00
11.286;-0,66;-1,84;1,07;-2,30;-12,88;12,32;1,26;3,02;2,09;0,00
11.311;-0,12;-0,75;0,43;-2,30;-12,88;12,32;1,26;3,02;2,09;0,00
11.351;-0,12;-0,75;0,43;4,27;-4,19;7,98;1,26;3,02;2,09;0,00
11.352;-0,12;-0,75;0,43;4,53;-4,52;8,17;1,26;3,02;2,09;0,00
11.36;-0,12;-0,75;0,43;4,53;-4,52;8,17;1,21;2,31;1,77;0,00
11.381;0,08;-0,22;0,03;4,53;-4,52;8,17;1,21;2,31;1,77;0,00
11.399;0,08;-0,22;0,03;4,53;-4,52;8,17;1,24;2,40;1,87;0,00
11.419;0,08;-0,22;0,03;7,49;3,12;3,61;1,24;2,40;1,87;0,00
11.42;0,08;-0,22;0,03;7,63;2,62;3,96;1,24;2,40;1,87;0,00
11.449;0,19;-0,33;-0,03;7,63;2,62;3,96;1,24;2,40;1,87;0,00
11.479;0,19;-0,33;-0,03;7,63;2,62;3,96;0,95;2,05;1,52;0,00
11.49;0,19;-0,33;-0,03;8,92;3,21;2,37;0,95;2,05;1,52;0,00
11.492;0,19;-0,33;-0,03;8,84;2,86;2,72;0,95;2,05;1,52;0,00
11.518;0,08;-0,69;-0,03;8,84;2,86;2,72;0,95;2,05;1,52;0,00
11.557;0,08;-0,69;-0,03;8,84;2,86;2,72;0,97;1,55;0,30;0,00
11.558;0,08;-0,69;-0,03;9,20;0,30;2,98;0,97;1,55;0,30;0,00
11.588;-0,27;-1,18;-0,11;9,20;0,30;2,98;0,97;1,55;0,30;0,00
11.626;-0,27;-1,18;-0,11;5,74;-4,62;2,85;0,97;1,55;0,30;0,00
11.627;-0,27;-1,18;-0,11;5,30;-3,94;2,42;0,97;1,55;0,30;0,00
11.636;-0,27;-1,18;-0,11;5,30;-3,94;2,42;0,33;-1,18;-2,18;0,00
11.656;-0,43;-1,44;0,01;5,30;-3,94;2,42;0,33;-1,18;-2,18;0,00
11.675;-0,43;-1,44;0,01;5,30;-3,94;2,42;-0,15;-2,03;-3,91;0,00
11.696;-0,43;-1,44;0,01;2,24;-5,76;1,23;-0,15;-2,03;-3,91;0,00
11.697;-0,43;-1,44;0,01;1,20;-4,83;0,82;-0,15;-2,03;-3,91;0,00
11.726;-0,60;-1,99;-0,12;1,20;-4,83;0,82;-0,15;-2,03;-3,91;0,00
11.755;-0,60;-1,99;-0,12;1,20;-4,83;0,82;0,64;-1,35;-4,20;0,00
11.766;-0,60;-1,99;-0,12;-1,47;-7,78;1,63;0,64;-1,35;-4,20;0,00
11.767;-0,60;-1,99;-0,12;-2,88;-7,17;1,33;0,64;-1,35;-4,20;0,00
11.794;-1,06;-1,83;0,13;-2,88;-7,17;1,33;0,64;-1,35;-4,20;0,00
11.834;-1,06;-1,83;0,13;-2,88;-7,17;1,33;0,39;-0,33;-3,28;0,00
11.835;-1,06;-1,83;0,13;-7,68;-10,92;0,84;0,39;-0,33;-3,28;0,00
11.863;-0,97;-0,74;0,03;-7,68;-10,92;0,84;0,39;-0,33;-3,28;0,00
11.872;-0,97;-0,74;0,03;-7,68;-10,92;0,84;0,29;-0,58;-0,62;0,00
11.902;-0,97;-0,74;0,03;-10,29;-1,74;1,40;0,29;-0,58;-0,62;0,00
11.903;-0,97;-0,74;0,03;-10,21;-1,70;1,28;0,29;-0,58;-0,62;0,00
11.933;-0,48;-0,10;-0,27;-10,21;-1,70;1,28;0,29;-0,58;-0,62;0,00
11.951;-0,48;-0,10;-0,27;-10,21;-1,70;1,28;0,37;-0,41;0,73;0,00
11.971;-0,48;-0,10;-0,27;-5,47;6,73;-0,34;0,37;-0,41;0,73;0,00
11.972;-0,48;-0,10;-0,27;-5,12;6,60;-0,49;0,37;-0,41;0,73;0,00
12.001;-0,75;-0,10;-0,21;-5,12;6,60;-0,49;0,37;-0,41;0,73;0,00
12.031;-0,75;-0,10;-0,21;-5,12;6,60;-0,49;0,08;0,73;0,28;0,00
12.04;-0,75;-0,10;-0,21;-3,99;9,41;-2,73;0,08;0,73;0,28;0,00
12.041;-0,75;-0,10;-0,21;-3,71;9,22;-2,70;0,08;0,73;0,28;0,00
12.07;-0,75;-0,10;-0,21;-3,71;9,22;-2,70;0,33;2,09;1,05;0,00
12.072;-1,03;-0,59;0,22;-3,71;9,22;-2,70;0,33;2,09;1,05;0,00
12.109;-1,03;-0,59;0,22;-7,19;6,35;0,15;0,33;2,09;1,05;0,00
12.138;-1,23;-1,15;0,99;-7,19;6,35;0,15;0,33;2,09;1,05;0,00
12.148;-1,23;-1,15;0,99;-7,19;6,35;0,15;0,69;2,52;1,43;0,00
12.179;-1,23;-1,15;0,99;-8,97;-0,35;6,94;0,69;2,52;1,43;0,00
12.18;-1,23;-1,15;0,99;-8,26;-0,53;6,80;0,69;2,52;1,43;0,00
12.209;-0,94;-1,47;1,53;-8,26;-0,53;6,80;0,69;2,52;1,43;0,00
12.227;-0,94;-1,47;1,53;-8,26;-0,53;6,80;1,62;3,02;2,26;0,00
12.247;-0,94;-1,47;1,53;-5,63;-4,89;12,66;1,62;3,02;2,26;0,00
12.248;-0,94;-1,47;1,53;-4,80;-5,21;12,45;1,62;3,02;2,26;0,00
12.267;-0,94;-1,47;1,53;-4,80;-5,21;12,45;3,12;4,04;2,66;0,00
12.277;-0,92;-1,75;1,57;-4,80;-5,21;12,45;3,12;4,04;2,66;0,00
12.316;-0,92;-1,75;1,57;-3,90;-7,61;16,32;3,12;4,04;2,66;0,00
12.316;-0,92;-1,75;1,57;-2,87;-8,35;15,95;3,12;4,04;2,66;0,00
12.346;-0,92;-1,75;1,57;-2,87;-8,35;15,95;3,77;4,28;2,93;0,00
12.349;-0,42;-1,70;0,87;-2,87;-8,35;15,95;3,77;4,28;2,93;0,00
12.385;-0,42;-1,70;0,87;1,60;-11,55;9,96;3,77;4,28;2,93;0,00
12.415;-0,01;-1,04;0,41;1,60;-11,55;9,96;3,77;4,28;2,93;0,00
12.424;-0,01;-1,04;0,41;1,60;-11,55;9,96;3,03;3,56;1,81;0,00
12.454;-0,01;-1,04;0,41;7,19;-8,02;5,78;3,03;3,56;1,81;0,00
12.455;-0,01;-1,04;0,41;7,28;-8,19;6,20;3,03;3,56;1,81;0,00
12.484;-0,06;-0,42;0,01;7,28;-8,19;6,20;3,03;3,56;1,81;0,00
12.503;-0,06;-0,42;0,01;7,28;-8,19;6,20;2,22;3,15;-0,07;0,00
12.523;-0,06;-0,42;0,01;8,40;-0,26;1,94;2,22;3,15;-0,07;0,00
12.524;-0,06;-0,42;0,01;8,17;-0,16;2,31;2,22;3,15;-0,07;0,00
12.543;-0,06;-0,42;0,01;8,17;-0,16;2,31;1,28;1,83;-0,16;0,00
12.563;-0,14;-0,21;-0,16;8,17;-0,16;2,31;1,28;1,83;-0,16;0,00
12.593;-0,14;-0,21;-0,16;6,77;2,84;-0,16;1,28;1,83;-0,16;0,00
12.595;-0,14;-0,21;-0,16;6,63;2,77;0,12;1,28;1,83;-0,16;0,00
12.622;-0,14;-0,21;-0,16;6,63;2,77;0,12;0,40;1,21;0,19;0,00
12.622;-0,04;-0,58;0,05;6,63;2,77;0,12;0,40;1,21;0,19;0,00
12.661;-0,04;-0,58;0,05;6,73;2,65;0,96;0,40;1,21;0,19;0,00
12.69;-0,21;-1,08;0,45;6,73;2,65;0,96;0,40;1,21;0,19;0,00
12.701;-0,21;-1,08;0,45;6,73;2,65;0,96;0,02;0,78;-0,64;0,00
12.73;-0,21;-1,08;0,45;6,30;-3,81;4,87;0,02;0,78;-0,64;0,00
12.731;-0,21;-1,08;0,45;5,85;-3,33;4,81;0,02;0,78;-0,64;0,00
12.74;-0,21;-1,08;0,45;5,85;-3,33;4,81;0,58;-0,18;-1,81;0,00
12.759;-0,24;-1,26;0,33;5,85;-3,33;4,81;0,58;-0,18;-1,81;0,00
12.798;-0,24;-1,26;0,33;4,32;-4,47;5,37;0,58;-0,18;-1,81;0,00
12.799;-0,24;-1,26;0,33;3,53;-3,73;4,88;0,58;-0,18;-1,81;0,00
12.818;-0,24;-1,26;0,33;3,53;-3,73;4,88;0,12;-2,13;-3,13;0,00
12.828;-0,46;-1,64;0,30;3,53;-3,73;4,88;0,12;-2,13;-3,13;0,00
12.868;-0,46;-1,64;0,30;0,91;-6,30;3,53;0,12;-2,13;-3,13;0,00
12.868;-0,46;-1,64;0,30;-0,51;-5,57;2,91;0,12;-2,13;-3,13;0,00
12.898;-0,46;-1,64;0,30;-0,51;-5,57;2,91;0,05;-3,56;-4,13;0,00
12.899;-0,73;-2,09;0,10;-0,51;-5,57;2,91;0,05;-3,56;-4,13;0,00
12.936;-0,73;-2,09;0,10;-0,51;-5,57;2,91;0,06;-2,00;-3,52;0,00
12.937;-0,73;-2,09;0,10;-3,92;-8,43;1,19;0,06;-2,00;-3,52;0,00
12.967;-1,16;-1,58;0,17;-3,92;-8,43;1,19;0,06;-2,00;-3,52;0,00
13.006;-1,16;-1,58;0,17;-9,62;-9,76;0,23;0,06;-2,00;-3,52;0,00
13.007;-1,16;-1,58;0,17;-10,30;-9,60;0,17;0,06;-2,00;-3,52;0,00
13.015;-1,16;-1,58;0,17;-10,30;-9,60;0,17;0,16;-1,10;-1,32;0,00
13.037;-0,83;-0,86;0,16;-10,30;-9,60;0,17;0,16;-1,10;-1,32;0,00
13.075;-0,83;-0,86;0,16;-10,77;-0,95;1,67;0,16;-1,10;-1,32;0,00
13.076;-0,83;-0,86;0,16;-10,68;-0,96;1,36;0,16;-1,10;-1,32;0,00
13.094;-0,83;-0,86;0,16;-10,68;-0,96;1,36;0,78;-0,59;-0,10;0,00
13.105;-0,52;0,02;-0,48;-10,68;-0,96;1,36;0,78;-0,59;-0,10;0,00
13.134;-0,52;0,02;-0,48;-10,68;-0,96;1,36;0,16;0,92;0,41;0,00
13.144;-0,52;0,02;-0,48;-5,55;6,71;-3,82;0,16;0,92;0,41;0,00
13.145;-0,52;0,02;-0,48;-5,24;6,59;-3,80;0,16;0,92;0,41;0,00
13.173;-0,53;-0,08;-0,47;-5,24;6,59;-3,80;0,16;0,92;0,41;0,00
13.213;-0,53;-0,08;-0,47;-5,24;6,59;-3,80;-0,62;0,69;0,46;0,00
13.214;-0,53;-0,08;-0,47;-5,02;10,35;-6,06;-0,62;0,69;0,46;0,00
13.242;-0,57;-0,90;-0,08;-5,02;10,35;-6,06;-0,62;0,69;0,46;0,00
13.282;-0,57;-0,90;-0,08;-4,31;4,94;-4,11;-0,62;0,69;0,46;0,00
13.282;-0,57;-0,90;-0,08;-3,87;4,85;-3,56;-0,62;0,69;0,46;0,00
13.291;-0,57;-0,90;-0,08;-3,87;4,85;-3,56;-1,05;1,31;0,92;0,00
13.311;-0,89;-1,39;0,42;-3,87;4,85;-3,56;-1,05;1,31;0,92;0,00
13.351;-0,89;-1,39;0,42;-5,89;-2,60;2,35;-1,05;1,31;0,92;0,00
13.351;-0,89;-1,39;0,42;-5,31;-2,66;2,55;-1,05;1,31;0,92;0,00
13.37;-0,89;-1,39;0,42;-5,31;-2,66;2,55;-0,54;0,55;1,33;0,00
13.381;-0,92;-1,70;0,62;-5,31;-2,66;2,55;-0,54;0,55;1,33;0,00
13.411;-0,92;-1,70;0,62;-5,31;-2,66;2,55;0,61;0,71;2,40;0,00
13.42;-0,92;-1,70;0,62;-5,96;-6,77;6,32;0,61;0,71;2,40;0,00
13.421;-0,92;-1,70;0,62;-4,95;-7,00;6,04;0,61;0,71;2,40;0,00
13.451;-0,83;-1,67;0,40;-4,95;-7,00;6,04;0,61;0,71;2,40;0,00
13.489;-0,83;-1,67;0,40;-3,57;-7,91;4,22;0,61;0,71;2,40;0,00
13.49;-0,83;-1,67;0,40;-3,57;-7,91;4,22;1,17;1,40;2,97;0,00
13.518;-0,37;-1,77;0,61;-3,57;-7,91;4,22;1,17;1,40;2,97;0,00
13.558;-0,37;-1,77;0,61;0,23;-8,05;3,94;1,17;1,40;2,97;0,00
13.559;-0,37;-1,77;0,61;1,15;-8,70;4,02;1,17;1,40;2,97;0,00
13.568;-0,37;-1,77;0,61;1,15;-8,70;4,02;1,22;2,01;2,93;0,00
13.587;-0,22;-1,37;0,65;1,15;-8,70;4,02;1,22;2,01;2,93;0,00
13.609;-0,22;-1,37;0,65;1,15;-8,70;4,02;1,41;2,54;1,77;0,00
13.627;-0,22;-1,37;0,65;5,59;-9,93;7,06;1,41;2,54;1,77;0,00
13.628;-0,22;-1,37;0,65;5,90;-10,24;7,34;1,41;2,54;1,77;0,00
13.656;-0,08;-0,60;0,15;5,90;-10,24;7,34;1,41;2,54;1,77;0,00
13.686;-0,08;-0,60;0,15;5,90;-10,24;7,34;1,63;1,09;1,28;0,00
13.696;-0,08;-0,60;0,15;6,62;-2,47;4,14;1,63;1,09;1,28;0,00
13.697;-0,08;-0,60;0,15;6,77;-2,79;3,95;1,63;1,09;1,28;0,00
13.725;-0,06;-0,24;-0,14;6,77;-2,79;3,95;1,63;1,09;1,28;0,00
13.765;-0,06;-0,24;-0,14;6,77;-2,79;3,95;1,76;1,68;1,53;0,00
13.766;-0,06;-0,24;-0,14;8,10;2,48;-1,04;1,76;1,68;1,53;0,00
13.797;0,09;-0,57;-0,07;8,10;2,48;-1,04;1,76;1,68;1,53;0,00
13.813;0,09;-0,57;-0,07;8,10;2,48;-1,04;1,42;1,31;1,62;0,00
13.834;0,09;-0,57;-0,07;8,91;0,38;-0,46;1,42;1,31;1,62;0,00
13.835;0,09;-0,57;-0,07;9,00;-0,14;-0,26;1,42;1,31;1,62;0,00
13.863;0,05;-0,85;-0,02;9,00;-0,14;-0,26;1,42;1,31;1,62;0,00
13.883;0,05;-0,85;-0,02;9,00;-0,14;-0,26;1,15;1,25;0,20;0,00
13.902;0,05;-0,85;-0,02;9,98;-3,16;0,57;1,15;1,25;0,20;0,00
13.903;0,05;-0,85;-0,02;9,73;-2,96;0,70;1,15;1,25;0,20;0,00
13.932;-0,13;-1,01;-0,07;9,73;-2,96;0,70;1,15;1,25;0,20;0,00
13.962;-0,13;-1,01;-0,07;9,73;-2,96;0,70;-0,26;-1,13;-2,07;0,00
13.971;-0,13;-1,01;-0,07;7,49;-3,92;0,29;-0,26;-1,13;-2,07;0,00
13.972;-0,13;-1,01;-0,07;6,80;-2,98;-0,06;-0,26;-1,13;-2,07;0,00
14.001;-0,72;-1,68;0,29;6,80;-2,98;-0,06;-0,26;-1,13;-2,07;0,00
14.001;-0,72;-1,68;0,29;6,80;-2,98;-0,06;-1,55;-1,47;-3,64;0,00
14.041;-0,72;-1,68;0,29;2,77;-6,65;0,93;-1,55;-1,47;-3,64;0,00
14.07;-0,87;-2,09;0,55;2,77;-6,65;0,93;-1,55;-1,47;-3,64;0,00
14.08;-0,87;-2,09;0,55;2,77;-6,65;0,93;-1,40;-3,56;-4,09;0,00
14.109;-0,87;-2,09;0,55;-3,69;-11,11;4,99;-1,40;-3,56;-4,09;0,00
14.11;-0,87;-2,09;0,55;-5,01;-10,14;4,59;-1,40;-3,56;-4,09;0,00
14.15;-1,20;-1,73;0,76;-5,01;-10,14;4,59;-1,40;-3,56;-4,09;0,00
14.176;-1,20;-1,73;0,76;-5,01;-10,14;4,59;-1,16;-3,89;-3,81;0,00
14.178;-1,20;-1,73;0,76;-6,70;-10,65;6,39;-1,16;-3,89;-3,81;0,00
14.179;-1,20;-1,73;0,76;-7,85;-10,20;6,25;-1,16;-3,89;-3,81;0,00
14.199;-1,20;-1,73;0,76;-7,85;-10,20;6,25;0,06;-2,91;-1,71;0,00
14.207;-1,04;-0,54;0,20;-7,85;-10,20;6,25;0,06;-2,91;-1,71;0,00
14.253;-1,04;-0,54;0,20;-11,18;0,01;4,57;0,06;-2,91;-1,71;0,00
14.254;-1,04;-0,54;0,20;-11,25;0,02;4,30;0,06;-2,91;-1,71;0,00
14.276;-1,04;-0,54;0,20;-11,25;0,02;4,30;0,01;-1,26;-0,22;0,00
14.277;-0,59;0,02;-0,06;-11,25;0,02;4,30;0,01;-1,26;-0,22;0,00
14.316;-0,59;0,02;-0,06;-6,19;9,45;-2,13;0,01;-1,26;-0,22;0,00
14.345;-0,67;-0,34;0,10;-6,19;9,45;-2,13;0,01;-1,26;-0,22;0,00
14.355;-0,67;-0,34;0,10;-6,19;9,45;-2,13;-0,15;0,02;-0,09;0,00
14.385;-0,67;-0,34;0,10;-4,61;8,61;-0,16;-0,15;0,02;-0,09;0,00
14.386;-0,67;-0,34;0,10;-4,55;8,46;-0,16;-0,15;0,02;-0,09;0,00
14.415;-1,06;-0,87;0,26;-4,55;8,46;-0,16;-0,15;0,02;-0,09;0,00
14.434;-1,06;-0,87;0,26;-4,55;8,46;-0,16;0,31;1,72;0,26;0,00
14.454;-1,06;-0,87;0,26;-7,22;3,23;0,80;0,31;1,72;0,26;0,00
14.455;-1,06;-0,87;0,26;-6,74;3,11;0,75;0,31;1,72;0,26;0,00
14.474;-1,06;-0,87;0,26;-6,74;3,11;0,75;0,18;0,06;1,73;0,00
14.491;-1,05;-1,25;0,39;-6,74;3,11;0,75;0,18;0,06;1,73;0,00
14.523;-1,05;-1,25;0,39;-8,49;-1,74;2,56;0,18;0,06;1,73;0,00
14.523;-1,05;-1,25;0,39;-7,50;-2,03;2,29;0,18;0,06;1,73;0,00
14.553;-0,94;-1,21;0,35;-7,50;-2,03;2,29;0,18;0,06;1,73;0,00
14.554;-0,94;-1,21;0,35;-7,50;-2,03;2,29;0,52;-0,40;2,67;0,00
14.592;-0,94;-1,21;0,35;-4,65;-3,42;1,50;0,52;-0,40;2,67;0,00
14.622;-0,51;-0,94;0,34;-4,65;-3,42;1,50;0,52;-0,40;2,67;0,00
14.632;-0,51;-0,94;0,34;-4,65;-3,42;1,50;0,93;0,15;2,62;0,00
14.661;-0,51;-0,94;0,34;-1,57;-2,23;1,56;0,93;0,15;2,62;0,00
14.662;-0,51;-0,94;0,34;-0,85;-2,75;1,48;0,93;0,15;2,62;0,00
14.671;-0,51;-0,94;0,34;-0,85;-2,75;1,48;1,40;2,87;1,28;0,00
14.691;-0,48;-1,34;0,54;-0,85;-2,75;1,48;1,40;2,87;1,28;0,00
14.731;-0,48;-1,34;0,54;2,91;-2,86;2,48;1,40;2,87;1,28;0,00
14.731;-0,48;-1,34;0,54;3,17;-3,07;2,73;1,40;2,87;1,28;0,00
14.75;-0,48;-1,34;0,54;3,17;-3,07;2,73;1,41;2,25;0,22;0,00
14.76;-0,35;-1,50;0,66;3,17;-3,07;2,73;1,41;2,25;0,22;0,00
14.799;-0,35;-1,50;0,66;3,00;-8,65;5,20;1,41;2,25;0,22;0,00
14.8;-0,35;-1,50;0,66;2,95;-8,46;5,41;1,41;2,25;0,22;0,00
14.828;-0,35;-1,50;0,66;2,95;-8,46;5,41;1,81;2,96;-0,45;0,00
14.831;-0,44;-0,79;0,22;2,95;-8,46;5,41;1,81;2,96;-0,45;0,00
14.868;-0,44;-0,79;0,22;2,95;-8,46;5,41;1,81;3,35;-0,02;0,00
14.869;-0,44;-0,79;0,22;3,73;-3,90;3,39;1,81;3,35;-0,02;0,00
14.897;-0,42;-0,18;0,04;3,73;-3,90;3,39;1,81;3,35;-0,02;0,00
14.937;-0,42;-0,18;0,04;2,52;4,46;0,23;1,81;3,35;-0,02;0,00
14.937;-0,42;-0,18;0,04;2,86;4,00;0,70;1,81;3,35;-0,02;0,00
14.947;-0,42;-0,18;0,04;2,86;4,00;0,70;1,51;2,92;1,95;0,00
14.967;-0,10;-0,52;0,13;2,86;4,00;0,70;1,51;2,92;1,95;0,00
15.006;-0,10;-0,52;0,13;5,57;2,52;1,65;1,51;2,92;1,95;0,00
15.007;-0,10;-0,52;0,13;5,82;1,95;1,97;1,51;2,92;1,95;0,00
15.026;-0,10;-0,52;0,13;5,82;1,95;1,97;1,14;1,90;1,44;0,00
15.035;-0,03;-0,66;0,09;5,82;1,95;1,97;1,14;1,90;1,44;0,00
15.065;-0,03;-0,66;0,09;5,82;1,95;1,97;0,48;1,23;-0,37;0,00
15.084;-0,03;-0,66;0,09;8,30;-0,53;2,21;0,48;1,23;-0,37;0,00
15.084;-0,03;-0,66;0,09;8,02;-0,38;2,46;0,48;1,23;-0,37;0,00
15.104;-0,32;-0,98;-0,05;8,02;-0,38;2,46;0,48;1,23;-0,37;0,00
15.144;-0,32;-0,98;-0,05;8,02;-0,38;2,46;-0,34;-0,84;-2,01;0,00
15.144;-0,32;-0,98;-0,05;5,68;-2,37;1,64;-0,34;-0,84;-2,01;0,00
15.173;-0,37;-1,41;-0,05;5,68;-2,37;1,64;-0,34;-0,84;-2,01;0,00
15.213;-0,37;-1,41;-0,05;2,97;-4,61;1,13;-0,34;-0,84;-2,01;0,00
15.214;-0,37;-1,41;-0,05;2,24;-3,86;0,84;-0,34;-0,84;-2,01;0,00
15.223;-0,37;-1,41;-0,05;2,24;-3,86;0,84;-0,01;-0,59;-2,93;0,00
15.242;-0,58;-1,92;0,01;2,24;-3,86;0,84;-0,01;-0,59;-2,93;0,00
15.292;-0,58;-1,92;0,01;0,86;-8,79;-0,72;-0,01;-0,59;-2,93;0,00
15.294;-0,58;-1,92;0,01;-0,22;-8,09;-0,55;-0,01;-0,59;-2,93;0,00
15.301;-0,58;-1,92;0,01;-0,22;-8,09;-0,55;-0,32;0,22;-3,14;0,00
15.336;-0,61;-1,78;0,25;-0,22;-8,09;-0,55;-0,32;0,22;-3,14;0,00
15.341;-0,61;-1,78;0,25;-0,22;-8,09;-0,55;-0,15;-0,60;-2,82;0,00
15.352;-0,61;-1,78;0,25;-3,02;-9,72;3,68;-0,15;-0,60;-2,82;0,00
15.353;-0,61;-1,78;0,25;-4,01;-9,28;3,60;-0,15;-0,60;-2,82;0,00
15.392;-0,82;-0,72;0,15;-4,01;-9,28;3,60;-0,15;-0,60;-2,82;0,00
15.42;-0,82;-0,72;0,15;-4,01;-9,28;3,60;0,12;-0,41;-1,51;0,00
15.42;-0,82;-0,72;0,15;-5,89;-1,41;2,59;0,12;-0,41;-1,51;0,00
15.449;-0,55;-0,17;-0,10;-5,89;-1,41;2,59;0,12;-0,41;-1,51;0,00
15.489;-0,55;-0,17;-0,10;-5,65;6,91;1,08;0,12;-0,41;-1,51;0,00
15.49;-0,55;-0,17;-0,10;-5,73;6,82;0,93;0,12;-0,41;-1,51;0,00
15.498;-0,55;-0,17;-0,10;-5,73;6,82;0,93;0,20;-0,83;-0,50;0,00
15.518;-0,46;-0,16;-0,26;-5,73;6,82;0,93;0,20;-0,83;-0,50;0,00
15.539;-0,46;-0,16;-0,26;-5,73;6,82;0,93;0,03;0,77;-0,72;0,00
15.558;-0,46;-0,16;-0,26;-3,64;8,76;-1,10;0,03;0,77;-0,72;0,00
15.559;-0,46;-0,16;-0,26;-3,90;8,64;-1,07;0,03;0,77;-0,72;0,00
15.588;-0,67;-0,80;0,01;-3,90;8,64;-1,07;0,03;0,77;-0,72;0,00
15.619;-0,67;-0,80;0,01;-3,90;8,64;-1,07;-0,21;2,17;-1,27;0,00
15.642;-0,67;-0,80;0,01;-4,93;5,83;-1,21;-0,21;2,17;-1,27;0,00
15.642;-0,67;-0,80;0,01;-5,45;5,73;-1,12;-0,21;2,17;-1,27;0,00
15.656;-1,33;-1,32;0,59;-5,45;5,73;-1,12;-0,21;2,17;-1,27;0,00
15.696;-1,33;-1,32;0,59;-5,45;5,73;-1,12;-0,03;2,47;-0,23;0,00
15.697;-1,33;-1,32;0,59;-11,12;-1,54;3,57;-0,03;2,47;-0,23;0,00
15.725;-0,98;-1,55;0,89;-11,12;-1,54;3,57;-0,03;2,47;-0,23;0,00
15.735;-0,98;-1,55;0,89;-11,12;-1,54;3,57;1,10;2,56;1,42;0,00
15.764;-0,98;-1,55;0,89;-11,43;-6,68;9,68;1,10;2,56;1,42;0,00
15.765;-0,98;-1,55;0,89;-10,74;-6,58;9,11;1,10;2,56;1,42;0,00
15.794;-0,76;-1,36;0,90;-10,74;-6,58;9,11;1,10;2,56;1,42;0,00
15.814;-0,76;-1,36;0,90;-10,74;-6,58;9,11;1,17;3,93;2,45;0,00
15.834;-0,76;-1,36;0,90;-5,88;-2,34;6,64;1,17;3,93;2,45;0,00
15.834;-0,76;-1,36;0,90;-4,74;-2,57;6,52;1,17;3,93;2,45;0,00
15.863;-0,82;-1,54;1,50;-4,74;-2,57;6,52;1,17;3,93;2,45;0,00
15.892;-0,82;-1,54;1,50;-4,74;-2,57;6,52;1,90;4,47;2,60;0,00
15.904;-0,82;-1,54;1,50;-4,15;-5,98;12,61;1,90;4,47;2,60;0,00
15.905;-0,82;-1,54;1,50;-2,90;-6,49;12,56;1,90;4,47;2,60;0,00
15.932;-0,64;-1,83;1,72;-2,90;-6,49;12,56;1,90;4,47;2,60;0,00
15.933;-0,64;-1,83;1,72;-2,90;-6,49;12,56;2,13;5,75;3,39;0,00
15.971;-0,64;-1,83;1,72;-0,33;-8,16;14,99;2,13;5,75;3,39;0,00
16.001;-0,29;-1,42;1,24;-0,33;-8,16;14,99;2,13;5,75;3,39;0,00
16.011;-0,29;-1,42;1,24;-0,33;-8,16;14,99;2,32;5,08;2,78;0,00
16.04;-0,29;-1,42;1,24;3,14;-9,76;15,44;2,32;5,08;2,78;0,00
16.041;-0,29;-1,42;1,24;3,70;-10,36;16,08;2,32;5,08;2,78;0,00
16.07;-0,05;-0,57;0,61;3,70;-10,36;16,08;2,32;5,08;2,78;0,00
16.09;-0,05;-0,57;0,61;3,70;-10,36;16,08;2,19;3,86;2,45;0,00
16.11;-0,05;-0,57;0,61;7,17;-2,96;9,67;2,19;3,86;2,45;0,00
16.111;-0,05;-0,57;0,61;7,37;-3,59;10,21;2,19;3,86;2,45;0,00
16.139;0,15;-0,48;0,27;7,37;-3,59;10,21;2,19;3,86;2,45;0,00
16.169;0,15;-0,48;0,27;7,37;-3,59;10,21;2,11;4,02;3,04;0,00
16.179;0,15;-0,48;0,27;8,94;0,93;6,04;2,11;4,02;3,04;0,00
16.18;0,15;-0,48;0,27;8,87;0,19;6,72;2,11;4,02;3,04;0,00
16.208;0,41;-0,68;0,25;8,87;0,19;6,72;2,11;4,02;3,04;0,00
16.209;0,41;-0,68;0,25;8,87;0,19;6,72;1,45;2,62;1,95;0,00
16.248;0,41;-0,68;0,25;11,92;-2,37;6,39;1,45;2,62;1,95;0,00
16.277;0,08;-0,96;0,28;11,92;-2,37;6,39;1,45;2,62;1,95;0,00
16.288;0,08;-0,96;0,28;11,92;-2,37;6,39;0,80;0,49;0,24;0,00
16.316;0,08;-0,96;0,28;10,15;-4,99;7,00;0,80;0,49;0,24;0,00
16.318;0,08;-0,96;0,28;10,03;-4,63;6,54;0,80;0,49;0,24;0,00
16.347;-0,31;-1,42;0,08;10,03;-4,63;6,54;0,80;0,49;0,24;0,00
16.366;-0,31;-1,42;0,08;10,03;-4,63;6,54;-0,21;-3,54;-2,49;0,00
16.386;-0,31;-1,42;0,08;7,09;-6,58;4,42;-0,21;-3,54;-2,49;0,00
16.387;-0,31;-1,42;0,08;6,57;-5,46;3,29;-0,21;-3,54;-2,49;0,00
16.405;-0,31;-1,42;0,08;6,57;-5,46;3,29;-1,24;-4,00;-3,99;0,00
16.415;-1,06;-2,05;0,27;6,57;-5,46;3,29;-1,24;-4,00;-3,99;0,00
16.455;-1,06;-2,05;0,27;-1,30;-10,90;1,94;-1,24;-4,00;-3,99;0,00
16.456;-1,06;-2,05;0,27;-2,40;-9,81;1,30;-1,24;-4,00;-3,99;0,00
16.483;-1,06;-2,05;0,27;-2,40;-9,81;1,30;-1,09;-3,58;-4,31;0,00
16.484;-1,01;-2,15;0,39;-2,40;-9,81;1,30;-1,09;-3,58;-4,31;0,00
16.523;-1,01;-2,15;0,39;-6,24;-12,17;2,62;-1,09;-3,58;-4,31;0,00
16.553;-1,31;-1,27;0,53;-6,24;-12,17;2,62;-1,09;-3,58;-4,31;0,00
16.573;-1,31;-1,27;0,53;-6,24;-12,17;2,62;-0,29;-2,12;-4,38;0,00
16.592;-1,31;-1,27;0,53;-9,86;-7,81;5,50;-0,29;-2,12;-4,38;0,00
16.593;-1,31;-1,27;0,53;-11,19;-7,46;5,16;-0,29;-2,12;-4,38;0,00
16.602;-1,31;-1,27;0,53;-11,19;-7,46;5,16;0,50;-2,29;-2,55;0,00
16.622;-1,03;-0,14;-0,26;-11,19;-7,46;5,16;0,50;-2,29;-2,55;0,00
16.661;-1,03;-0,14;-0,26;-10,89;4,57;-0,25;0,50;-2,29;-2,55;0,00
16.662;-1,03;-0,14;-0,26;-11,33;4,47;-0,35;0,50;-2,29;-2,55;0,00
16.682;-1,03;-0,14;-0,26;-11,33;4,47;-0,35;-0,22;-1,27;-1,08;0,00
16.69;-0,88;0,01;-0,13;-11,33;4,47;-0,35;-0,22;-1,27;-1,08;0,00
16.73;-0,88;0,01;-0,13;-9,96;10,61;-3,40;-0,22;-1,27;-1,08;0,00
16.731;-0,88;0,01;-0,13;-10,14;10,42;-3,17;-0,22;-1,27;-1,08;0,00
16.76;-0,88;0,01;-0,13;-10,14;10,42;-3,17;-0,35;-0,78;-0,81;0,00
16.761;-1,04;-0,42;0,00;-10,14;10,42;-3,17;-0,35;-0,78;-0,81;0,00
16.804;-1,04;-0,42;0,00;-10,14;10,42;-3,17;-0,30;1,01;-0,02;0,00
16.806;-1,04;-0,42;0,00;-9,23;8,32;-1,83;-0,30;1,01;-0,02;0,00
16.832;-1,36;-1,27;0,57;-9,23;8,32;-1,83;-0,30;1,01;-0,02;0,00
16.868;-1,36;-1,27;0,57;-13,49;0,05;3,42;-0,30;1,01;-0,02;0,00
16.871;-1,36;-1,27;0,57;-12,87;0,05;3,27;-0,30;1,01;-0,02;0,00
16.878;-1,36;-1,27;0,57;-12,87;0,05;3,27;0,61;0,78;2,10;0,00
16.898;-0,89;-1,74;0,56;-12,87;0,05;3,27;0,61;0,78;2,10;0,00
16.937;-0,89;-1,74;0,56;-9,68;-5,73;4,64;0,61;0,78;2,10;0,00
16.938;-0,89;-1,74;0,56;-8,42;-5,87;4,32;0,61;0,78;2,10;0,00
16.964;-0,89;-1,74;0,56;-8,42;-5,87;4,32;0,98;1,38;2,80;0,00
16.966;-0,80;-2,11;0,65;-8,42;-5,87;4,32;0,98;1,38;2,80;0,00
17.007;-0,80;-2,11;0,65;-4,24;-9,56;4,86;0,98;1,38;2,80;0,00
17.008;-0,80;-2,11;0,65;-2,94;-9,96;4,93;0,98;1,38;2,80;0,00
17.035;-0,63;-2,77;1,38;-2,94;-9,96;4,93;0,98;1,38;2,80;0,00
17.036;-0,63;-2,77;1,38;-2,94;-9,96;4,93;1,13;3,25;3,03;0,00
17.075;-0,63;-2,77;1,38;-2,94;-9,96;4,93;1,81;2,44;3,48;0,00
17.075;-0,63;-2,77;1,38;-1,57;-18,14;9,15;1,81;2,44;3,48;0,00
17.105;-0,14;-1,56;0,72;-1,57;-18,14;9,15;1,81;2,44;3,48;0,00
17.144;-0,14;-1,56;0,72;5,09;-13,04;8,59;1,81;2,44;3,48;0,00
17.145;-0,14;-1,56;0,72;6,14;-14,05;9,05;1,81;2,44;3,48;0,00
17.167;-0,14;-1,56;0,72;6,14;-14,05;9,05;1,97;3,63;3,71;0,00
17.174;0,13;-0,74;0,33;6,14;-14,05;9,05;1,97;3,63;3,71;0,00
17.216;0,13;-0,74;0,33;8,47;-5,28;4,46;1,97;3,63;3,71;0,00
17.217;0,13;-0,74;0,33;8,94;-6,56;5,39;1,97;3,63;3,71;0,00
17.234;0,13;-0,74;0,33;8,94;-6,56;5,39;1,75;3,63;3,74;0,00
17.243;0,43;-0,60;0,23;8,94;-6,56;5,39;1,75;3,63;3,74;0,00
17.272;0,43;-0,60;0,23;8,94;-6,56;5,39;1,47;3,65;3,30;0,00
17.287;0,43;-0,60;0,23;13,26;-3,39;4,25;1,47;3,65;3,30;0,00
17.288;0,43;-0,60;0,23;12,91;-4,38;5,39;1,47;3,65;3,30;0,00
17.311;0,68;-0,53;0,15;12,91;-4,38;5,39;1,47;3,65;3,30;0,00
17.351;0,68;-0,53;0,15;12,91;-4,38;5,39;1,06;1,86;1,32;0,00
17.352;0,68;-0,53;0,15;14,38;-4,47;5,85;1,06;1,86;1,32;0,00
17.386;0,37;-0,55;0,11;14,38;-4,47;5,85;1,06;1,86;1,32;0,00
17.42;0,37;-0,55;0,11;14,09;-4,36;5,48;1,06;1,86;1,32;0,00
17.421;0,37;-0,55;0,11;13,79;-3,86;5,40;1,06;1,86;1,32;0,00
17.43;0,37;-0,55;0,11;13,79;-3,86;5,40;0,34;-0,29;-1,43;0,00
17.449;-0,21;-1,14;0,08;13,79;-3,86;5,40;0,34;-0,29;-1,43;0,00
17.469;-0,21;-1,14;0,08;13,79;-3,86;5,40;-1,03;-3,40;-4,34;0,00
17.489;-0,21;-1,14;0,08;9,42;-5,05;3,91;-1,03;-3,40;-4,34;0,00
17.49;-0,21;-1,14;0,08;9,13;-3,69;2,86;-1,03;-3,40;-4,34;0,00
17.518;-1,39;-2,13;0,12;9,13;-3,69;2,86;-1,03;-3,40;-4,34;0,00
17.548;-1,39;-2,13;0,12;9,13;-3,69;2,86;-1,47;-3,74;-5,73;0,00
17.558;-1,39;-2,13;0,12;-2,59;-12,42;3,34;-1,47;-3,74;-5,73;0,00
17.558;-1,39;-2,13;0,12;-3,83;-10,73;2,67;-1,47;-3,74;-5,73;0,00
17.588;-1,33;-2,37;0,57;-3,83;-10,73;2,67;-1,47;-3,74;-5,73;0,00
17.63;-1,33;-2,37;0,57;-3,83;-10,73;2,67;-1,78;-4,07;-5,95;0,00
17.63;-1,33;-2,37;0,57;-9,08;-13,79;2,56;-1,78;-4,07;-5,95;0,00
17.656;-1,39;-1,84;0,96;-9,08;-13,79;2,56;-1,78;-4,07;-5,95;0,00
17.666;-1,39;-1,84;0,96;-9,08;-13,79;2,56;-0,49;-3,27;-4,05;0,00
17.696;-1,39;-1,84;0,96;-10,63;-12,09;9,89;-0,49;-3,27;-4,05;0,00
17.697;-1,39;-1,84;0,96;-11,90;-11,58;9,64;-0,49;-3,27;-4,05;0,00
17.731;-1,24;-0,48;0,26;-11,90;-11,58;9,64;-0,49;-3,27;-4,05;0,00
17.748;-1,24;-0,48;0,26;-11,90;-11,58;9,64;0,59;-1,32;-1,67;0,00
17.765;-1,24;-0,48;0,26;-12,78;-0,59;5,54;0,59;-1,32;-1,67;0,00
17.766;-1,24;-0,48;0,26;-13,06;-0,57;5,16;0,59;-1,32;-1,67;0,00
17.794;-0,66;0,06;-0,00;-13,06;-0,57;5,16;0,59;-1,32;-1,67;0,00
17.824;-0,66;0,06;-0,00;-13,06;-0,57;5,16;0,67;-0,73;-0,07;0,00
17.833;-0,66;0,06;-0,00;-8,34;9,62;-0,27;0,67;-0,73;-0,07;0,00
17.834;-0,66;0,06;-0,00;-8,21;9,43;-0,57;0,67;-0,73;-0,07;0,00
17.863;-0,53;-0,01;-0,10;-8,21;9,43;-0,57;0,67;-0,73;-0,07;0,00
17.903;-0,53;-0,01;-0,10;-8,21;9,43;-0,57;0,93;-0,03;-0,30;0,00
17.904;-0,53;-0,01;-0,10;-4,50;10,34;-2,13;0,93;-0,03;-0,30;0,00
17.932;-0,75;-0,68;-0,28;-4,50;10,34;-2,13;0,93;-0,03;-0,30;0,00
17.942;-0,75;-0,68;-0,28;-4,50;10,34;-2,13;0,78;0,82;-0,75;0,00
17.971;-0,75;-0,68;-0,28;-5,32;6,03;-3,68;0,78;0,82;-0,75;0,00
17.972;-0,75;-0,68;-0,28;-5,46;5,89;-3,85;0,78;0,82;-0,75;0,00
18.001;-1,00;-1,33;0,14;-5,46;5,89;-3,85;0,78;0,82;-0,75;0,00
18.021;-1,00;-1,33;0,14;-5,46;5,89;-3,85;-0,13;0,89;0,02;0,00
18.041;-1,00;-1,33;0,14;-9,30;-1,66;-2,81;-0,13;0,89;0,02;0,00
18.042;-1,00;-1,33;0,14;-8,91;-1,63;-2,66;-0,13;0,89;0,02;0,00
18.075;-0,73;-1,98;0,71;-8,91;-1,63;-2,66;-0,13;0,89;0,02;0,00
18.099;-0,73;-1,98;0,71;-8,91;-1,63;-2,66;-0,35;1,60;0,81;0,00
18.111;-0,73;-1,98;0,71;-6,52;-6,85;2,53;-0,35;1,60;0,81;0,00
18.112;-0,73;-1,98;0,71;-5,91;-6,79;2,74;-0,35;1,60;0,81;0,00
18.139;-0,73;-1,98;0,71;-5,91;-6,79;2,74;0,38;5,66;1,18;0,00
18.14;-0,58;-2,09;1,07;-5,91;-6,79;2,74;0,38;5,66;1,18;0,00
18.179;-0,58;-2,09;1,07;-3,93;-11,55;8,46;0,38;5,66;1,18;0,00
18.208;-0,65;-1,41;1,38;-3,93;-11,55;8,46;0,38;5,66;1,18;0,00
18.218;-0,65;-1,41;1,38;-3,93;-11,55;8,46;0,30;5,03;1,63;0,00
18.247;-0,65;-1,41;1,38;-1,63;-8,84;12,26;0,30;5,03;1,63;0,00
18.248;-0,65;-1,41;1,38;-0,98;-8,94;12,55;0,30;5,03;1,63;0,00
18.277;-0,68;-0,50;0,98;-0,98;-8,94;12,55;0,30;5,03;1,63;0,00
18.297;-0,68;-0,50;0,98;-0,98;-8,94;12,55;0,58;3,29;2,32;0,00
18.316;-0,68;-0,50;0,98;-1,90;1,29;11,33;0,58;3,29;2,32;0,00
18.316;-0,68;-0,50;0,98;-0,99;0,69;11,68;0,58;3,29;2,32;0,00
18.336;-0,68;-0,50;0,98;-0,99;0,69;11,68;0,98;4,01;3,17;0,00
18.346;-0,45;-0,37;0,79;-0,99;0,69;11,68;0,98;4,01;3,17;0,00
18.385;-0,45;-0,37;0,79;1,23;4,00;9,15;0,98;4,01;3,17;0,00
18.386;-0,45;-0,37;0,79;2,04;2,92;9,72;0,98;4,01;3,17;0,00
18.415;-0,45;-0,37;0,79;2,04;2,92;9,72;1,22;3,64;3,57;0,00
18.415;-0,12;-0,80;0,51;2,04;2,92;9,72;1,22;3,64;3,57;0,00
18.455;-0,12;-0,80;0,51;6,37;-0,73;8,30;1,22;3,64;3,57;0,00
18.487;0,01;-0,97;0,63;6,37;-0,73;8,30;1,22;3,64;3,57;0,00
18.503;0,01;-0,97;0,63;6,37;-0,73;8,30;0,92;2,71;2,85;0,00
18.523;0,01;-0,97;0,63;6,91;-4,42;8,24;0,92;2,71;2,85;0,00
18.524;0,01;-0,97;0,63;7,05;-5,00;8,31;0,92;2,71;2,85;0,00
18.533;0,01;-0,97;0,63;7,05;-5,00;8,31;1,12;0,41;0,28;0,00
18.553;-0,03;-0,75;0,56;7,05;-5,00;8,31;1,12;0,41;0,28;0,00
18.592;-0,03;-0,75;0,56;9,54;-4,15;8,59;1,12;0,41;0,28;0,00
18.593;-0,03;-0,75;0,56;9,20;-3,62;8,25;1,12;0,41;0,28;0,00
18.613;-0,03;-0,75;0,56;9,20;-3,62;8,25;1,57;-0,44;-1,70;0,00
18.622;-0,20;-1,14;0,13;9,20;-3,62;8,25;1,57;-0,44;-1,70;0,00
18.661;-0,20;-1,14;0,13;5,69;-3,67;5,57;1,57;-0,44;-1,70;0,00
18.662;-0,20;-1,14;0,13;4,86;-2,59;4,95;1,57;-0,44;-1,70;0,00
18.691;-0,20;-1,14;0,13;4,86;-2,59;4,95;1,85;-0,23;-3,53;0,00
18.693;-0,41;-1,81;-0,13;4,86;-2,59;4,95;1,85;-0,23;-3,53;0,00
18.731;-0,41;-1,81;-0,13;2,55;-7,07;-0,52;1,85;-0,23;-3,53;0,00
18.76;-0,72;-1,87;0,21;2,55;-7,07;-0,52;1,85;-0,23;-3,53;0,00
18.771;-0,72;-1,87;0,21;2,55;-7,07;-0,52;1,11;-0,68;-4,62;0,00
18.8;-0,72;-1,87;0,21;-1,57;-10,78;0,42;1,11;-0,68;-4,62;0,00
18.801;-0,72;-1,87;0,21;-3,13;-10,03;0,03;1,11;-0,68;-4,62;0,00
18.809;-0,72;-1,87;0,21;-3,13;-10,03;0,03;1,03;-0,35;-3,79;0,00
18.829;-0,87;-1,07;0,10;-3,13;-10,03;0,03;1,03;-0,35;-3,79;0,00
18.868;-0,87;-1,07;0,10;-6,80;-5,26;1,99;1,03;-0,35;-3,79;0,00
18.869;-0,87;-1,07;0,10;-7,53;-5,17;1,29;1,03;-0,35;-3,79;0,00
18.888;-0,87;-1,07;0,10;-7,53;-5,17;1,29;1,85;1,44;-1,76;0,00
18.898;-0,58;-0,37;-0,12;-7,53;-5,17;1,29;1,85;1,44;-1,76;0,00
18.937;-0,58;-0,37;-0,12;-7,29;5,02;-3,05;1,85;1,44;-1,76;0,00
18.938;-0,58;-0,37;-0,12;-7,21;4,78;-3,64;1,85;1,44;-1,76;0,00
18.967;-0,22;-0,32;-0,24;-7,21;4,78;-3,64;1,85;1,44;-1,76;0,00
18.969;-0,22;-0,32;-0,24;-7,21;4,78;-3,64;1,73;0,66;-0,29;0,00
19.006;-0,22;-0,32;-0,24;-7,21;4,78;-3,64;1,60;0,95;-0,69;0,00
19.006;-0,22;-0,32;-0,24;-2,70;5,71;-5,00;1,60;0,95;-0,69;0,00
19.036;-0,36;-0,67;-0,14;-2,70;5,71;-5,00;1,60;0,95;-0,69;0,00
19.076;-0,36;-0,67;-0,14;-1,59;3,90;-6,12;1,60;0,95;-0,69;0,00
19.076;-0,36;-0,67;-0,14;-1,92;3,73;-6,27;1,60;0,95;-0,69;0,00
19.086;-0,36;-0,67;-0,14;-1,92;3,73;-6,27;0,03;-0,55;-1,05;0,00
19.105;-0,31;-1,35;0,88;-1,92;3,73;-6,27;0,03;-0,55;-1,05;0,00
19.144;-0,31;-1,35;0,88;-5,15;-0,70;1,58;0,03;-0,55;-1,05;0,00
19.145;-0,31;-1,35;0,88;-5,39;-0,64;1,76;0,03;-0,55;-1,05;0,00
19.163;-0,31;-1,35;0,88;-5,39;-0,64;1,76;-0,29;-2,19;0,05;0,00
19.173;-0,54;-1,21;0,66;-5,39;-0,64;1,76;-0,29;-2,19;0,05;0,00
19.203;-0,54;-1,21;0,66;-5,39;-0,64;1,76;-0,00;-1,95;0,91;0,00
19.213;-0,54;-1,21;0,66;-4,29;-4,96;4,08;-0,00;-1,95;0,91;0,00
19.214;-0,54;-1,21;0,66;-4,16;-4,85;4,08;-0,00;-1,95;0,91;0,00
19.242;-0,42;-1,13;0,33;-4,16;-4,85;4,08;-0,00;-1,95;0,91;0,00
19.282;-0,42;-1,13;0,33;-4,16;-4,85;4,08;-0,79;-0,24;1,32;0,00
19.282;-0,42;-1,13;0,33;-4,22;-1,23;0,45;-0,79;-0,24;1,32;0,00
19.312;-0,16;-1,46;0,50;-4,22;-1,23;0,45;-0,79;-0,24;1,32;0,00
19.352;-0,16;-1,46;0,50;-4,39;-4,80;4,71;-0,79;-0,24;1,32;0,00
19.353;-0,16;-1,46;0,50;-3,94;-4,71;4,76;-0,79;-0,24;1,32;0,00
19.374;-0,16;-1,46;0,50;-3,94;-4,71;4,76;-0,44;2,51;0,35;0,00
19.38;-0,11;-1,77;0,10;-3,94;-4,71;4,76;-0,44;2,51;0,35;0,00
19.4;-0,11;-1,77;0,10;-3,94;-4,71;4,76;-0,68;11,55;-1,15;0,00
19.421;-0,11;-1,77;0,10;6,42;-7,26;-4,37;-0,68;11,55;-1,15;0,00
19.422;-0,11;-1,77;0,10;6,64;-7,03;-3,38;-0,68;11,55;-1,15;0,00
19.45;-0,85;-1,20;0,49;6,64;-7,03;-3,38;-0,68;11,55;-1,15;0,00
19.48;-0,85;-1,20;0,49;6,64;-7,03;-3,38;-0,18;0,87;0,46;0,00
19.49;-0,85;-1,20;0,49;-10,20;-3,60;5,51;-0,18;0,87;0,46;0,00
19.49;-0,85;-1,20;0,49;-9,80;-3,56;5,60;-0,18;0,87;0,46;0,00
19.519;-1,32;-0,62;0,46;-9,80;-3,56;5,60;-0,18;0,87;0,46;0,00
19.558;-1,32;-0,62;0,46;-9,80;-3,56;5,60;-1,05;4,77;2,70;0,00
19.558;-1,32;-0,62;0,46;-4,60;2,77;2,34;-1,05;4,77;2,70;0,00
19.587;-0,97;-0,84;0,57;-4,60;2,77;2,34;-1,05;4,77;2,70;0,00
19.627;-0,97;-0,84;0,57;-7,97;2,01;6,54;-1,05;4,77;2,70;0,00
19.627;-0,97;-0,84;0,57;-6,31;0,91;7,19;-1,05;4,77;2,70;0,00
19.637;-0,97;-0,84;0,57;-6,31;0,91;7,19;-0,85;2,21;4,82;0,00
19.656;-0,26;-1,34;0,74;-6,31;0,91;7,19;-0,85;2,21;4,82;0,00
19.676;-0,26;-1,34;0,74;-6,31;0,91;7,19;-0,46;2,88;4,86;0,00
19.696;-0,26;-1,34;0,74;2,42;-4,56;8,71;-0,46;2,88;4,86;0,00
19.698;-0,26;-1,34;0,74;3,14;-6,00;9,56;-0,46;2,88;4,86;0,00
19.725;0,20;-1,36;0,95;3,14;-6,00;9,56;-0,46;2,88;4,86;0,00
19.755;0,20;-1,36;0,95;3,14;-6,00;9,56;-0,21;2,48;2,43;0,00
19.765;0,20;-1,36;0,95;8,94;-9,83;11,62;-0,21;2,48;2,43;0,00
19.766;0,20;-1,36;0,95;8,76;-10,15;11,95;-0,21;2,48;2,43;0,00
19.797;0,57;-1,00;0,78;8,76;-10,15;11,95;-0,21;2,48;2,43;0,00
19.834;0,57;-1,00;0,78;11,88;-6,73;13,46;-0,21;2,48;2,43;0,00
19.835;0,57;-1,00;0,78;11,88;-6,73;13,46;0,30;-1,88;-0,74;0,00
19.864;0,02;-1,37;0,17;11,88;-6,73;13,46;0,30;-1,88;-0,74;0,00
19.873;0,02;-1,37;0,17;11,88;-6,73;13,46;1,61;-0,43;-3,58;0,00
19.903;0,02;-1,37;0,17;12,56;-6,69;6,95;1,61;-0,43;-3,58;0,00
19.903;0,02;-1,37;0,17;11,48;-5,33;6,36;1,61;-0,43;-3,58;0,00
19.932;-0,54;-1,95;-0,19;11,48;-5,33;6,36;1,61;-0,43;-3,58;0,00
19.952;-0,54;-1,95;-0,19;11,48;-5,33;6,36;1,08;-2,51;-3,90;0,00
19.972;-0,54;-1,95;-0,19;0,71;-7,59;-0,75;1,08;-2,51;-3,90;0,00
19.973;-0,54;-1,95;-0,19;-0,49;-6,67;-1,53;1,08;-2,51;-3,90;0,00
20.001;-0,78;-2,11;0,22;-0,49;-6,67;-1,53;1,08;-2,51;-3,90;0,00
20.031;-0,78;-2,11;0,22;-0,49;-6,67;-1,53;0,46;-2,22;-4,48;0,00
20.041;-0,78;-2,11;0,22;-3,04;-11,67;0,23;0,46;-2,22;-4,48;0,00
20.042;-0,78;-2,11;0,22;-4,52;-11,16;-0,17;0,46;-2,22;-4,48;0,00
20.07;-0,78;-2,11;0,22;-4,52;-11,16;-0,17;0,51;-2,96;-3,43;0,00
20.071;-1,02;-1,33;0,13;-4,52;-11,16;-0,17;0,51;-2,96;-3,43;0,00
20.11;-1,02;-1,33;0,13;-9,36;-7,18;1,61;0,51;-2,96;-3,43;0,00
20.139;-1,12;-0,27;-0,41;-9,36;-7,18;1,61;0,51;-2,96;-3,43;0,00
20.149;-1,12;-0,27;-0,41;-9,36;-7,18;1,61;0,32;-1,77;-1,90;0,00
20.179;-1,12;-0,27;-0,41;-11,08;3,49;-2,82;0,32;-1,77;-1,90;0,00
20.18;-1,12;-0,27;-0,41;-11,51;3,36;-2,82;0,32;-1,77;-1,90;0,00
20.208;-1,03;-0,06;-0,36;-11,51;3,36;-2,82;0,32;-1,77;-1,90;0,00
20.228;-1,03;-0,06;-0,36;-11,51;3,36;-2,82;-0,28;-0,91;-0,66;0,00
20.248;-1,03;-0,06;-0,36;-12,35;8,98;-4,26;-0,28;-0,91;-0,66;0,00
20.249;-1,03;-0,06;-0,36;-12,24;8,83;-4,09;-0,28;-0,91;-0,66;0,00
20.267;-1,03;-0,06;-0,36;-12,24;8,83;-4,09;-0,51;1,28;0,29;0,00
20.277;-0,96;-0,61;-0,05;-12,24;8,83;-4,09;-0,51;1,28;0,29;0,00
20.319;-0,96;-0,61;-0,05;-10,11;8,21;-4,01;-0,51;1,28;0,29;0,00
20.319;-0,96;-0,61;-0,05;-9,66;8,10;-3,65;-0,51;1,28;0,29;0,00
20.346;-0,96;-0,61;-0,05;-9,66;8,10;-3,65;-0,37;0,48;0,86;0,00
20.347;-1,05;-1,38;0,61;-9,66;8,10;-3,65;-0,37;0,48;0,86;0,00
20.386;-1,05;-1,38;0,61;-10,36;-1,94;4,57;-0,37;0,48;0,86;0,00
20.42;-0,82;-1,76;0,53;-10,36;-1,94;4,57;-0,37;0,48;0,86;0,00
20.441;-0,82;-1,76;0,53;-10,36;-1,94;4,57;0,60;1,16;2,29;0,00
20.455;-0,82;-1,76;0,53;-8,18;-7,05;6,04;0,60;1,16;2,29;0,00
20.456;-0,82;-1,76;0,53;-7,18;-7,08;5,68;0,60;1,16;2,29;0,00
20.485;-0,72;-1,93;0,36;-7,18;-7,08;5,68;0,60;1,16;2,29;0,00
20.504;-0,72;-1,93;0,36;-7,18;-7,08;5,68;1,05;2,44;2,21;0,00
20.524;-0,72;-1,93;0,36;-3,87;-6,94;2,17;1,05;2,44;2,21;0,00
20.525;-0,72;-1,93;0,36;-2,77;-7,19;2,52;1,05;2,44;2,21;0,00
20.543;-0,72;-1,93;0,36;-2,77;-7,19;2,52;0,27;4,05;3,23;0,00
20.553;-0,69;-2,69;1,25;-2,77;-7,19;2,52;0,27;4,05;3,23;0,00
20.592;-0,69;-2,69;1,25;-2,46;-17,16;9,48;0,27;4,05;3,23;0,00
20.593;-0,69;-2,69;1,25;-1,14;-17,81;9,65;0,27;4,05;3,23;0,00
20.622;-0,69;-2,69;1,25;-1,14;-17,81;9,65;1,02;2,96;4,04;0,00
20.623;-0,18;-1,65;0,66;-1,14;-17,81;9,65;1,02;2,96;4,04;0,00
20.661;-0,18;-1,65;0,66;4,74;-12,86;9,87;1,02;2,96;4,04;0,00
20.691;0,18;-0,72;0,40;4,74;-12,86;9,87;1,02;2,96;4,04;0,00
20.701;0,18;-0,72;0,40;4,74;-12,86;9,87;1,00;3,87;3,71;0,00
20.731;0,18;-0,72;0,40;7,63;-4,90;6,98;1,00;3,87;3,71;0,00
20.732;0,18;-0,72;0,40;7,94;-5,78;7,68;1,00;3,87;3,71;0,00
20.74;0,18;-0,72;0,40;7,94;-5,78;7,68;0,84;3,53;3,36;0,00
20.765;0,66;-0,51;0,33;7,94;-5,78;7,68;0,84;3,53;3,36;0,00
20.8;0,66;-0,51;0,33;13,62;-0,73;6,18;0,84;3,53;3,36;0,00
20.801;0,66;-0,51;0,33;13,46;-1,63;6,82;0,84;3,53;3,36;0,00
20.82;0,66;-0,51;0,33;13,46;-1,63;6,82;0,70;2,03;2,32;0,00
20.83;0,67;-0,40;0,27;13,46;-1,63;6,82;0,70;2,03;2,32;0,00
20.868;0,67;-0,40;0,27;16,20;-1,06;6,99;0,70;2,03;2,32;0,00
20.869;0,67;-0,40;0,27;15,82;-1,24;7,21;0,70;2,03;2,32;0,00
20.898;0,24;-0,56;0,16;15,82;-1,24;7,21;0,70;2,03;2,32;0,00
20.899;0,24;-0,56;0,16;15,82;-1,24;7,21;0,65;0,91;0,76;0,00
20.937;0,24;-0,56;0,16;15,82;-1,24;7,21;0,20;-2,57;-1,76;0,00
20.938;0,24;-0,56;0,16;11,67;-2,37;6,51;0,20;-2,57;-1,76;0,00
20.967;-0,15;-1,29;0,14;11,67;-2,37;6,51;0,20;-2,57;-1,76;0,00
21.007;-0,15;-1,29;0,14;8,53;-4,02;3,79;0,20;-2,57;-1,76;0,00
21.007;-0,15;-1,29;0,14;8,16;-2,94;2,66;0,20;-2,57;-1,76;0,00
21.016;-0,15;-1,29;0,14;8,16;-2,94;2,66;-0,72;-3,52;-4,50;0,00
21.036;-1,30;-2,38;0,41;8,16;-2,94;2,66;-0,72;-3,52;-4,50;0,00
21.076;-1,30;-2,38;0,41;-1,21;-13,48;4,43;-0,72;-3,52;-4,50;0,00
21.077;-1,30;-2,38;0,41;-2,55;-12,09;3,99;-0,72;-3,52;-4,50;0,00
21.095;-1,30;-2,38;0,41;-2,55;-12,09;3,99;-0,32;-2,35;-5,21;0,00
21.106;-1,31;-2,48;0,63;-2,55;-12,09;3,99;-0,32;-2,35;-5,21;0,00
21.137;-1,31;-2,48;0,63;-2,55;-12,09;3,99;-0,63;-4,58;-4,81;0,00
21.145;-1,31;-2,48;0,63;-10,70;-15,53;4,71;-0,63;-4,58;-4,81;0,00
21.146;-1,31;-2,48;0,63;-12,25;-14,75;4,36;-0,63;-4,58;-4,81;0,00
21.174;-1,27;-1,73;0,62;-12,25;-14,75;4,36;-0,63;-4,58;-4,81;0,00
21.213;-1,27;-1,73;0,62;-12,25;-14,75;4,36;0,53;-2,34;-2,87;0,00
21.214;-1,27;-1,73;0,62;-10,88;-11,25;7,19;0,53;-2,34;-2,87;0,00
21.243;-1,26;-0,25;-0,05;-10,88;-11,25;7,19;0,53;-2,34;-2,87;0,00
21.283;-1,26;-0,25;-0,05;-13,18;1,71;0,68;0,53;-2,34;-2,87;0,00
21.283;-1,26;-0,25;-0,05;-13,45;1,65;0,51;0,53;-2,34;-2,87;0,00
21.292;-1,26;-0,25;-0,05;-13,45;1,65;0,51;0,40;-2,51;-0,53;0,00
21.312;-0,99;0,17;-0,11;-13,45;1,65;0,51;0,40;-2,51;-0,53;0,00
21.331;-0,99;0,17;-0,11;-13,45;1,65;0,51;0,07;-1,25;1,75;0,00
21.351;-0,99;0,17;-0,11;-10,57;11,56;-2,25;0,07;-1,25;1,75;0,00
21.352;-0,99;0,17;-0,11;-9,77;11,33;-2,25;0,07;-1,25;1,75;0,00
21.38;-1,03;-0,12;-0,08;-9,77;11,33;-2,25;0,07;-1,25;1,75;0,00
21.411;-1,03;-0,12;-0,08;-9,77;11,33;-2,25;0,47;-0,34;1,10;0,00
21.42;-1,03;-0,12;-0,08;-8,14;9,65;-1,85;0,47;-0,34;1,10;0,00
21.422;-1,03;-0,12;-0,08;-7,59;9,40;-2,02;0,47;-0,34;1,10;0,00
21.45;-1,22;-0,92;0,03;-7,59;9,40;-2,02;0,47;-0,34;1,10;0,00
21.495;-1,22;-0,92;0,03;-9,08;3,98;-2,27;0,47;-0,34;1,10;0,00
21.498;-1,22;-0,92;0,03;-9,08;3,98;-2,27;0,41;0,36;2,09;0,00
21.529;-0,64;-1,12;-0,04;-9,08;3,98;-2,27;0,41;0,36;2,09;0,00
21.559;-0,64;-1,12;-0,04;-5,00;-2,71;-1,69;0,41;0,36;2,09;0,00
21.559;-0,64;-1,12;-0,04;-4,08;-3,02;-1,44;0,41;0,36;2,09;0,00
21.568;-0,64;-1,12;-0,04;-4,08;-3,02;-1,44;0,02;1,59;2,22;0,00
21.588;-0,90;-1,43;0,69;-4,08;-3,02;-1,44;0,02;1,59;2,22;0,00
21.612;-0,90;-1,43;0,69;-4,08;-3,02;-1,44;0,14;1,41;0,65;0,00
21.628;-0,90;-1,43;0,69;-2,30;-3,34;2,53;0,14;1,41;0,65;0,00
21.628;-0,90;-1,43;0,69;-2,12;-3,37;2,63;0,14;1,41;0,65;0,00
21.657;-0,88;-2,53;1,27;-2,12;-3,37;2,63;0,14;1,41;0,65;0,00
21.686;-0,88;-2,53;1,27;-2,12;-3,37;2,63;1,07;3,88;0,30;0,00
21.696;-0,88;-2,53;1,27;-2,50;-12,39;9,19;1,07;3,88;0,30;0,00
21.7;-0,88;-2,53;1,27;-2,18;-12,37;9,69;1,07;3,88;0,30;0,00
21.737;-0,77;-1,55;0,97;-2,18;-12,37;9,69;1,07;3,88;0,30;0,00
21.766;-0,77;-1,55;0,97;-2,18;-12,37;9,69;1,76;3,36;1,45;0,00
21.768;-0,77;-1,55;0,97;-2,96;-13,28;12,81;1,76;3,36;1,45;0,00
21.795;-0,32;-0,60;0,62;-2,96;-13,28;12,81;1,76;3,36;1,45;0,00
21.804;-0,32;-0,60;0,62;-2,96;-13,28;12,81;1,94;3,00;2,22;0,00
21.834;-0,32;-0,60;0,62;2,02;-1,19;6,63;1,94;3,00;2,22;0,00
21.835;-0,32;-0,60;0,62;2,64;-1,80;6,80;1,94;3,00;2,22;0,00
21.865;0,09;-0,32;0,41;2,64;-1,80;6,80;1,94;3,00;2,22;0,00
21.889;0,09;-0,32;0,41;2,64;-1,80;6,80;2,65;4,36;2,98;0,00
21.903;0,09;-0,32;0,41;7,25;2,77;5,63;2,65;4,36;2,98;0,00
21.903;0,09;-0,32;0,41;7,62;1,88;6,39;2,65;4,36;2,98;0,00
21.933;0,12;-0,24;0,47;7,62;1,88;6,39;2,65;4,36;2,98;0,00
21.962;0,12;-0,24;0,47;7,62;1,88;6,39;2,54;4,09;2,89;0,00
21.972;0,12;-0,24;0,47;9,61;2,02;6,40;2,54;4,09;2,89;0,00
21.973;0,12;-0,24;0,47;9,58;1,30;6,99;2,54;4,09;2,89;0,00
22.001;0,12;-0,24;0,47;9,58;1,30;6,99;2,29;2,23;2,07;0,00
22.002;0,28;-0,47;0,29;9,58;1,30;6,99;2,29;2,23;2,07;0,00
22.041;0,28;-0,47;0,29;10,44;-0,06;7,02;2,29;2,23;2,07;0,00
22.071;-0,06;-0,78;0,06;10,44;-0,06;7,02;2,29;2,23;2,07;0,00
22.08;-0,06;-0,78;0,06;10,44;-0,06;7,02;1,69;0,25;-0,50;0,00
22.11;-0,06;-0,78;0,06;9,67;-2,41;4,43;1,69;0,25;-0,50;0,00
22.111;-0,06;-0,78;0,06;9,35;-1,85;4,07;1,69;0,25;-0,50;0,00
22.139;-0,39;-1,47;0,05;9,35;-1,85;4,07;1,69;0,25;-0,50;0,00
22.159;-0,39;-1,47;0,05;9,35;-1,85;4,07;1,25;-1,00;-2,93;0,00
22.179;-0,39;-1,47;0,05;4,50;-5,78;2,74;1,25;-1,00;-2,93;0,00
22.18;-0,39;-1,47;0,05;3,67;-4,58;2,08;1,25;-1,00;-2,93;0,00
22.198;-0,39;-1,47;0,05;3,67;-4,58;2,08;1,65;-0,81;-4,23;0,00
22.208;-0,84;-2,24;-0,09;3,67;-4,58;2,08;1,65;-0,81;-4,23;0,00
22.248;-0,84;-2,24;-0,09;-0,77;-11,75;0,38;1,65;-0,81;-4,23;0,00
22.249;-0,84;-2,24;-0,09;-2,16;-10,71;-0,17;1,65;-0,81;-4,23;0,00
22.277;-0,88;-2,23;0,08;-2,16;-10,71;-0,17;1,65;-0,81;-4,23;0,00
22.278;-0,88;-2,23;0,08;-2,16;-10,71;-0,17;0,59;-1,91;-4,70;0,00
22.317;-0,88;-2,23;0,08;-6,63;-13,23;-0,53;0,59;-1,91;-4,70;0,00
22.347;-1,05;-1,41;0,33;-6,63;-13,23;-0,53;0,59;-1,91;-4,70;0,00
22.356;-1,05;-1,41;0,33;-6,63;-13,23;-0,53;-0,30;-2,59;-3,76;0,00
22.388;-1,05;-1,41;0,33;-8,20;-8,54;2,72;-0,30;-2,59;-3,76;0,00
22.39;-1,05;-1,41;0,33;-9,23;-8,35;2,73;-0,30;-2,59;-3,76;0,00
22.423;-0,90;-0,21;-0,07;-9,23;-8,35;2,73;-0,30;-2,59;-3,76;0,00
22.435;-0,90;-0,21;-0,07;-9,23;-8,35;2,73;0,15;-2,07;-1,75;0,00
22.456;-0,90;-0,21;-0,07;-10,83;3,37;1,16;0,15;-2,07;-1,75;0,00
22.457;-0,90;-0,21;-0,07;-10,96;3,29;0,97;0,15;-2,07;-1,75;0,00
22.477;-0,90;-0,21;-0,07;-10,96;3,29;0,97;0,48;0,62;-0,26;0,00
22.499;-0,63;0,06;-0,23;-10,96;3,29;0,97;0,48;0,62;-0,26;0,00
22.524;-0,63;0,06;-0,23;-7,83;10,48;-2,62;0,48;0,62;-0,26;0,00
22.525;-0,63;0,06;-0,23;-7,77;10,29;-2,76;0,48;0,62;-0,26;0,00
22.553;-0,63;0,06;-0,23;-7,77;10,29;-2,76;0,28;1,56;-0,47;0,00
22.554;-0,58;-0,14;-0,24;-7,77;10,29;-2,76;0,28;1,56;-0,47;0,00
22.593;-0,58;-0,14;-0,24;-5,79;9,68;-3,93;0,28;1,56;-0,47;0,00
22.627;-1,04;-1,27;0,48;-5,79;9,68;-3,93;0,28;1,56;-0,47;0,00
22.631;-1,04;-1,27;0,48;-5,79;9,68;-3,93;-0,45;2,32;-0,56;0,00
22.661;-1,04;-1,27;0,48;-8,80;0,75;1,08;-0,45;2,32;-0,56;0,00
22.662;-1,04;-1,27;0,48;-8,81;0,73;1,19;-0,45;2,32;-0,56;0,00
22.671;-1,04;-1,27;0,48;-8,81;0,73;1,19;-0,37;2,17;0,59;0,00
22.691;-1,09;-1,68;0,82;-8,81;0,73;1,19;-0,37;2,17;0,59;0,00
22.732;-1,09;-1,68;0,82;-11,43;-4,71;6,49;-0,37;2,17;0,59;0,00
22.733;-1,09;-1,68;0,82;-10,42;-4,65;6,45;-0,37;2,17;0,59;0,00
22.752;-1,09;-1,68;0,82;-10,42;-4,65;6,45;0,12;2,26;2,23;0,00
22.76;-0,94;-1,88;1,08;-10,42;-4,65;6,45;0,12;2,26;2,23;0,00
22.799;-0,94;-1,88;1,08;-7,77;-8,26;8,55;0,12;2,26;2,23;0,00
22.8;-0,94;-1,88;1,08;-6,47;-8,43;8,46;0,12;2,26;2,23;0,00
22.829;-0,94;-1,88;1,08;-6,47;-8,43;8,46;1,00;3,91;3,10;0,00
22.83;-0,96;-2,43;1,75;-6,47;-8,43;8,46;1,00;3,91;3,10;0,00
22.868;-0,96;-2,43;1,75;-6,47;-8,43;8,46;2,13;4,49;4,40;0,00
22.869;-0,96;-2,43;1,75;-5,30;-12,99;13,76;2,13;4,49;4,40;0,00
22.898;-0,18;-1,85;1,35;-5,30;-12,99;13,76;2,13;4,49;4,40;0,00
22.938;-0,18;-1,85;1,35;1,42;-13,65;14,67;2,13;4,49;4,40;0,00
22.939;-0,18;-1,85;1,35;2,70;-14,58;15,10;2,13;4,49;4,40;0,00
22.948;-0,18;-1,85;1,35;2,70;-14,58;15,10;2,13;4,50;3,42;0,00
22.967;0,04;-0,86;0,86;2,70;-14,58;15,10;2,13;4,50;3,42;0,00
23.008;0,04;-0,86;0,86;8,28;-6,01;10,92;2,13;4,50;3,42;0,00
23.009;0,04;-0,86;0,86;8,61;-6,64;11,39;2,13;4,50;3,42;0,00
23.026;0,04;-0,86;0,86;8,61;-6,64;11,39;2,42;3,62;2,36;0,00
23.037;-0,01;-0,53;0,49;8,61;-6,64;11,39;2,42;3,62;2,36;0,00
23.066;-0,01;-0,53;0,49;8,61;-6,64;11,39;2,62;3,29;2,49;0,00
23.076;-0,01;-0,53;0,49;8,90;-1,03;6,95;2,62;3,29;2,49;0,00
23.077;-0,01;-0,53;0,49;9,00;-1,72;7,51;2,62;3,29;2,49;0,00
23.105;0,31;-0,41;0,27;9,00;-1,72;7,51;2,62;3,29;2,49;0,00
23.145;0,31;-0,41;0,27;9,00;-1,72;7,51;2,38;3,01;2,08;0,00
23.145;0,31;-0,41;0,27;10,48;-0,42;5,85;2,38;3,01;2,08;0,00
23.175;0,40;-0,59;0,24;10,48;-0,42;5,85;2,38;3,01;2,08;0,00
23.214;0,40;-0,59;0,24;11,87;-1,71;5,45;2,38;3,01;2,08;0,00
23.215;0,40;-0,59;0,24;11,60;-1,83;5,68;2,38;3,01;2,08;0,00
23.223;0,40;-0,59;0,24;11,60;-1,83;5,68;2,00;1,24;0,65;0,00
23.243;0,43;-0,75;-0,00;11,60;-1,83;5,68;2,00;1,24;0,65;0,00
23.283;0,43;-0,75;-0,00;13,78;-2,82;3,41;2,00;1,24;0,65;0,00
23.284;0,43;-0,75;-0,00;13,28;-2,18;3,31;2,00;1,24;0,65;0,00
23.302;0,43;-0,75;-0,00;13,28;-2,18;3,31;0,82;0,10;-1,64;0,00
23.312;-0,28;-1,63;0,32;13,28;-2,18;3,31;0,82;0,10;-1,64;0,00
23.341;-0,28;-1,63;0,32;13,28;-2,18;3,31;-0,96;-4,73;-3,64;0,00
23.356;-0,28;-1,63;0,32;7,40;-6,28;3,83;-0,96;-4,73;-3,64;0,00
23.358;-0,28;-1,63;0,32;6,69;-5,16;2,59;-0,96;-4,73;-3,64;0,00
23.381;-1,28;-2,53;0,48;6,69;-5,16;2,59;-0,96;-4,73;-3,64;0,00
23.42;-1,28;-2,53;0,48;6,69;-5,16;2,59;-2,31;-5,99;-4,67;0,00
23.421;-1,28;-2,53;0,48;-3,18;-15,17;4,15;-2,31;-5,99;-4,67;0,00
23.45;-1,27;-2,42;0,93;-3,18;-15,17;4,15;-2,31;-5,99;-4,67;0,00
23.489;-1,27;-2,42;0,93;-9,54;-16,53;6,72;-2,31;-5,99;-4,67;0,00
23.49;-1,27;-2,42;0,93;-11,01;-15,68;6,65;-2,31;-5,99;-4,67;0,00
23.499;-1,27;-2,42;0,93;-11,01;-15,68;6,65;-2,13;-5,61;-4,10;0,00
23.519;-1,17;-1,08;0,79;-11,01;-15,68;6,65;-2,13;-5,61;-4,10;0,00
23.541;-1,17;-1,08;0,79;-11,01;-15,68;6,65;-0,47;-2,01;-1,57;0,00
23.558;-1,17;-1,08;0,79;-10,08;-6,36;8,24;-0,47;-2,01;-1,57;0,00
23.559;-1,17;-1,08;0,79;-10,44;-6,18;8,14;-0,47;-2,01;-1,57;0,00
23.588;-0,90;-0,02;0,10;-10,44;-6,18;8,14;-0,47;-2,01;-1,57;0,00
23.617;-0,90;-0,02;0,10;-10,44;-6,18;8,14;-0,10;-2,27;-0,78;0,00
23.627;-0,90;-0,02;0,10;-9,32;5,67;3,05;-0,10;-2,27;-0,78;0,00
23.628;-0,90;-0,02;0,10;-9,47;5,60;3,01;-0,10;-2,27;-0,78;0,00
23.657;-0,63;0,17;0,06;-9,47;5,60;3,01;-0,10;-2,27;-0,78;0,00
23.696;-0,63;0,17;0,06;-6,33;11,64;-0,77;-0,10;-2,27;-0,78;0,00
23.697;-0,63;0,17;0,06;-6,33;11,64;-0,77;-0,13;-1,06;0,01;0,00
23.727;-0,74;0,27;-0,13;-6,33;11,64;-0,77;-0,13;-1,06;0,01;0,00
23.736;-0,74;0,27;-0,13;-6,33;11,64;-0,77;0,20;0,12;-0,18;0,00
23.766;-0,74;0,27;-0,13;-5,40;12,04;-0,98;0,20;0,12;-0,18;0,00
23.767;-0,74;0,27;-0,13;-5,36;11,84;-1,03;0,20;0,12;-0,18;0,00
23.795;-0,92;-0,94;0,30;-5,36;11,84;-1,03;0,20;0,12;-0,18;0,00
23.814;-0,92;-0,94;0,30;-5,36;11,84;-1,03;-0,10;-0,25;0,69;0,00
23.834;-0,92;-0,94;0,30;-7,41;6,19;-0,60;-0,10;-0,25;0,69;0,00
23.835;-0,92;-0,94;0,30;-7,07;6,06;-0,60;-0,10;-0,25;0,69;0,00
23.863;-1,05;-1,71;0,51;-7,07;6,06;-0,60;-0,10;-0,25;0,69;0,00
23.893;-1,05;-1,71;0,51;-7,07;6,06;-0,60;0,68;0,43;0,66;0,00
23.904;-1,05;-1,71;0,51;-7,66;-5,29;3,67;0,68;0,43;0,66;0,00
23.905;-1,05;-1,71;0,51;-7,01;-5,36;3,38;0,68;0,43;0,66;0,00
23.933;-1,20;-2,17;0,80;-7,01;-5,36;3,38;0,68;0,43;0,66;0,00
23.934;-1,20;-2,17;0,80;-7,01;-5,36;3,38;1,18;1,73;1,91;0,00
23.985;-1,20;-2,17;0,80;-8,42;-11,20;4,98;1,18;1,73;1,91;0,00
24.031;-0,64;-2,49;0,98;-8,42;-11,20;4,98;1,18;1,73;1,91;0,00
24.032;-0,64;-2,49;0,98;-8,42;-11,20;4,98;1,52;3,64;3,16;0,00
24.042;-0,64;-2,49;0,98;-4,34;-13,61;6,10;1,52;3,64;3,16;0,00
24.043;-0,64;-2,49;0,98;-2,86;-14,20;6,37;1,52;3,64;3,16;0,00
24.071;-0,03;-1,78;0,71;-2,86;-14,20;6,37;1,52;3,64;3,16;0,00
24.09;-0,03;-1,78;0,71;-2,86;-14,20;6,37;1,85;3,52;3,28;0,00
24.11;-0,03;-1,78;0,71;4,39;-15,64;8,49;1,85;3,52;3,28;0,00
24.111;-0,03;-1,78;0,71;5,15;-16,25;8,73;1,85;3,52;3,28;0,00
24.14;0,39;-0,56;0,26;5,15;-16,25;8,73;1,85;3,52;3,28;0,00
24.17;0,39;-0,56;0,26;5,15;-16,25;8,73;1,49;2,44;2,13;0,00
24.179;0,39;-0,56;0,26;10,83;-3,55;3,14;1,49;2,44;2,13;0,00
24.18;0,39;-0,56;0,26;11,07;-4,09;3,63;1,49;2,44;2,13;0,00
24.208;0,62;-0,19;0,07;11,07;-4,09;3,63;1,49;2,44;2,13;0,00
24.209;0,62;-0,19;0,07;11,07;-4,09;3,63;1,56;2,10;1,44;0,00
24.248;0,62;-0,19;0,07;13,78;2,14;1,44;1,56;2,10;1,44;0,00
24.278;0,87;-0,17;-0,11;13,78;2,14;1,44;1,56;2,10;1,44;0,00
24.287;0,87;-0,17;-0,11;13,78;2,14;1,44;1,35;1,23;0,30;0,00
24.317;0,87;-0,17;-0,11;16,88;3,23;-0,34;1,35;1,23;0,30;0,00
24.318;0,87;-0,17;-0,11;16,53;3,28;-0,04;1,35;1,23;0,30;0,00
24.351;0,44;-0,80;-0,05;16,53;3,28;-0,04;1,35;1,23;0,30;0,00
24.375;0,44;-0,80;-0,05;16,53;3,28;-0,04;0,92;1,12;-1,06;0,00
24.385;0,44;-0,80;-0,05;13,87;1,10;-0,19;0,92;1,12;-1,06;0,00
24.386;0,44;-0,80;-0,05;13,26;1,64;-0,39;0,92;1,12;-1,06;0,00
24.405;0,44;-0,80;-0,05;13,26;1,64;-0,39;-0,23;-0,86;-2,90;0,00
24.416;-0,43;-1,88;0,24;13,26;1,64;-0,39;-0,23;-0,86;-2,90;0,00
24.455;-0,43;-1,88;0,24;6,97;-7,61;0,91;-0,23;-0,86;-2,90;0,00
24.456;-0,43;-1,88;0,24;5,87;-6,64;0,61;-0,23;-0,86;-2,90;0,00
24.485;-0,79;-2,72;0,70;5,87;-6,64;0,61;-0,23;-0,86;-2,90;0,00
24.485;-0,79;-2,72;0,70;5,87;-6,64;0,61;-1,58;-4,02;-4,28;0,00
24.524;-0,79;-2,72;0,70;-4,15;-15,65;4,21;-1,58;-4,02;-4,28;0,00
24.554;-1,12;-2,43;0,88;-4,15;-15,65;4,21;-1,58;-4,02;-4,28;0,00
24.569;-1,12;-2,43;0,88;-4,15;-15,65;4,21;-1,55;-4,32;-4,92;0,00
24.593;-1,12;-2,43;0,88;-6,86;-16,22;8,94;-1,55;-4,32;-4,92;0,00
24.594;-1,12;-2,43;0,88;-8,14;-15,76;8,87;-1,55;-4,32;-4,92;0,00
24.602;-1,12;-2,43;0,88;-8,14;-15,76;8,87;-0,31;-2,96;-2,52;0,00
24.623;-1,10;-1,45;0,63;-8,14;-15,76;8,87;-0,31;-2,96;-2,52;0,00
24.663;-1,10;-1,45;0,63;-12,12;-9,18;6,00;-0,31;-2,96;-2,52;0,00
24.665;-1,10;-1,45;0,63;-12,51;-9,05;5,89;-0,31;-2,96;-2,52;0,00
24.688;-1,10;-1,45;0,63;-12,51;-9,05;5,89;0,52;-1,32;-0,92;0,00
24.693;-0,73;-0,19;-0,01;-12,51;-9,05;5,89;0,52;-1,32;-0,92;0,00
24.731;-0,73;-0,19;-0,01;-8,71;3,19;2,45;0,52;-1,32;-0,92;0,00
24.732;-0,73;-0,19;-0,01;-8,59;3,11;2,15;0,52;-1,32;-0,92;0,00
24.765;-0,64;0,04;-0,17;-8,59;3,11;2,15;0,52;-1,32;-0,92;0,00
24.765;-0,64;0,04;-0,17;-8,59;3,11;2,15;0,54;0,23;0,04;0,00
24.799;-0,64;0,04;-0,17;-8,59;3,11;2,15;0,37;-0,54;0,53;0,00
24.8;-0,64;0,04;-0,17;-7,05;10,74;-3,41;0,37;-0,54;0,53;0,00
24.83;-0,46;0,07;-0,22;-7,05;10,74;-3,41;0,37;-0,54;0,53;0,00
24.869;-0,46;0,07;-0,22;-4,89;10,06;-3,00;0,37;-0,54;0,53;0,00
24.87;-0,46;0,07;-0,22;-4,65;9,87;-3,10;0,37;-0,54;0,53;0,00
24.879;-0,46;0,07;-0,22;-4,65;9,87;-3,10;0,31;0,59;0,57;0,00
24.899;-0,73;-0,23;-0,18;-4,65;9,87;-3,10;0,31;0,59;0,57;0,00
24.939;-0,73;-0,23;-0,18;-4,63;9,57;-4,23;0,31;0,59;0,57;0,00
24.94;-0,73;-0,23;-0,18;-4,03;9,36;-4,10;0,31;0,59;0,57;0,00
24.957;-0,73;-0,23;-0,18;-4,03;9,36;-4,10;-0,14;0,45;1,38;0,00
24.967;-0,91;-1,12;0,32;-4,03;9,36;-4,10;-0,14;0,45;1,38;0,00
25.007;-0,91;-1,12;0,32;-6,83;1,01;-0,02;-0,14;0,45;1,38;0,00
25.008;-0,91;-1,12;0,32;-6,28;0,89;0,05;-0,14;0,45;1,38;0,00
25.036;-0,91;-1,12;0,32;-6,28;0,89;0,05;-0,16;0,16;1,21;0,00
25.038;-0,99;-1,80;0,75;-6,28;0,89;0,05;-0,16;0,16;1,21;0,00
25.076;-0,99;-1,80;0,75;-6,28;0,89;0,05;0,07;1,50;1,04;0,00
25.077;-0,99;-1,80;0,75;-6,13;-5,33;4,23;0,07;1,50;1,04;0,00
25.105;-1,21;-2,43;1,37;-6,13;-5,33;4,23;0,07;1,50;1,04;0,00
25.145;-1,21;-2,43;1,37;-6,94;-12,72;9,47;0,07;1,50;1,04;0,00
25.145;-1,21;-2,43;1,37;-6,20;-12,75;9,60;0,07;1,50;1,04;0,00
25.17;-1,21;-2,43;1,37;-6,20;-12,75;9,60;1,12;4,24;2,06;0,00
25.174;-0,90;-2,30;1,53;-6,20;-12,75;9,60;1,12;4,24;2,06;0,00
25.214;-0,90;-2,30;1,53;-6,42;-15,75;14,31;1,12;4,24;2,06;0,00
25.215;-0,90;-2,30;1,53;-4,99;-16,53;14,22;1,12;4,24;2,06;0,00
25.233;-0,90;-2,30;1,53;-4,99;-16,53;14,22;1,90;2,94;3,96;0,00
25.243;-0,03;-1,54;1,14;-4,99;-16,53;14,22;1,90;2,94;3,96;0,00
25.276;-0,03;-1,54;1,14;-4,99;-16,53;14,22;3,05;4,86;3,18;0,00
25.298;-0,03;-1,54;1,14;5,13;-12,22;12,33;3,05;4,86;3,18;0,00
25.3;-0,03;-1,54;1,14;5,88;-13,10;13,15;3,05;4,86;3,18;0,00
25.312;0,08;-0,66;0,71;5,88;-13,10;13,15;3,05;4,86;3,18;0,00
25.352;0,08;-0,66;0,71;5,88;-13,10;13,15;3,04;4,89;3,36;0,00
25.353;0,08;-0,66;0,71;9,56;-4,59;9,57;3,04;4,89;3,36;0,00
25.386;0,48;-0,47;0,34;9,56;-4,59;9,57;3,04;4,89;3,36;0,00
25.42;0,48;-0,47;0,34;12,82;-1,26;6,50;3,04;4,89;3,36;0,00
25.421;0,48;-0,47;0,34;12,64;-2,12;7,43;3,04;4,89;3,36;0,00
25.431;0,48;-0,47;0,34;12,64;-2,12;7,43;2,63;3,77;3,05;0,00
25.45;0,51;-0,41;0,29;12,64;-2,12;7,43;2,63;3,77;3,05;0,00
25.469;0,51;-0,41;0,29;12,64;-2,12;7,43;2,29;2,29;1,96;0,00
25.491;0,51;-0,41;0,29;13,53;-1,74;6,99;2,29;2,29;1,96;0,00
25.492;0,51;-0,41;0,29;13,12;-1,96;7,38;2,29;2,29;1,96;0,00
25.521;0,16;-0,56;0,05;13,12;-1,96;7,38;2,29;2,29;1,96;0,00
25.552;0,16;-0,56;0,05;13,12;-1,96;7,38;1,64;0,13;-0,61;0,00
25.558;0,16;-0,56;0,05;12,34;-2,72;5,79;1,64;0,13;-0,61;0,00
25.559;0,16;-0,56;0,05;12,06;-2,05;5,43;1,64;0,13;-0,61;0,00
25.588;-0,27;-0,96;-0,06;12,06;-2,05;5,43;1,64;0,13;-0,61;0,00
25.627;-0,27;-0,96;-0,06;12,06;-2,05;5,43;0,42;-2,91;-2,93;0,00
25.628;-0,27;-0,96;-0,06;5,56;-2,70;2,86;0,42;-2,91;-2,93;0,00
25.657;-0,77;-1,65;-0,29;5,56;-2,70;2,86;0,42;-2,91;-2,93;0,00
25.666;-0,77;-1,65;-0,29;5,56;-2,70;2,86;0,15;-2,74;-4,92;0,00
25.696;-0,77;-1,65;-0,29;3,12;-7,82;-0,08;0,15;-2,74;-4,92;0,00
25.697;-0,77;-1,65;-0,29;2,07;-6,39;-0,82;0,15;-2,74;-4,92;0,00
25.726;-1,26;-2,35;-0,16;2,07;-6,39;-0,82;0,15;-2,74;-4,92;0,00
25.746;-1,26;-2,35;-0,16;2,07;-6,39;-0,82;-0,19;-2,64;-4,72;0,00
25.766;-1,26;-2,35;-0,16;-6,53;-13,63;-1,44;-0,19;-2,64;-4,72;0,00
25.767;-1,26;-2,35;-0,16;-7,95;-12,59;-1,80;-0,19;-2,64;-4,72;0,00
25.795;-1,09;-1,77;0,26;-7,95;-12,59;-1,80;-0,19;-2,64;-4,72;0,00
25.824;-1,09;-1,77;0,26;-7,95;-12,59;-1,80;-0,89;-2,49;-3,74;0,00
25.835;-1,09;-1,77;0,26;-8,84;-10,32;0,31;-0,89;-2,49;-3,74;0,00
25.835;-1,09;-1,77;0,26;-9,67;-9,97;0,52;-0,89;-2,49;-3,74;0,00
25.864;-1,06;-0,65;0,24;-9,67;-9,97;0,52;-0,89;-2,49;-3,74;0,00
25.908;-1,06;-0,65;0,24;-9,67;-9,97;0,52;0,18;-0,75;-1,94;0,00
25.91;-1,06;-0,65;0,24;-10,14;-2,23;4,75;0,18;-0,75;-1,94;0,00
25.944;-0,82;0,17;-0,14;-10,14;-2,23;4,75;0,18;-0,75;-1,94;0,00
25.947;-0,82;0,17;-0,14;-10,14;-2,23;4,75;0,35;0,69;-0,56;0,00
25.973;-0,82;0,17;-0,14;-8,43;10,49;-1,29;0,35;0,69;-0,56;0,00
25.974;-0,82;0,17;-0,14;-8,40;10,32;-1,34;0,35;0,69;-0,56;0,00
26.002;-0,67;0,00;-0,14;-8,40;10,32;-1,34;0,35;0,69;-0,56;0,00
26.022;-0,67;0,00;-0,14;-8,40;10,32;-1,34;0,42;1,21;-0,01;0,00
26.042;-0,67;0,00;-0,14;-6,08;10,06;-0,37;0,42;1,21;-0,01;0,00
26.042;-0,67;0,00;-0,14;-5,99;9,89;-0,49;0,42;1,21;-0,01;0,00
26.071;-0,82;-0,81;0,29;-5,99;9,89;-0,49;0,42;1,21;-0,01;0,00
26.1;-0,82;-0,81;0,29;-5,99;9,89;-0,49;0,03;1,98;0,54;0,00
26.11;-0,82;-0,81;0,29;-6,37;5,83;-0,19;0,03;1,98;0,54;0,00
26.111;-0,82;-0,81;0,29;-6,13;5,72;-0,17;0,03;1,98;0,54;0,00
26.139;-0,82;-0,81;0,29;-6,13;5,72;-0,17;0,42;1,69;0,79;0,00
26.14;-0,89;-1,35;0,68;-6,13;5,72;-0,17;0,42;1,69;0,79;0,00
26.179;-0,89;-1,35;0,68;-6,95;-2,24;5,35;0,42;1,69;0,79;0,00
26.209;-0,98;-2,03;1,11;-6,95;-2,24;5,35;0,42;1,69;0,79;0,00
26.219;-0,98;-2,03;1,11;-6,95;-2,24;5,35;0,49;2,26;1,60;0,00
26.26;-0,98;-2,03;1,11;-6,41;-7,33;7,40;0,49;2,26;1,60;0,00
26.264;-0,98;-2,03;1,11;-5,67;-7,39;7,42;0,49;2,26;1,60;0,00
26.282;-0,73;-2,22;1,02;-5,67;-7,39;7,42;0,49;2,26;1,60;0,00
26.298;-0,73;-2,22;1,02;-5,67;-7,39;7,42;1,45;3,93;2,49;0,00
26.318;-0,73;-2,22;1,02;-4,93;-14,12;12,43;1,45;3,93;2,49;0,00
26.32;-0,73;-2,22;1,02;-3,78;-14,45;12,40;1,45;3,93;2,49;0,00
26.337;-0,73;-2,22;1,02;-3,78;-14,45;12,40;1,50;3,64;3,18;0,00
26.348;-0,17;-1,77;0,81;-3,78;-14,45;12,40;1,50;3,64;3,18;0,00
26.386;-0,17;-1,77;0,81;2,27;-10,86;7,63;1,50;3,64;3,18;0,00
26.386;-0,17;-1,77;0,81;3,00;-11,34;7,67;1,50;3,64;3,18;0,00
26.416;-0,17;-1,77;0,81;3,00;-11,34;7,67;1,76;2,56;2,10;0,00
26.416;0,25;-0,77;0,44;3,00;-11,34;7,67;1,76;2,56;2,10;0,00
26.455;0,25;-0,77;0,44;8,88;-4,77;6,02;1,76;2,56;2,10;0,00
26.486;0,25;-0,20;0,08;8,88;-4,77;6,02;1,76;2,56;2,10;0,00
26.503;0,25;-0,20;0,08;8,88;-4,77;6,02;1,82;2,99;1,84;0,00
26.524;0,25;-0,20;0,08;10,26;3,29;2,04;1,82;2,99;1,84;0,00
26.525;0,25;-0,20;0,08;10,49;2,69;2,43;1,82;2,99;1,84;0,00
26.534;0,25;-0,20;0,08;10,49;2,69;2,43;1,31;1,86;1,60;0,00
26.553;0,36;-0,20;-0,01;10,49;2,69;2,43;1,31;1,86;1,60;0,00
26.597;0,36;-0,20;-0,01;11,30;3,70;1,25;1,31;1,86;1,60;0,00
26.598;0,36;-0,20;-0,01;11,25;3,36;1,53;1,31;1,86;1,60;0,00
26.613;0,36;-0,20;-0,01;11,25;3,36;1,53;0,92;1,79;0,66;0,00
26.623;0,14;-0,62;0,14;11,25;3,36;1,53;0,92;1,79;0,66;0,00
26.662;0,14;-0,62;0,14;10,76;1,26;1,62;0,92;1,79;0,66;0,00
26.663;0,14;-0,62;0,14;10,46;1,41;1,63;0,92;1,79;0,66;0,00
26.691;-0,15;-1,21;0,09;10,46;1,41;1,63;0,92;1,79;0,66;0,00
26.692;-0,15;-1,21;0,09;10,46;1,41;1,63;0,80;0,41;-0,85;0,00
26.731;-0,15;-1,21;0,09;6,73;-3,94;3,38;0,80;0,41;-0,85;0,00
26.76;-0,65;-2,07;0,20;6,73;-3,94;3,38;0,80;0,41;-0,85;0,00
26.77;-0,65;-2,07;0,20;6,73;-3,94;3,38;0,62;-0,69;-3,09;0,00
26.8;-0,65;-2,07;0,20;2,65;-8,57;1,44;0,62;-0,69;-3,09;0,00
26.801;-0,65;-2,07;0,20;1,50;-7,49;0,91;0,62;-0,69;-3,09;0,00
26.811;-0,65;-2,07;0,20;1,50;-7,49;0,91;0,08;-2,05;-4,64;0,00
26.829;-1,09;-2,27;0,27;1,50;-7,49;0,91;0,08;-2,05;-4,64;0,00
26.87;-1,09;-2,27;0,27;-5,72;-14,49;3,34;0,08;-2,05;-4,64;0,00
26.87;-1,09;-2,27;0,27;-7,17;-13,75;2,97;0,08;-2,05;-4,64;0,00
26.889;-1,09;-2,27;0,27;-7,17;-13,75;2,97;0,76;-0,38;-3,76;0,00
26.899;-1,27;-1,61;0,11;-7,17;-13,75;2,97;0,76;-0,38;-3,76;0,00
26.938;-1,27;-1,61;0,11;-10,53;-9,87;0,46;0,76;-0,38;-3,76;0,00
26.938;-1,27;-1,61;0,11;-11,08;-9,65;0,26;0,76;-0,38;-3,76;0,00
26.968;-0,80;-0,62;-0,01;-11,08;-9,65;0,26;0,76;-0,38;-3,76;0,00
26.969;-0,80;-0,62;-0,01;-11,08;-9,65;0,26;0,32;-2,21;-1,58;0,00
27.007;-0,80;-0,62;-0,01;-11,08;-9,65;0,26;0,67;-0,17;-0,22;0,00
27.008;-0,80;-0,62;-0,01;-9,76;0,48;0,26;0,67;-0,17;-0,22;0,00
27.036;-0,63;0,07;-0,32;-9,76;0,48;0,26;0,67;-0,17;-0,22;0,00
27.076;-0,63;0,07;-0,32;-5,46;9,01;-4,29;0,67;-0,17;-0,22;0,00
27.077;-0,63;0,07;-0,32;-5,24;8,84;-4,29;0,67;-0,17;-0,22;0,00
27.086;-0,63;0,07;-0,32;-5,24;8,84;-4,29;0,19;0,83;0,31;0,00
27.106;-0,46;-0,04;-0,23;-5,24;8,84;-4,29;0,19;0,83;0,31;0,00
27.145;-0,46;-0,04;-0,23;-4,26;9,63;-3,40;0,19;0,83;0,31;0,00
27.146;-0,46;-0,04;-0,23;-4,01;9,44;-3,38;0,19;0,83;0,31;0,00
27.164;-0,46;-0,04;-0,23;-4,01;9,44;-3,38;0,14;0,72;0,40;0,00
27.174;-0,53;-0,26;-0,17;-4,01;9,44;-3,38;0,14;0,72;0,40;0,00
27.203;-0,53;-0,26;-0,17;-4,01;9,44;-3,38;-0,49;0,96;0,69;0,00
27.215;-0,53;-0,26;-0,17;-2,63;9,21;-4,31;-0,49;0,96;0,69;0,00
27.216;-0,53;-0,26;-0,17;-2,29;9,02;-3,97;-0,49;0,96;0,69;0,00
27.244;-0,86;-1,28;0,46;-2,29;9,02;-3,97;-0,49;0,96;0,69;0,00
27.283;-0,86;-1,28;0,46;-2,29;9,02;-3,97;0,08;0,41;0,60;0,00
27.283;-0,86;-1,28;0,46;-4,42;-0,32;2,13;0,08;0,41;0,60;0,00
27.313;-1,04;-1,74;0,62;-4,42;-0,32;2,13;0,08;0,41;0,60;0,00
27.352;-1,04;-1,74;0,62;-7,33;-4,84;3,88;0,08;0,41;0,60;0,00
27.353;-1,04;-1,74;0,62;-6,59;-4,98;3,80;0,08;0,41;0,60;0,00
27.361;-1,04;-1,74;0,62;-6,59;-4,98;3,80;0,44;0,89;1,62;0,00
27.382;-0,87;-2,12;0,83;-6,59;-4,98;3,80;0,44;0,89;1,62;0,00
27.402;-0,87;-2,12;0,83;-6,59;-4,98;3,80;1,20;3,02;1,79;0,00
27.42;-0,87;-2,12;0,83;-5,13;-11,81;7,13;1,20;3,02;1,79;0,00
27.422;-0,87;-2,12;0,83;-4,29;-11,98;7,15;1,20;3,02;1,79;0,00
27.452;-0,51;-2,04;0,86;-4,29;-11,98;7,15;1,20;3,02;1,79;0,00
27.48;-0,51;-2,04;0,86;-4,29;-11,98;7,15;1,07;3,01;3,23;0,00
27.49;-0,51;-2,04;0,86;-1,02;-11,60;7,11;1,07;3,01;3,23;0,00
27.49;-0,51;-2,04;0,86;0,07;-12,30;7,32;1,07;3,01;3,23;0,00
27.519;0,09;-1,33;0,55;0,07;-12,30;7,32;1,07;3,01;3,23;0,00
27.559;0,09;-1,33;0,55;6,38;-10,81;6,92;1,07;3,01;3,23;0,00
27.56;0,09;-1,33;0,55;6,38;-10,81;6,92;0,97;1,48;2,14;0,00
27.589;0,27;-0,40;0,12;6,38;-10,81;6,92;0,97;1,48;2,14;0,00
27.598;0,27;-0,40;0,12;6,38;-10,81;6,92;1,04;1,60;1,30;0,00
27.627;0,27;-0,40;0,12;10,65;-0,42;2,21;1,04;1,60;1,30;0,00
27.628;0,27;-0,40;0,12;10,80;-0,84;2,44;1,04;1,60;1,30;0,00
27.658;0,41;-0,15;-0,13;10,80;-0,84;2,44;1,04;1,60;1,30;0,00
27.678;0,41;-0,15;-0,13;10,80;-0,84;2,44;0,87;0,94;1,15;0,00
27.696;0,41;-0,15;-0,13;11,50;3,74;-0,24;0,87;0,94;1,15;0,00
27.697;0,41;-0,15;-0,13;11,54;3,31;-0,12;0,87;0,94;1,15;0,00
27.727;0,41;-0,18;-0,16;11,54;3,31;-0,12;0,87;0,94;1,15;0,00
27.757;0,41;-0,18;-0,16;11,54;3,31;-0,12;0,41;0,98;0,39;0,00
27.774;0,41;-0,18;-0,16;12,69;3,43;-1,30;0,41;0,98;0,39;0,00
27.775;0,41;-0,18;-0,16;12,47;3,38;-1,12;0,41;0,98;0,39;0,00
27.795;0,25;-0,72;-0,08;12,47;3,38;-1,12;0,41;0,98;0,39;0,00
27.835;0,25;-0,72;-0,08;12,47;3,38;-1,12;-0,13;-0,33;-0,87;0,00
27.835;0,25;-0,72;-0,08;11,16;1,62;-0,76;-0,13;-0,33;-0,87;0,00
27.864;-0,57;-1,88;0,08;11,16;1,62;-0,76;-0,13;-0,33;-0,87;0,00
27.875;-0,57;-1,88;0,08;11,16;1,62;-0,76;-0,85;-1,34;-2,86;0,00
27.904;-0,57;-1,88;0,08;5,45;-7,96;0,64;-0,85;-1,34;-2,86;0,00
27.904;-0,57;-1,88;0,08;4,62;-7,01;0,44;-0,85;-1,34;-2,86;0,00
27.933;-0,82;-2,58;0,53;4,62;-7,01;0,44;-0,85;-1,34;-2,86;0,00
27.953;-0,82;-2,58;0,53;4,62;-7,01;0,44;-2,03;-3,35;-4,54;0,00
27.972;-0,82;-2,58;0,53;-2,16;-16,21;2,59;-2,03;-3,35;-4,54;0,00
27.974;-0,82;-2,58;0,53;-3,72;-15,10;2,63;-2,03;-3,35;-4,54;0,00
28.003;-1,11;-2,22;0,68;-3,72;-15,10;2,63;-2,03;-3,35;-4,54;0,00
28.032;-1,11;-2,22;0,68;-3,72;-15,10;2,63;-0,78;-2,14;-4,02;0,00
28.041;-1,11;-2,22;0,68;-7,52;-13,49;7,17;-0,78;-2,14;-4,02;0,00
28.042;-1,11;-2,22;0,68;-8,53;-13,07;7,08;-0,78;-2,14;-4,02;0,00
28.071;-1,11;-1,16;0,48;-8,53;-13,07;7,08;-0,78;-2,14;-4,02;0,00
28.072;-1,11;-1,16;0,48;-8,53;-13,07;7,08;-0,13;-2,10;-2,00;0,00
28.111;-1,11;-1,16;0,48;-10,98;-6,66;5,78;-0,13;-2,10;-2,00;0,00
28.139;-0,75;0,05;-0,23;-10,98;-6,66;5,78;-0,13;-2,10;-2,00;0,00
28.15;-0,75;0,05;-0,23;-10,98;-6,66;5,78;0,26;-1,16;-0,63;0,00
28.179;-0,75;0,05;-0,23;-7,76;6,34;-0,33;0,26;-1,16;-0,63;0,00
28.18;-0,75;0,05;-0,23;-7,84;6,24;-0,38;0,26;-1,16;-0,63;0,00
28.209;-0,75;0,13;-0,09;-7,84;6,24;-0,38;0,26;-1,16;-0,63;0,00
28.228;-0,75;0,13;-0,09;-7,84;6,24;-0,38;-0,21;-0,36;0,08;0,00
28.248;-0,75;0,13;-0,09;-7,08;12,13;-2,01;-0,21;-0,36;0,08;0,00
28.249;-0,75;0,13;-0,09;-6,81;11,92;-1,95;-0,21;-0,36;0,08;0,00
28.268;-0,75;0,13;-0,09;-6,81;11,92;-1,95;-0,11;-0,20;0,53;0,00
28.278;-0,66;0,08;-0,09;-6,81;11,92;-1,95;-0,11;-0,20;0,53;0,00
28.317;-0,66;0,08;-0,09;-5,46;10,77;-1,47;-0,11;-0,20;0,53;0,00
28.318;-0,66;0,08;-0,09;-5,01;10,54;-1,39;-0,11;-0,20;0,53;0,00
28.347;-0,81;-0,89;0,26;-5,01;10,54;-1,39;-0,11;-0,20;0,53;0,00
28.348;-0,81;-0,89;0,26;-5,01;10,54;-1,39;-0,14;-0,21;1,15;0,00
28.387;-0,81;-0,89;0,26;-4,92;5,93;0,51;-0,14;-0,21;1,15;0,00
28.421;-1,19;-1,72;0,58;-4,92;5,93;0,51;-0,14;-0,21;1,15;0,00
28.436;-1,19;-1,72;0,58;-4,92;5,93;0,51;0,44;-0,36;1,53;0,00
28.455;-1,19;-1,72;0,58;-7,62;-5,04;4,41;0,44;-0,36;1,53;0,00
28.455;-1,19;-1,72;0,58;-6,83;-5,20;4,06;0,44;-0,36;1,53;0,00
28.465;-1,19;-1,72;0,58;-6,83;-5,20;4,06;1,17;0,30;2,35;0,00
28.486;-1,10;-2,31;0,90;-6,83;-5,20;4,06;1,17;0,30;2,35;0,00
28.524;-1,10;-2,31;0,90;-7,24;-12,94;6,53;1,17;0,30;2,35;0,00
28.526;-1,10;-2,31;0,90;-6,29;-13,25;6,10;1,17;0,30;2,35;0,00
28.544;-1,10;-2,31;0,90;-6,29;-13,25;6,10;2,45;3,64;2,52;0,00
28.554;-0,60;-2,18;0,77;-6,29;-13,25;6,10;2,45;3,64;2,52;0,00
28.594;-0,60;-2,18;0,77;-1,38;-13,54;6,49;2,45;3,64;2,52;0,00
28.595;-0,60;-2,18;0,77;-0,28;-14,24;6,96;2,45;3,64;2,52;0,00
28.625;-0,60;-2,18;0,77;-0,28;-14,24;6,96;2,15;3,74;2,71;0,00
28.626;-0,16;-1,41;0,47;-0,28;-14,24;6,96;2,15;3,74;2,71;0,00
28.665;-0,16;-1,41;0,47;4,66;-11,60;5,88;2,15;3,74;2,71;0,00
28.691;0,08;-0,65;0,07;4,66;-11,60;5,88;2,15;3,74;2,71;0,00
28.702;0,08;-0,65;0,07;4,66;-11,60;5,88;1,73;2,32;1,66;0,00
28.731;0,08;-0,65;0,07;9,30;-3,21;0,71;1,73;2,32;1,66;0,00
28.733;0,08;-0,65;0,07;9,50;-3,68;1,51;1,73;2,32;1,66;0,00
28.741;0,08;-0,65;0,07;9,50;-3,68;1,51;1,29;2,40;1,82;0,00
28.761;0,24;-0,34;0,00;9,50;-3,68;1,51;1,29;2,40;1,82;0,00
28.8;0,24;-0,34;0,00;9,76;1,25;1,59;1,29;2,40;1,82;0,00
28.801;0,24;-0,34;0,00;9,95;0,51;1,51;1,29;2,40;1,82;0,00
28.82;0,24;-0,34;0,00;9,95;0,51;1,51;1,07;0,97;1,81;0,00
28.831;0,35;-0,30;-0,15;9,95;0,51;1,51;1,07;0,97;1,81;0,00
28.869;0,35;-0,30;-0,15;13,30;0,56;-0,44;1,07;0,97;1,81;0,00
28.87;0,35;-0,30;-0,15;13,08;0,24;0,31;1,07;0,97;1,81;0,00
28.901;0,35;-0,30;-0,15;13,08;0,24;0,31;0,52;2,10;0,89;0,00
28.902;0,16;-0,48;-0,14;13,08;0,24;0,31;0,52;2,10;0,89;0,00
28.938;0,16;-0,48;-0,14;10,79;-0,09;1,04;0,52;2,10;0,89;0,00
28.939;0,16;-0,48;-0,14;10,79;-0,09;1,04;-0,46;-0,28;-0,46;0,00
28.967;-0,27;-0,96;-0,04;10,79;-0,09;1,04;-0,46;-0,28;-0,46;0,00
29.007;-0,27;-0,96;-0,04;8,13;-4,06;0,38;-0,46;-0,28;-0,46;0,00
29.007;-0,27;-0,96;-0,04;7,83;-3,49;0,14;-0,46;-0,28;-0,46;0,00
29.017;-0,27;-0,96;-0,04;7,83;-3,49;0,14;-1,81;-2,29;-2,65;0,00
29.036;-0,89;-1,78;0,25;7,83;-3,49;0,14;-1,81;-2,29;-2,65;0,00
29.076;-0,89;-1,78;0,25;3,27;-8,05;2,07;-1,81;-2,29;-2,65;0,00
29.077;-0,89;-1,78;0,25;2,25;-6,66;1,72;-1,81;-2,29;-2,65;0,00
29.095;-0,89;-1,78;0,25;2,25;-6,66;1,72;-2,45;-3,14;-4,54;0,00
29.105;-1,82;-1,73;0,52;2,25;-6,66;1,72;-2,45;-3,14;-4,54;0,00
29.14;-1,82;-1,73;0,52;2,25;-6,66;1,72;-1,29;-3,50;-2,76;0,00
29.145;-1,82;-1,73;0,52;-11,70;-11,35;5,72;-1,29;-3,50;-2,76;0,00
29.146;-1,82;-1,73;0,52;-12,30;-10,59;5,24;-1,29;-3,50;-2,76;0,00
29.176;-1,08;-1,58;0,43;-12,30;-10,59;5,24;-1,29;-3,50;-2,76;0,00
29.214;-1,08;-1,58;0,43;-12,30;-10,59;5,24;-1,17;-1,16;-2,57;0,00
29.215;-1,08;-1,58;0,43;-7,18;-7,28;3,06;-1,17;-1,16;-2,57;0,00
29.243;-1,04;-0,86;0,57;-7,18;-7,28;3,06;-1,17;-1,16;-2,57;0,00
29.283;-1,04;-0,86;0,57;-7,40;-2,23;6,23;-1,17;-1,16;-2,57;0,00
29.284;-1,04;-0,86;0,57;-8,07;-1,92;5,84;-1,17;-1,16;-2,57;0,00
29.293;-1,04;-0,86;0,57;-8,07;-1,92;5,84;0,04;-2,53;-1,94;0,00
29.312;-0,64;-0,04;0,02;-8,07;-1,92;5,84;0,04;-2,53;-1,94;0,00
29.332;-0,64;-0,04;0,02;-8,07;-1,92;5,84;0,97;0,25;-1,32;0,00
29.352;-0,64;-0,04;0,02;-4,93;5,83;2,02;0,97;0,25;-1,32;0,00
29.353;-0,64;-0,04;0,02;-5,33;5,82;1,63;0,97;0,25;-1,32;0,00
29.382;-0,76;0,15;-0,36;-5,33;5,82;1,63;0,97;0,25;-1,32;0,00
29.412;-0,76;0,15;-0,36;-5,33;5,82;1,63;0,51;0,69;-0,33;0,00
29.422;-0,76;0,15;-0,36;-4,83;11,42;-4,19;0,51;0,69;-0,33;0,00
29.423;-0,76;0,15;-0,36;-4,81;11,23;-4,21;0,51;0,69;-0,33;0,00
29.45;-0,79;-0,09;-0,36;-4,81;11,23;-4,21;0,51;0,69;-0,33;0,00
29.491;-0,79;-0,09;-0,36;-4,81;11,23;-4,21;-0,04;-0,02;0,60;0,00
29.492;-0,79;-0,09;-0,36;-5,09;9,59;-4,75;-0,04;-0,02;0,60;0,00
29.519;-1,06;-0,94;0,05;-5,09;9,59;-4,75;-0,04;-0,02;0,60;0,00
29.559;-1,06;-0,94;0,05;-5,91;3,82;-3,39;-0,04;-0,02;0,60;0,00
29.56;-1,06;-0,94;0,05;-5,61;3,72;-3,16;-0,04;-0,02;0,60;0,00
29.568;-1,06;-0,94;0,05;-5,61;3,72;-3,16;-0,56;-0,17;0,60;0,00
29.588;-1,08;-1,45;0,65;-5,61;3,72;-3,16;-0,56;-0,17;0,60;0,00
29.608;-1,08;-1,45;0,65;-5,61;3,72;-3,16;0,22;1,46;1,10;0,00
29.628;-1,08;-1,45;0,65;-8,00;-3,26;3,66;0,22;1,46;1,10;0,00
29.629;-1,08;-1,45;0,65;-7,40;-3,39;3,74;0,22;1,46;1,10;0,00
29.658;-1,10;-1,80;1,40;-7,40;-3,39;3,74;0,22;1,46;1,10;0,00
29.687;-1,10;-1,80;1,40;-7,40;-3,39;3,74;1,27;3,96;0,82;0,00
29.701;-1,10;-1,80;1,40;-5,70;-7,90;10,02;1,27;3,96;0,82;0,00
29.703;-1,10;-1,80;1,40;-5,17;-7,99;10,08;1,27;3,96;0,82;0,00
29.727;-1,00;-2,14;1,46;-5,17;-7,99;10,08;1,27;3,96;0,82;0,00
29.766;-1,00;-2,14;1,46;-5,17;-7,99;10,08;2,10;5,26;1,71;0,00
29.767;-1,00;-2,14;1,46;-4,44;-10,71;13,66;2,10;5,26;1,71;0,00
29.795;-0,68;-1,42;1,14;-4,44;-10,71;13,66;2,10;5,26;1,71;0,00
29.805;-0,68;-1,42;1,14;-4,44;-10,71;13,66;1,85;3,65;2,52;0,00
29.841;-0,68;-1,42;1,14;-2,39;-10,80;13,88;1,85;3,65;2,52;0,00
29.843;-0,68;-1,42;1,14;-1,59;-11,31;14,00;1,85;3,65;2,52;0,00
29.867;-0,16;-0,56;0,72;-1,59;-11,31;14,00;1,85;3,65;2,52;0,00
29.884;-0,16;-0,56;0,72;-1,59;-11,31;14,00;1,77;3,66;2,96;0,00
29.904;-0,16;-0,56;0,72;4,91;-1,45;8,32;1,77;3,66;2,96;0,00
29.905;-0,16;-0,56;0,72;5,45;-2,36;8,99;1,77;3,66;2,96;0,00
29.934;0,22;-0,36;0,48;5,45;-2,36;8,99;1,77;3,66;2,96;0,00
29.963;0,22;-0,36;0,48;5,45;-2,36;8,99;2,12;3,47;3,10;0,00
29.973;0,22;-0,36;0,48;9,09;1,00;7,78;2,12;3,47;3,10;0,00
29.973;0,22;-0,36;0,48;9,15;0,17;8,45;2,12;3,47;3,10;0,00
30.002;0,30;-0,46;0,39;9,15;0,17;8,45;2,12;3,47;3,10;0,00
30.003;0,30;-0,46;0,39;9,15;0,17;8,45;2,04;3,44;2,44;0,00
30.042;0,30;-0,46;0,39;12,25;-0,34;7,00;2,04;3,44;2,44;0,00
30.071;0,18;-0,59;0,35;12,25;-0,34;7,00;2,04;3,44;2,44;0,00
30.082;0,18;-0,59;0,35;12,25;-0,34;7,00;2,35;2,07;1,27;0,00
30.111;0,18;-0,59;0,35;10,83;-2,44;7,82;2,35;2,07;1,27;0,00
30.112;0,18;-0,59;0,35;10,51;-2,28;7,90;2,35;2,07;1,27;0,00
30.14;-0,34;-0,78;-0,01;10,51;-2,28;7,90;2,35;2,07;1,27;0,00
30.16;-0,34;-0,78;-0,01;10,51;-2,28;7,90;2,51;0,20;-0,99;0,00
30.18;-0,34;-0,78;-0,01;6,46;-2,28;5,38;2,51;0,20;-0,99;0,00
30.18;-0,34;-0,78;-0,01;6,13;-1,36;4,63;2,51;0,20;-0,99;0,00
30.199;-0,34;-0,78;-0,01;6,13;-1,36;4,63;1,84;-1,13;-3,61;0,00
30.21;-0,47;-1,46;-0,37;6,13;-1,36;4,63;1,84;-1,13;-3,61;0,00
30.253;-0,47;-1,46;-0,37;2,71;-5,08;0,41;1,84;-1,13;-3,61;0,00
30.254;-0,47;-1,46;-0,37;1,59;-3,82;-0,30;1,84;-1,13;-3,61;0,00
30.278;-1,02;-2,20;-0,64;1,59;-3,82;-0,30;1,84;-1,13;-3,61;0,00
30.279;-1,02;-2,20;-0,64;1,59;-3,82;-0,30;1,88;0,65;-3,87;0,00
30.318;-1,02;-2,20;-0,64;-2,57;-10,28;-5,79;1,88;0,65;-3,87;0,00
30.348;-0,99;-1,75;-0,13;-2,57;-10,28;-5,79;1,88;0,65;-3,87;0,00
30.357;-0,99;-1,75;-0,13;-2,57;-10,28;-5,79;0,76;-1,90;-3,41;0,00
30.387;-0,99;-1,75;-0,13;-8,25;-11,29;-1,71;0,76;-1,90;-3,41;0,00
30.388;-0,99;-1,75;-0,13;-9,29;-10,70;-2,23;0,76;-1,90;-3,41;0,00
30.416;-1,03;-1,08;0,10;-9,29;-10,70;-2,23;0,76;-1,90;-3,41;0,00
30.435;-1,03;-1,08;0,10;-9,29;-10,70;-2,23;-0,16;-2,58;-2,38;0,00
30.455;-1,03;-1,08;0,10;-6,86;-3,86;-0,13;-0,16;-2,58;-2,38;0,00
30.456;-1,03;-1,08;0,10;-7,33;-3,72;-0,32;-0,16;-2,58;-2,38;0,00
30.475;-1,03;-1,08;0,10;-7,33;-3,72;-0,32;1,35;0,45;-0,86;0,00
30.485;-0,85;0,07;-0,55;-7,33;-3,72;-0,32;1,35;0,45;-0,86;0,00
30.524;-0,85;0,07;-0,55;-9,35;6,05;-1,50;1,35;0,45;-0,86;0,00
30.525;-0,85;0,07;-0,55;-9,06;5,91;-1,76;1,35;0,45;-0,86;0,00
30.555;-0,85;0,07;-0,55;-9,06;5,91;-1,76;0,39;1,04;0,56;0,00
30.556;-0,63;0,08;-0,33;-9,06;5,91;-1,76;0,39;1,04;0,56;0,00
30.594;-0,63;0,08;-0,33;-4,53;11,56;-6,84;0,39;1,04;0,56;0,00
30.624;-0,63;-0,11;-0,06;-4,53;11,56;-6,84;0,39;1,04;0,56;0,00
30.632;-0,63;-0,11;-0,06;-4,53;11,56;-6,84;0,35;1,66;1,28;0,00
30.662;-0,63;-0,11;-0,06;-3,71;9,67;-2,06;0,35;1,66;1,28;0,00
30.663;-0,63;-0,11;-0,06;-3,07;9,34;-1,97;0,35;1,66;1,28;0,00
30.672;-0,63;-0,11;-0,06;-3,07;9,34;-1,97;-0,01;1,08;1,35;0,00
30.692;-0,83;-0,96;0,70;-3,07;9,34;-1,97;-0,01;1,08;1,35;0,00
30.732;-0,83;-0,96;0,70;-3,69;3,11;2,95;-0,01;1,08;1,35;0,00
30.732;-0,83;-0,96;0,70;-3,47;3,00;2,92;-0,01;1,08;1,35;0,00
30.751;-0,83;-0,96;0,70;-3,47;3,00;2,92;0,57;0,80;0,29;0,00
30.761;-0,99;-1,56;1,12;-3,47;3,00;2,92;0,57;0,80;0,29;0,00
30.801;-0,99;-1,56;1,12;-4,97;-3,91;9,55;0,57;0,80;0,29;0,00
30.802;-0,99;-1,56;1,12;-4,83;-3,88;9,29;0,57;0,80;0,29;0,00
30.83;-1,46;-2,04;1,14;-4,83;-3,88;9,29;0,57;0,80;0,29;0,00
30.831;-1,46;-2,04;1,14;-4,83;-3,88;9,29;1,41;2,60;0,08;0,00
30.887;-1,46;-2,04;1,14;-4,83;-3,88;9,29;1,74;4,34;1,89;0,00
30.889;-1,46;-2,04;1,14;-7,97;-9,56;10,24;1,74;4,34;1,89;0,00
30.92;-0,94;-2,32;1,24;-7,97;-9,56;10,24;1,74;4,34;1,89;0,00
30.938;-0,94;-2,32;1,24;-7,58;-13,60;10,58;1,74;4,34;1,89;0,00
30.939;-0,94;-2,32;1,24;-6,24;-14,27;10,62;1,74;4,34;1,89;0,00
30.948;-0,94;-2,32;1,24;-6,24;-14,27;10,62;1,54;2,57;3,70;0,00
30.968;-0,05;-1,53;0,84;-6,24;-14,27;10,62;1,54;2,57;3,70;0,00
31.007;-0,05;-1,53;0,84;4,51;-13,12;9,69;1,54;2,57;3,70;0,00
31.008;-0,05;-1,53;0,84;5,30;-14,00;9,90;1,54;2,57;3,70;0,00
31.03;-0,05;-1,53;0,84;5,30;-14,00;9,90;1,77;2,30;3,11;0,00
31.036;0,27;-0,61;0,31;5,30;-14,00;9,90;1,77;2,30;3,11;0,00
31.066;0,27;-0,61;0,31;5,30;-14,00;9,90;1,92;2,36;2,62;0,00
31.077;0,27;-0,61;0,31;11,12;-3,42;4,57;1,92;2,36;2,62;0,00
31.078;0,27;-0,61;0,31;11,41;-4,33;5,02;1,92;2,36;2,62;0,00
31.106;0,45;-0,39;0,05;11,41;-4,33;5,02;1,92;2,36;2,62;0,00
31.145;0,45;-0,39;0,05;11,41;-4,33;5,02;1,86;1,23;1,91;0,00
31.146;0,45;-0,39;0,05;12,59;-1,47;2,02;1,86;1,23;1,91;0,00
31.175;0,50;-0,35;-0,22;12,59;-1,47;2,02;1,86;1,23;1,91;0,00
31.231;0,50;-0,35;-0,22;15,62;-0,39;-1,29;1,86;1,23;1,91;0,00
31.234;0,50;-0,35;-0,22;15,37;-0,74;-0,48;1,86;1,23;1,91;0,00
31.235;0,50;-0,35;-0,22;15,37;-0,74;-0,48;1,30;2,24;0,87;0,00
31.276;-0,08;-0,85;-0,26;15,37;-0,74;-0,48;1,30;2,24;0,87;0,00
31.284;-0,08;-0,85;-0,26;10,60;-3,72;-0,02;1,30;2,24;0,87;0,00
31.285;-0,08;-0,85;-0,26;10,31;-3,36;0,12;1,30;2,24;0,87;0,00
31.303;-0,08;-0,85;-0,26;10,31;-3,36;0,12;0,39;0,46;-0,83;0,00
31.313;-0,65;-1,46;-0,32;10,31;-3,36;0,12;0,39;0,46;-0,83;0,00
31.342;-0,65;-1,46;-0,32;10,31;-3,36;0,12;-1,46;-2,41;-3,67;0,00
31.352;-0,65;-1,46;-0,32;4,19;-7,73;-1,75;-1,46;-2,41;-3,67;0,00
31.354;-0,65;-1,46;-0,32;3,61;-6,36;-2,37;-1,46;-2,41;-3,67;0,00
31.383;-1,10;-2,00;0,19;3,61;-6,36;-2,37;-1,46;-2,41;-3,67;0,00
31.421;-1,10;-2,00;0,19;3,61;-6,36;-2,37;-1,87;-2,65;-5,35;0,00
31.422;-1,10;-2,00;0,19;-2,16;-11,92;0,17;-1,87;-2,65;-5,35;0,00
31.451;-0,90;-2,08;0,66;-2,16;-11,92;0,17;-1,87;-2,65;-5,35;0,00
31.49;-0,90;-2,08;0,66;-4,72;-12,05;5,34;-1,87;-2,65;-5,35;0,00
31.491;-0,90;-2,08;0,66;-6,36;-10,90;5,04;-1,87;-2,65;-5,35;0,00
31.499;-0,90;-2,08;0,66;-6,36;-10,90;5,04;-1,09;-3,23;-5,36;0,00
31.519;-1,07;-1,48;0,69;-6,36;-10,90;5,04;-1,09;-3,23;-5,36;0,00
31.54;-1,07;-1,48;0,69;-6,36;-10,90;5,04;-0,40;-2,65;-4,08;0,00
31.559;-1,07;-1,48;0,69;-7,06;-8,12;7,49;-0,40;-2,65;-4,08;0,00
31.56;-1,07;-1,48;0,69;-8,41;-7,80;7,36;-0,40;-2,65;-4,08;0,00
31.589;-0,99;-0,37;0,18;-8,41;-7,80;7,36;-0,40;-2,65;-4,08;0,00
31.62;-0,99;-0,37;0,18;-8,41;-7,80;7,36;-0,04;-2,45;-1,89;0,00
31.628;-0,99;-0,37;0,18;-11,16;1,96;3,90;-0,04;-2,45;-1,89;0,00
31.629;-0,99;-0,37;0,18;-11,53;1,91;3,85;-0,04;-2,45;-1,89;0,00
31.658;-0,83;0,12;-0,05;-11,53;1,91;3,85;-0,04;-2,45;-1,89;0,00
31.697;-0,83;0,12;-0,05;-11,53;1,91;3,85;-0,00;0,02;-0,58;0,00
31.698;-0,83;0,12;-0,05;-8,78;10,04;-0,36;-0,00;0,02;-0,58;0,00
31.727;-0,78;-0,04;-0,11;-8,78;10,04;-0,36;-0,00;0,02;-0,58;0,00
31.757;-0,78;-0,04;-0,11;-8,78;10,04;-0,36;-0,09;-0,32;-0,10;0,00
31.767;-0,78;-0,04;-0,11;-8,45;10,80;-0,89;-0,09;-0,32;-0,10;0,00
31.768;-0,78;-0,04;-0,11;-8,34;10,62;-0,84;-0,09;-0,32;-0,10;0,00
31.795;-1,02;-0,85;0,22;-8,34;10,62;-0,84;-0,09;-0,32;-0,10;0,00
31.82;-1,02;-0,85;0,22;-8,34;10,62;-0,84;0,04;0,38;0,60;0,00
31.847;-1,02;-0,85;0,22;-8,81;4,74;0,48;0,04;0,38;0,60;0,00
31.848;-1,02;-0,85;0,22;-8,40;4,66;0,41;0,04;0,38;0,60;0,00
31.864;-1,11;-1,78;0,51;-8,40;4,66;0,41;0,04;0,38;0,60;0,00
31.894;-1,11;-1,78;0,51;-8,40;4,66;0,41;0,53;0,93;1,76;0,00
31.904;-1,11;-1,78;0,51;-9,88;-3,28;3,17;0,53;0,93;1,76;0,00
31.905;-1,11;-1,78;0,51;-8,82;-3,37;2,95;0,53;0,93;1,76;0,00
31.934;-1,11;-1,78;0,51;-8,82;-3,37;2,95;1,14;2,34;2,90;0,00
31.934;-1,11;-2,76;0,92;-8,82;-3,37;2,95;1,14;2,34;2,90;0,00
31.973;-1,11;-2,76;0,92;-7,73;-15,12;7,19;1,14;2,34;2,90;0,00
32.002;-0,65;-2,54;0,82;-7,73;-15,12;7,19;1,14;2,34;2,90;0,00
32.012;-0,65;-2,54;0,82;-7,73;-15,12;7,19;1,52;3,62;4,70;0,00
32.044;-0,65;-2,54;0,82;-4,02;-16,98;7,10;1,52;3,62;4,70;0,00
32.045;-0,65;-2,54;0,82;-2,20;-17,89;7,34;1,52;3,62;4,70;0,00
32.071;-0,05;-1,95;0,65;-2,20;-17,89;7,34;1,52;3,62;4,70;0,00
32.091;-0,05;-1,95;0,65;-2,20;-17,89;7,34;1,49;2,49;4,81;0,00
32.112;-0,05;-1,95;0,65;5,22;-16,59;7,59;1,49;2,49;4,81;0,00
32.113;-0,05;-1,95;0,65;6,10;-17,70;7,78;1,49;2,49;4,81;0,00
32.14;0,48;-0,81;0,20;6,10;-17,70;7,78;1,49;2,49;4,81;0,00
32.171;0,48;-0,81;0,20;6,10;-17,70;7,78;1,53;2,36;3,10;0,00
32.179;0,48;-0,81;0,20;12,26;-7,74;3,64;1,53;2,36;3,10;0,00
32.18;0,48;-0,81;0,20;12,41;-8,52;4,18;1,53;2,36;3,10;0,00
32.211;0,48;-0,81;0,20;12,41;-8,52;4,18;1,41;1,64;2,20;0,00
32.212;0,77;-0,32;0,01;12,41;-8,52;4,18;1,41;1,64;2,20;0,00
32.249;0,77;-0,32;0,01;15,77;-1,31;2,21;1,41;1,64;2,20;0,00
32.278;0,77;-0,30;-0,12;15,77;-1,31;2,21;1,41;1,64;2,20;0,00
32.296;0,77;-0,30;-0,12;15,77;-1,31;2,21;1,18;1,30;0,95;0,00
32.318;0,77;-0,30;-0,12;17,96;0,14;0,22;1,18;1,30;0,95;0,00
32.319;0,77;-0,30;-0,12;17,60;0,05;0,70;1,18;1,30;0,95;0,00
32.349;0,23;-0,80;-0,12;17,60;0,05;0,70;1,18;1,30;0,95;0,00
32.367;0,23;-0,80;-0,12;17,60;0,05;0,70;0,57;0,49;-0,77;0,00
32.388;0,23;-0,80;-0,12;13,47;-2,37;0,98;0,57;0,49;-0,77;0,00
32.39;0,23;-0,80;-0,12;13,04;-1,62;0,68;0,57;0,49;-0,77;0,00
32.407;0,23;-0,80;-0,12;13,04;-1,62;0,68;-0,77;-1,37;-3,10;0,00
32.416;-0,78;-1,61;0,01;13,04;-1,62;0,68;-0,77;-1,37;-3,10;0,00
32.457;-0,78;-1,61;0,01;4,25;-7,58;0,59;-0,77;-1,37;-3,10;0,00
32.457;-0,78;-1,61;0,01;3,38;-6,23;-0,09;-0,77;-1,37;-3,10;0,00
32.486;-1,34;-2,27;0,35;3,38;-6,23;-0,09;-0,77;-1,37;-3,10;0,00
32.487;-1,34;-2,27;0,35;3,38;-6,23;-0,09;-2,56;-4,02;-5,16;0,00
32.524;-1,34;-2,27;0,35;-5,24;-12,77;1,96;-2,56;-4,02;-5,16;0,00
32.554;-1,41;-1,85;0,68;-5,24;-12,77;1,96;-2,56;-4,02;-5,16;0,00
32.564;-1,41;-1,85;0,68;-5,24;-12,77;1,96;-2,05;-3,26;-4,88;0,00
32.594;-1,41;-1,85;0,68;-11,41;-11,46;6,60;-2,05;-3,26;-4,88;0,00
32.595;-1,41;-1,85;0,68;-12,50;-10,77;6,30;-2,05;-3,26;-4,88;0,00
32.604;-1,41;-1,85;0,68;-12,50;-10,77;6,30;-0,51;-3,12;-3,15;0,00
32.623;-0,97;-1,46;0,59;-12,50;-10,77;6,30;-0,51;-3,12;-3,15;0,00
32.662;-0,97;-1,46;0,59;-7,83;-7,08;6,09;-0,51;-3,12;-3,15;0,00
32.663;-0,97;-1,46;0,59;-8,67;-6,81;5,93;-0,51;-3,12;-3,15;0,00
32.682;-0,97;-1,46;0,59;-8,67;-6,81;5,93;0,57;0,76;-1,89;0,00
32.694;-0,96;-0,33;0,14;-8,67;-6,81;5,93;0,57;0,76;-1,89;0,00
32.732;-0,96;-0,33;0,14;-9,78;2,12;3,46;0,57;0,76;-1,89;0,00
32.733;-0,96;-0,33;0,14;-9,72;2,06;3,04;0,57;0,76;-1,89;0,00
32.761;-0,96;-0,33;0,14;-9,72;2,06;3,04;0,86;-0,24;-0,16;0,00
32.762;-0,53;0,15;-0,31;-9,72;2,06;3,04;0,86;-0,24;-0,16;0,00
32.8;-0,53;0,15;-0,31;-9,72;2,06;3,04;0,28;-0,10;0,28;0,00
32.801;-0,53;0,15;-0,31;-5,21;10,25;-3,04;0,28;-0,10;0,28;0,00
32.83;-0,75;-0,22;-0,24;-5,21;10,25;-3,04;0,28;-0,10;0,28;0,00
32.869;-0,75;-0,22;-0,24;-5,14;9,81;-3,58;0,28;-0,10;0,28;0,00
32.87;-0,75;-0,22;-0,24;-4,75;9,60;-3,58;0,28;-0,10;0,28;0,00
32.879;-0,75;-0,22;-0,24;-4,75;9,60;-3,58;0,04;0,17;1,05;0,00
32.899;-0,90;-0,76;-0,33;-4,75;9,60;-3,58;0,04;0,17;1,05;0,00
32.938;-0,90;-0,76;-0,33;-6,24;4,04;-4,32;0,04;0,17;1,05;0,00
32.939;-0,90;-0,76;-0,33;-5,60;3,86;-4,06;0,04;0,17;1,05;0,00
32.958;-0,90;-0,76;-0,33;-5,60;3,86;-4,06;-0,50;0,51;1,47;0,00
32.968;-1,05;-1,51;0,11;-5,60;3,86;-4,06;-0,50;0,51;1,47;0,00
33.008;-1,05;-1,51;0,11;-5,55;-1,68;-2,84;-0,50;0,51;1,47;0,00
33.009;-1,05;-1,51;0,11;-4,95;-1,85;-2,58;-0,50;0,51;1,47;0,00
33.037;-1,05;-1,51;0,11;-4,95;-1,85;-2,58;-0,72;-0,27;1,48;0,00
33.038;-1,44;-2,10;1,03;-4,95;-1,85;-2,58;-0,72;-0,27;1,48;0,00
33.076;-1,44;-2,10;1,03;-4,95;-1,85;-2,58;1,20;2,78;2,27;0,00
33.077;-1,44;-2,10;1,03;-8,75;-11,65;7,33;1,20;2,78;2,27;0,00
33.106;-0,74;-1,72;1,08;-8,75;-11,65;7,33;1,20;2,78;2,27;0,00
33.145;-0,74;-1,72;1,08;-5,21;-9,40;9,57;1,20;2,78;2,27;0,00
33.146;-0,74;-1,72;1,08;-4,19;-9,96;9,81;1,20;2,78;2,27;0,00
33.155;-0,74;-1,72;1,08;-4,19;-9,96;9,81;1,75;3,91;2,77;0,00
33.175;-0,31;-1,39;1,09;-4,19;-9,96;9,81;1,75;3,91;2,77;0,00
33.215;-0,31;-1,39;1,09;3,22;-8,93;12,18;1,75;3,91;2,77;0,00
33.217;-0,31;-1,39;1,09;3,59;-9,32;12,73;1,75;3,91;2,77;0,00
33.234;-0,31;-1,39;1,09;3,59;-9,32;12,73;2,26;4,63;2,06;0,00
33.244;0,01;-0,58;0,43;3,59;-9,32;12,73;2,26;4,63;2,06;0,00
33.273;0,01;-0,58;0,43;3,59;-9,32;12,73;2,12;4,41;2,26;0,00
33.283;0,01;-0,58;0,43;6,27;-2,67;8,39;2,12;4,41;2,26;0,00
33.284;0,01;-0,58;0,43;6,37;-3,18;9,11;2,12;4,41;2,26;0,00
33.313;0,24;-0,41;0,19;6,37;-3,18;9,11;2,12;4,41;2,26;0,00
33.352;0,24;-0,41;0,19;6,37;-3,18;9,11;1,48;3,64;2,50;0,00
33.352;0,24;-0,41;0,19;9,86;1,62;5,35;1,48;3,64;2,50;0,00
33.382;0,50;-0,61;0,10;9,86;1,62;5,35;1,48;3,64;2,50;0,00
33.421;0,50;-0,61;0,10;11,17;-0,61;5,53;1,48;3,64;2,50;0,00
33.422;0,50;-0,61;0,10;11,10;-0,92;5,56;1,48;3,64;2,50;0,00
33.443;0,50;-0,61;0,10;11,10;-0,92;5,56;0,89;0,88;1,29;0,00
33.451;0,18;-0,83;0,01;11,10;-0,92;5,56;0,89;0,88;1,29;0,00
33.47;0,18;-0,83;0,01;11,10;-0,92;5,56;0,49;-0,45;-1,17;0,00
33.49;0,18;-0,83;0,01;11,79;-2,85;4,14;0,49;-0,45;-1,17;0,00
33.491;0,18;-0,83;0,01;11,44;-2,33;3,81;0,49;-0,45;-1,17;0,00
33.519;-0,16;-1,33;-0,11;11,44;-2,33;3,81;0,49;-0,45;-1,17;0,00
33.55;-0,16;-1,33;-0,11;11,44;-2,33;3,81;-0,18;-4,00;-3,41;0,00
33.573;-0,16;-1,33;-0,11;5,82;-4,72;1,54;-0,18;-4,00;-3,41;0,00
33.574;-0,16;-1,33;-0,11;5,08;-3,62;0,43;-0,18;-4,00;-3,41;0,00
33.612;-0,52;-2,28;0,07;5,08;-3,62;0,43;-0,18;-4,00;-3,41;0,00
33.628;-0,52;-2,28;0,07;5,08;-3,62;0,43;-0,37;-2,55;-5,17;0,00
33.629;-0,52;-2,28;0,07;2,28;-9,58;0,79;-0,37;-2,55;-5,17;0,00
33.663;-1,20;-2,49;0,46;2,28;-9,58;0,79;-0,37;-2,55;-5,17;0,00
33.668;-1,20;-2,49;0,46;2,28;-9,58;0,79;-0,47;-2,93;-4,69;0,00
33.697;-1,20;-2,49;0,46;-6,75;-16,94;3,73;-0,47;-2,93;-4,69;0,00
33.698;-1,20;-2,49;0,46;-8,25;-16,25;3,58;-0,47;-2,93;-4,69;0,00
33.727;-1,14;-1,31;0,36;-8,25;-16,25;3,58;-0,47;-2,93;-4,69;0,00
33.746;-1,14;-1,31;0,36;-8,25;-16,25;3,58;-0,15;-2,12;-2,35;0,00
33.766;-1,14;-1,31;0,36;-10,86;-8,32;4,73;-0,15;-2,12;-2,35;0,00
33.767;-1,14;-1,31;0,36;-11,34;-8,16;4,64;-0,15;-2,12;-2,35;0,00
33.804;-0,89;0,04;-0,20;-11,34;-8,16;4,64;-0,15;-2,12;-2,35;0,00
33.841;-0,89;0,04;-0,20;-11,34;-8,16;4,64;0,50;-0,15;-0,48;0,00
33.842;-0,89;0,04;-0,20;-10,02;5,06;1,15;0,50;-0,15;-0,48;0,00
33.843;-0,89;0,04;-0,20;-9,87;4,98;1,01;0,50;-0,15;-0,48;0,00
33.865;-0,80;0,12;-0,09;-9,87;4,98;1,01;0,50;-0,15;-0,48;0,00
33.908;-0,80;0,12;-0,09;-9,87;4,98;1,01;-0,14;0,61;0,14;0,00
33.909;-0,80;0,12;-0,09;-7,27;12,46;-2,45;-0,14;0,61;0,14;0,00
33.935;-1,13;-0,30;0,13;-7,27;12,46;-2,45;-0,14;0,61;0,14;0,00
33.944;-1,13;-0,30;0,13;-7,27;12,46;-2,45;0,07;1,66;0,38;0,00
33.973;-1,13;-0,30;0,13;-8,65;9,67;-0,39;0,07;1,66;0,38;0,00
33.974;-1,13;-0,30;0,13;-8,32;9,50;-0,33;0,07;1,66;0,38;0,00
34.003;-1,34;-1,30;0,90;-8,32;9,50;-0,33;0,07;1,66;0,38;0,00
34.023;-1,34;-1,30;0,90;-8,32;9,50;-0,33;0,27;1,51;0,86;0,00
34.042;-1,34;-1,30;0,90;-11,71;0,21;6,72;0,27;1,51;0,86;0,00
34.043;-1,34;-1,30;0,90;-11,16;0,15;6,44;0,27;1,51;0,86;0,00
34.071;-1,21;-1,95;1,23;-11,16;0,15;6,44;0,27;1,51;0,86;0,00
34.102;-1,21;-1,95;1,23;-11,16;0,15;6,44;1,13;2,87;2,20;0,00
34.111;-1,21;-1,95;1,23;-9,55;-6,93;9,54;1,13;2,87;2,20;0,00
34.111;-1,21;-1,95;1,23;-8,33;-7,23;9,28;1,13;2,87;2,20;0,00
34.141;-0,81;-2,18;1,48;-8,33;-7,23;9,28;1,13;2,87;2,20;0,00
34.142;-0,81;-2,18;1,48;-8,33;-7,23;9,28;2,27;4,28;2,86;0,00
34.181;-0,81;-2,18;1,48;-4,23;-12,80;13,27;2,27;4,28;2,86;0,00
34.209;-0,52;-1,96;1,19;-4,23;-12,80;13,27;2,27;4,28;2,86;0,00
34.22;-0,52;-1,96;1,19;-4,23;-12,80;13,27;2,95;5,49;3,93;0,00
34.249;-0,52;-1,96;1,19;-0,35;-12,63;12,26;2,95;5,49;3,93;0,00
34.251;-0,52;-1,96;1,19;0,96;-13,70;12,80;2,95;5,49;3,93;0,00
34.279;0,14;-1,18;0,93;0,96;-13,70;12,80;2,95;5,49;3,93;0,00
34.298;0,14;-1,18;0,93;0,96;-13,70;12,80;2,04;4,28;3,69;0,00
34.321;0,14;-1,18;0,93;7,83;-10,01;10,63;2,04;4,28;3,69;0,00
34.323;0,14;-1,18;0,93;8,13;-10,68;11,11;2,04;4,28;3,69;0,00
34.337;0,14;-1,18;0,93;8,13;-10,68;11,11;2,14;2,01;1,52;0,00
34.347;0,39;-0,44;0,40;8,13;-10,68;11,11;2,14;2,01;1,52;0,00
34.387;0,39;-0,44;0,40;12,58;-2,02;7,60;2,14;2,01;1,52;0,00
34.387;0,39;-0,44;0,40;12,36;-2,10;7,92;2,14;2,01;1,52;0,00
34.417;0,04;-0,24;0,12;12,36;-2,10;7,92;2,14;2,01;1,52;0,00
34.417;0,04;-0,24;0,12;12,36;-2,10;7,92;2,53;2,51;0,66;0,00
34.456;0,04;-0,24;0,12;10,62;1,89;3,53;2,53;2,51;0,66;0,00
34.485;-0,04;-0,44;0,12;10,62;1,89;3,53;2,53;2,51;0,66;0,00
34.495;-0,04;-0,44;0,12;10,62;1,89;3,53;2,41;1,32;0,75;0,00
34.525;-0,04;-0,44;0,12;7,99;1,18;2,89;2,41;1,32;0,75;0,00
34.525;-0,04;-0,44;0,12;7,91;1,12;2,68;2,41;1,32;0,75;0,00
34.535;-0,04;-0,44;0,12;7,91;1,12;2,68;2,25;0,68;0,05;0,00
34.564;0,01;-0,75;0,09;7,91;1,12;2,68;2,25;0,68;0,05;0,00
34.594;0,01;-0,75;0,09;8,39;-1,88;2,51;2,25;0,68;0,05;0,00
34.595;0,01;-0,75;0,09;8,03;-1,42;2,37;2,25;0,68;0,05;0,00
34.613;0,01;-0,75;0,09;8,03;-1,42;2,37;1,43;0,44;-1,70;0,00
34.624;-0,09;-1,24;0,04;8,03;-1,42;2,37;1,43;0,44;-1,70;0,00
34.677;-0,09;-1,24;0,04;7,06;-3,35;1,37;1,43;0,44;-1,70;0,00
34.679;-0,09;-1,24;0,04;6,19;-2,37;0,88;1,43;0,44;-1,70;0,00
34.72;-0,93;-2,15;0,15;6,19;-2,37;0,88;1,43;0,44;-1,70;0,00
34.722;-0,93;-2,15;0,15;6,19;-2,37;0,88;-0,11;-2,30;-3,62;0,00
34.732;-0,93;-2,15;0,15;6,19;-2,37;0,88;-0,57;-3,40;-3,78;0,00
34.734;-0,93;-2,15;0,15;0,39;-10,29;1,26;-0,57;-3,40;-3,78;0,00
34.761;-0,98;-2,21;0,12;0,39;-10,29;1,26;-0,57;-3,40;-3,78;0,00
34.801;-0,98;-2,21;0,12;-6,41;-12,93;-0,48;-0,57;-3,40;-3,78;0,00
34.802;-0,98;-2,21;0,12;-7,51;-12,24;-0,55;-0,57;-3,40;-3,78;0,00
