time;gFx;gFy;gFz;ax;ay;az;wx;wy;wz;P
0.005;-0,42;0,29;0,90;0,87;0,45;0,71;-0,07;-0,26;0,40;0,00
0.019;-0,42;0,29;0,90;0,87;0,45;0,71;-0,16;-0,03;0,50;0,00
0.039;-0,39;0,30;0,84;0,87;0,45;0,71;-0,16;-0,03;0,50;0,00
0.069;-0,39;0,30;0,84;1,31;0,83;0,44;-0,16;-0,03;0,50;0,00
0.079;-0,39;0,30;0,84;1,31;0,83;0,44;-0,23;0,17;0,46;0,00
0.108;-0,44;0,27;0,80;1,31;0,83;0,44;-0,23;0,17;0,46;0,00
0.139;-0,44;0,27;0,80;0,71;0,43;-0,07;-0,23;0,17;0,46;0,00
0.175;-0,44;0,27;0,80;0,71;0,43;-0,07;-0,27;0,08;0,49;0,00
0.178;-0,37;0,26;0,89;0,71;0,43;-0,07;-0,27;0,08;0,49;0,00
0.209;-0,37;0,26;0,89;1,45;0,39;0,23;-0,27;0,08;0,49;0,00
0.209;-0,37;0,26;0,89;1,42;0,34;0,24;-0,27;0,08;0,49;0,00
0.219;-0,37;0,26;0,89;1,42;0,34;0,24;-0,32;0,16;0,63;0,00
0.249;-0,42;0,25;0,86;1,42;0,34;0,24;-0,32;0,16;0,63;0,00
0.29;-0,42;0,25;0,86;1,42;0,34;0,24;-0,33;0,35;0,63;0,00
0.29;-0,42;0,25;0,86;1,20;0,17;0,77;-0,33;0,35;0,63;0,00
0.318;-0,51;0,26;0,81;1,20;0,17;0,77;-0,33;0,35;0,63;0,00
0.349;-0,51;0,26;0,81;0,57;0,06;0,19;-0,33;0,35;0,63;0,00
0.359;-0,51;0,26;0,81;0,57;0,06;0,19;-0,38;0,46;0,56;0,00
0.392;-0,53;0,22;0,75;0,57;0,06;0,19;-0,38;0,46;0,56;0,00
0.419;-0,53;0,22;0,75;0,57;0,06;0,19;-0,47;0,58;0,43;0,00
0.42;-0,53;0,22;0,75;0,28;0,06;-0,07;-0,47;0,58;0,43;0,00
0.458;-0,54;0,16;0,58;0,28;0,06;-0,07;-0,47;0,58;0,43;0,00
0.478;-0,54;0,16;0,58;0,28;0,06;-0,07;-0,61;1,08;0,19;0,00
0.489;-0,54;0,16;0,58;0,48;-0,13;-0,96;-0,61;1,08;0,19;0,00
0.528;-0,59;-0,06;0,32;0,48;-0,13;-0,96;-0,61;1,08;0,19;0,00
0.559;-0,59;-0,06;0,32;0,48;-0,13;-0,96;-1,27;1,74;-0,41;0,00
0.56;-0,59;-0,06;0,32;0,69;-0,98;-2,52;-1,27;1,74;-0,41;0,00
0.604;-0,63;-0,41;0,11;0,69;-0,98;-2,52;-1,27;1,74;-0,41;0,00
0.619;-0,63;-0,41;0,11;0,69;-0,98;-2,52;-2,62;2,45;-1,45;0,00
0.628;-0,63;-0,41;0,11;1,26;-3,11;-4,37;-2,62;2,45;-1,45;0,00
0.629;-0,63;-0,41;0,11;2,13;-1,34;-3,20;-2,62;2,45;-1,45;0,00
0.669;-0,68;-0,78;0,20;2,13;-1,34;-3,20;-2,62;2,45;-1,45;0,00
0.678;-0,68;-0,78;0,20;2,13;-1,34;-3,20;-4,29;1,34;-2,37;0,00
0.698;-0,68;-0,78;0,20;1,61;-2,17;-3,11;-4,29;1,34;-2,37;0,00
0.739;-0,58;-0,99;0,27;1,61;-2,17;-3,11;-4,29;1,34;-2,37;0,00
0.759;-0,58;-0,99;0,27;1,61;-2,17;-3,11;-5,40;0,28;-2,66;0,00
0.768;-0,58;-0,99;0,27;0,71;-3,03;-0,38;-5,40;0,28;-2,66;0,00
0.809;-0,41;-1,11;0,48;0,71;-3,03;-0,38;-5,40;0,28;-2,66;0,00
0.818;-0,41;-1,11;0,48;0,71;-3,03;-0,38;-5,50;-0,16;-3,39;0,00
0.839;-0,41;-1,11;0,48;1,00;-3,19;3,77;-5,50;-0,16;-3,39;0,00
0.879;-0,66;-1,45;0,32;1,00;-3,19;3,77;-5,50;-0,16;-3,39;0,00
0.88;-0,66;-1,45;0,32;1,00;-3,19;3,77;-3,57;-1,52;-2,47;0,00
0.909;-0,66;-1,45;0,32;-0,15;-2,97;5,10;-3,57;-1,52;-2,47;0,00
0.949;-0,95;-1,48;0,16;-0,15;-2,97;5,10;-3,57;-1,52;-2,47;0,00
0.968;-0,95;-1,48;0,16;-0,15;-2,97;5,10;-1,06;-2,48;0,63;0,00
0.979;-0,95;-1,48;0,16;-3,34;-7,03;3,84;-1,06;-2,48;0,63;0,00
1.02;-0,98;-1,40;-0,06;-3,34;-7,03;3,84;-1,06;-2,48;0,63;0,00
1.022;-0,98;-1,40;-0,06;-3,34;-7,03;3,84;-0,90;-2,14;1,17;0,00
1.048;-0,98;-1,40;-0,06;-4,09;-5,42;2,10;-0,90;-2,14;1,17;0,00
1.05;-0,98;-1,40;-0,06;-3,58;-5,65;2,10;-0,90;-2,14;1,17;0,00
1.078;-0,98;-1,40;-0,06;-3,58;-5,65;2,10;-2,20;-0,98;0,20;0,00
1.089;-0,99;-1,69;-0,30;-3,58;-5,65;2,10;-2,20;-0,98;0,20;0,00
1.119;-0,99;-1,69;-0,30;-4,07;-7,70;-0,24;-2,20;-0,98;0,20;0,00
1.158;-0,43;-1,34;0,09;-4,07;-7,70;-0,24;-2,20;-0,98;0,20;0,00
1.159;-0,43;-1,34;0,09;-4,07;-7,70;-0,24;-3,37;0,01;-1,33;0,00
1.188;-0,43;-1,34;0,09;-1,39;-8,13;2,46;-3,37;0,01;-1,33;0,00
1.22;-0,43;-1,34;0,09;-1,39;-8,13;2,46;-3,01;-0,45;-1,58;0,00
1.228;-0,09;0,06;0,20;-1,39;-8,13;2,46;-3,01;-0,45;-1,58;0,00
1.259;-0,09;0,06;0,20;1,30;1,00;5,83;-3,01;-0,45;-1,58;0,00
1.281;-0,09;0,06;0,20;1,30;1,00;5,83;-1,69;-2,25;-0,85;0,00
1.305;-0,70;-0,13;0,23;1,30;1,00;5,83;-1,69;-2,25;-0,85;0,00
1.328;-0,70;-0,13;0,23;3,44;6,40;7,09;-1,69;-2,25;-0,85;0,00
1.359;-0,70;-0,13;0,23;3,44;6,40;7,09;0,41;-6,41;0,97;0,00
1.368;-1,79;0,07;0,82;3,44;6,40;7,09;0,41;-6,41;0,97;0,00
1.398;-1,79;0,07;0,82;-4,24;6,90;4,87;0,41;-6,41;0,97;0,00
1.419;-1,79;0,07;0,82;-4,24;6,90;4,87;4,01;-4,42;6,16;0,00
1.439;-2,97;-2,02;1,96;-4,24;6,90;4,87;4,01;-4,42;6,16;0,00
1.469;-2,97;-2,02;1,96;-12,96;1,62;13,02;4,01;-4,42;6,16;0,00
1.47;-2,97;-2,02;1,96;-12,82;-4,35;9,78;4,01;-4,42;6,16;0,00
1.478;-2,97;-2,02;1,96;-12,82;-4,35;9,78;6,41;-5,76;8,06;0,00
1.508;-1,18;-1,80;1,16;-12,82;-4,35;9,78;6,41;-5,76;8,06;0,00
1.539;-1,18;-1,80;1,16;-20,15;-31,60;12,43;6,41;-5,76;8,06;0,00
1.558;-1,18;-1,80;1,16;-20,15;-31,60;12,43;6,96;-4,71;2,58;0,00
1.579;0,12;-0,69;0,33;-20,15;-31,60;12,43;6,96;-4,71;2,58;0,00
1.609;0,12;-0,69;0,33;1,86;-16,01;2,01;6,96;-4,71;2,58;0,00
1.618;0,12;-0,69;0,33;1,86;-16,01;2,01;5,40;-2,66;-1,55;0,00
1.648;0,48;-1,28;-0,70;1,86;-16,01;2,01;5,40;-2,66;-1,55;0,00
1.678;0,48;-1,28;-0,70;1,86;-16,01;2,01;2,53;-2,05;-4,72;0,00
1.679;0,48;-1,28;-0,70;8,85;-18,48;-4,12;2,53;-2,05;-4,72;0,00
1.719;-0,15;-1,14;-0,69;8,85;-18,48;-4,12;2,53;-2,05;-4,72;0,00
1.749;-0,15;-1,14;-0,69;12,99;-15,80;-11,71;2,53;-2,05;-4,72;0,00
1.759;-0,15;-1,14;-0,69;12,99;-15,80;-11,71;0,82;0,59;-3,67;0,00
1.789;-1,46;-0,65;-0,22;12,99;-15,80;-11,71;0,82;0,59;-3,67;0,00
1.818;-1,46;-0,65;-0,22;12,99;-15,80;-11,71;-0,07;-1,12;-1,98;0,00
1.82;-1,46;-0,65;-0,22;-0,66;-13,65;-6,90;-0,07;-1,12;-1,98;0,00
1.858;-2,02;-0,06;0,11;-0,66;-13,65;-6,90;-0,07;-1,12;-1,98;0,00
1.879;-2,02;-0,06;0,11;-0,66;-13,65;-6,90;-0,24;-0,38;-1,21;0,00
1.889;-2,02;-0,06;0,11;-8,42;-5,69;-3,64;-0,24;-0,38;-1,21;0,00
1.89;-2,02;-0,06;0,11;-8,21;-4,93;-3,77;-0,24;-0,38;-1,21;0,00
1.942;-1,86;0,13;0,30;-8,21;-4,93;-3,77;-0,24;-0,38;-1,21;0,00
1.958;-1,86;0,13;0,30;-8,21;-4,93;-3,77;-0,86;-0,26;-1,74;0,00
1.959;-1,86;0,13;0,30;-10,70;0,37;-2,24;-0,86;-0,26;-1,74;0,00
1.999;-1,68;-0,23;0,58;-10,70;0,37;-2,24;-0,86;-0,26;-1,74;0,00
2.019;-1,68;-0,23;0,58;-10,70;0,37;-2,24;-2,21;-0,01;-3,11;0,00
2.029;-1,68;-0,23;0,58;-8,27;1,96;1,11;-2,21;-0,01;-3,11;0,00
2.068;-1,56;-1,20;0,47;-8,27;1,96;1,11;-2,21;-0,01;-3,11;0,00
2.079;-1,56;-1,20;0,47;-8,27;1,96;1,11;-5,09;0,52;-5,30;0,00
2.099;-1,56;-1,20;0,47;-7,58;-1,06;2,68;-5,09;0,52;-5,30;0,00
2.139;-1,25;-1,11;0,18;-7,58;-1,06;2,68;-5,09;0,52;-5,30;0,00
2.158;-1,25;-1,11;0,18;-7,58;-1,06;2,68;-6,16;-2,28;-5,07;0,00
2.169;-1,25;-1,11;0,18;-8,53;-7,78;4,15;-6,16;-2,28;-5,07;0,00
2.209;-0,88;-0,05;0,13;-8,53;-7,78;4,15;-6,16;-2,28;-5,07;0,00
2.22;-0,88;-0,05;0,13;-8,53;-7,78;4,15;-3,08;-4,34;-0,63;0,00
2.24;-0,88;-0,05;0,13;-3,74;5,58;1,65;-3,08;-4,34;-0,63;0,00
2.278;-0,88;-0,05;0,13;-3,74;5,58;1,65;-0,63;-3,58;2,43;0,00
2.279;-1,66;-1,03;0,72;-3,74;5,58;1,65;-0,63;-3,58;2,43;0,00
2.309;-1,66;-1,03;0,72;-6,61;1,33;3,10;-0,63;-3,58;2,43;0,00
2.312;-1,66;-1,03;0,72;-4,99;-0,14;1,23;-0,63;-3,58;2,43;0,00
2.349;-0,99;-0,19;0,91;-4,99;-0,14;1,23;-0,63;-3,58;2,43;0,00
2.358;-0,99;-0,19;0,91;-4,99;-0,14;1,23;3,44;-2,82;5,76;0,00
2.386;-0,99;-0,19;0,91;-5,82;-1,26;4,58;3,44;-2,82;5,76;0,00
2.419;-0,99;-0,19;0,91;-5,82;-1,26;4,58;5,47;-0,93;6,56;0,00
2.42;-0,29;-0,82;1,15;-5,82;-1,26;4,58;5,47;-0,93;6,56;0,00
2.449;-0,29;-0,82;1,15;2,31;-6,15;6,32;5,47;-0,93;6,56;0,00
2.479;-0,29;-0,82;1,15;2,31;-6,15;6,32;5,89;-1,13;5,65;0,00
2.489;0,24;-0,93;0,83;2,31;-6,15;6,32;5,89;-1,13;5,65;0,00
2.519;0,24;-0,93;0,83;8,22;-15,70;6,02;5,89;-1,13;5,65;0,00
2.56;0,24;-0,93;0,83;8,22;-15,70;6,02;4,49;-0,80;2,92;0,00
2.561;-0,38;-0,53;0,53;8,22;-15,70;6,02;4,49;-0,80;2,92;0,00
2.589;-0,38;-0,53;0,53;5,31;-15,17;5,74;4,49;-0,80;2,92;0,00
2.619;-0,38;-0,53;0,53;5,31;-15,17;5,74;1,59;-3,42;-1,62;0,00
2.629;-0,63;0,92;0,03;5,31;-15,17;5,74;1,59;-3,42;-1,62;0,00
2.659;-0,63;0,92;0,03;2,10;-7,65;-0,33;1,59;-3,42;-1,62;0,00
2.679;-0,63;0,92;0,03;2,10;-7,65;-0,33;-0,14;-3,68;-3,82;0,00
2.699;-0,63;0,12;0,20;2,10;-7,65;-0,33;-0,14;-3,68;-3,82;0,00
2.729;-0,63;0,12;0,20;-0,99;2,13;-3,39;-0,14;-3,68;-3,82;0,00
2.73;-0,63;0,12;0,20;-0,20;3,63;-4,04;-0,14;-3,68;-3,82;0,00
2.759;-0,63;0,12;0,20;-0,20;3,63;-4,04;0,38;-1,54;-3,55;0,00
2.768;-0,72;0,03;-0,09;-0,20;3,63;-4,04;0,38;-1,54;-3,55;0,00
2.799;-0,72;0,03;-0,09;0,67;-4,55;-2,90;0,38;-1,54;-3,55;0,00
2.818;-0,72;0,03;-0,09;0,67;-4,55;-2,90;0,36;-1,39;-2,14;0,00
2.839;-0,60;0,05;-0,02;0,67;-4,55;-2,90;0,36;-1,39;-2,14;0,00
2.869;-0,60;0,05;-0,02;2,53;-1,91;-6,16;0,36;-1,39;-2,14;0,00
2.878;-0,60;0,05;-0,02;2,53;-1,91;-6,16;-0,01;0,02;-1,29;0,00
2.909;-1,33;-0,24;0,37;2,53;-1,91;-6,16;-0,01;0,02;-1,29;0,00
2.939;-1,33;-0,24;0,37;-1,40;-2,83;-3,09;-0,01;0,02;-1,29;0,00
2.959;-1,33;-0,24;0,37;-1,40;-2,83;-3,09;-0,64;-0,33;-1,82;0,00
2.983;-1,26;-0,11;0,31;-1,40;-2,83;-3,09;-0,64;-0,33;-1,82;0,00
3.009;-1,26;-0,11;0,31;-4,84;-1,70;-3,16;-0,64;-0,33;-1,82;0,00
3.019;-1,26;-0,11;0,31;-4,84;-1,70;-3,16;-2,20;0,44;-2,28;0,00
3.05;-1,64;-0,62;0,71;-4,84;-1,70;-3,16;-2,20;0,44;-2,28;0,00
3.079;-1,64;-0,62;0,71;-4,84;-1,70;-3,16;-3,80;-0,25;-2,54;0,00
3.08;-1,64;-0,62;0,71;-5,37;-1,74;0,56;-3,80;-0,25;-2,54;0,00
3.119;-1,59;-1,31;0,49;-5,37;-1,74;0,56;-3,80;-0,25;-2,54;0,00
3.149;-1,59;-1,31;0,49;-8,78;-4,66;1,58;-3,80;-0,25;-2,54;0,00
3.15;-1,59;-1,31;0,49;-9,42;-1,89;3,69;-3,80;-0,25;-2,54;0,00
3.159;-1,59;-1,31;0,49;-9,42;-1,89;3,69;-6,86;0,17;-3,01;0,00
3.189;-1,55;-2,43;0,54;-9,42;-1,89;3,69;-6,86;0,17;-3,01;0,00
3.219;-1,55;-2,43;0,54;-9,42;-1,89;3,69;-8,30;-2,50;-5,05;0,00
3.22;-1,55;-2,43;0,54;-9,68;-9,93;5,74;-8,30;-2,50;-5,05;0,00
3.259;-1,05;-0,37;0,80;-9,68;-9,93;5,74;-8,30;-2,50;-5,05;0,00
3.281;-1,05;-0,37;0,80;-9,68;-9,93;5,74;-2,97;-5,55;-0,78;0,00
3.295;-1,05;-0,37;0,80;-8,84;-9,98;8,05;-2,97;-5,55;-0,78;0,00
3.329;-1,07;-0,93;0,89;-8,84;-9,98;8,05;-2,97;-5,55;-0,78;0,00
3.359;-1,07;-0,93;0,89;-8,84;-9,98;8,05;2,61;-2,86;3,52;0,00
3.361;-1,07;-0,93;0,89;-3,64;8,95;6,38;2,61;-2,86;3,52;0,00
3.41;-0,76;-1,26;1,25;-3,64;8,95;6,38;2,61;-2,86;3,52;0,00
3.419;-0,76;-1,26;1,25;-3,64;8,95;6,38;6,58;-1,82;5,64;0,00
3.438;-0,76;-1,26;1,25;-4,25;-9,74;10,73;6,58;-1,82;5,64;0,00
3.469;0,29;-0,29;0,66;-4,25;-9,74;10,73;6,58;-1,82;5,64;0,00
3.479;0,29;-0,29;0,66;-4,25;-9,74;10,73;7,40;0,07;4,97;0,00
3.499;0,29;-0,29;0,66;8,72;-3,89;2,81;7,40;0,07;4,97;0,00
3.539;0,29;-0,87;0,63;8,72;-3,89;2,81;7,40;0,07;4,97;0,00
3.559;0,29;-0,87;0,63;8,72;-3,89;2,81;6,26;-0,83;3,58;0,00
3.569;0,29;-0,87;0,63;10,36;-10,09;2,83;6,26;-0,83;3,58;0,00
3.57;0,29;-0,87;0,63;9,11;-12,59;4,01;6,26;-0,83;3,58;0,00
3.609;-0,20;-0,80;0,53;9,11;-12,59;4,01;6,26;-0,83;3,58;0,00
3.619;-0,20;-0,80;0,53;9,11;-12,59;4,01;3,98;-0,01;1,41;0,00
3.64;-0,20;-0,80;0,53;9,26;-14,60;1,88;3,98;-0,01;1,41;0,00
3.679;-0,20;-0,80;0,53;9,26;-14,60;1,88;1,05;-3,26;-2,03;0,00
3.679;-0,54;-0,36;0,10;9,26;-14,60;1,88;1,05;-3,26;-2,03;0,00
3.709;-0,54;-0,36;0,10;2,62;-14,35;1,81;1,05;-3,26;-2,03;0,00
3.749;-1,20;0,05;0,08;2,62;-14,35;1,81;1,05;-3,26;-2,03;0,00
3.761;-1,20;0,05;0,08;2,62;-14,35;1,81;-1,93;-3,70;-6,27;0,00
3.779;-1,20;0,05;0,08;-0,48;-2,40;-2,54;-1,93;-3,70;-6,27;0,00
3.819;-1,07;-0,03;0,01;-0,48;-2,40;-2,54;-1,93;-3,70;-6,27;0,00
3.82;-1,07;-0,03;0,01;-0,48;-2,40;-2,54;-1,25;-0,11;-3,70;0,00
3.85;-1,07;-0,03;0,01;-3,41;-0,35;-7,30;-1,25;-0,11;-3,70;0,00
3.88;-1,07;-0,03;0,01;-3,41;-0,35;-7,30;0,02;-0,24;-1,44;0,00
3.889;-1,05;0,28;0,21;-3,41;-0,35;-7,30;0,02;-0,24;-1,44;0,00
3.92;-1,05;0,28;0,21;-2,39;2,17;-4,53;0,02;-0,24;-1,44;0,00
3.97;-1,05;0,28;0,21;-2,39;2,17;-4,53;0,19;1,15;-0,14;0,00
3.971;-1,63;-0,38;0,54;-2,39;2,17;-4,53;0,19;1,15;-0,14;0,00
3.999;-1,63;-0,38;0,54;-4,80;0,96;-0,59;0,19;1,15;-0,14;0,00
4.0;-1,63;-0,38;0,54;-4,54;1,14;-0,24;0,19;1,15;-0,14;0,00
4.02;-1,63;-0,38;0,54;-4,54;1,14;-0,24;-0,74;0,96;-1,35;0,00
4.03;-1,78;-1,19;0,57;-4,54;1,14;-0,24;-0,74;0,96;-1,35;0,00
4.059;-1,78;-1,19;0,57;-7,84;-2,38;1,08;-0,74;0,96;-1,35;0,00
4.079;-1,78;-1,19;0,57;-7,84;-2,38;1,08;-4,05;1,28;-5,44;0,00
4.099;-1,45;-2,27;0,25;-7,84;-2,38;1,08;-4,05;1,28;-5,44;0,00
4.129;-1,45;-2,27;0,25;-10,30;-9,62;2,30;-4,05;1,28;-5,44;0,00
4.159;-1,45;-2,27;0,25;-10,30;-9,62;2,30;-6,82;-2,28;-5,77;0,00
4.174;-1,25;-0,90;0,34;-10,30;-9,62;2,30;-6,82;-2,28;-5,77;0,00
4.199;-1,25;-0,90;0,34;-8,01;-12,97;4,52;-6,82;-2,28;-5,77;0,00
4.219;-1,25;-0,90;0,34;-8,01;-12,97;4,52;-4,10;-4,46;-1,05;0,00
4.239;-0,52;-0,15;0,38;-8,01;-12,97;4,52;-4,10;-4,46;-1,05;0,00
4.27;-0,52;-0,15;0,38;-3,77;7,68;3,24;-4,10;-4,46;-1,05;0,00
4.283;-0,52;-0,15;0,38;-3,77;7,68;3,24;-1,92;0,16;1,32;0,00
4.309;-1,19;-0,69;1,19;-3,77;7,68;3,24;-1,92;0,16;1,32;0,00
4.339;-1,19;-0,69;1,19;-2,06;3,43;8,90;-1,92;0,16;1,32;0,00
4.359;-1,19;-0,69;1,19;-2,06;3,43;8,90;0,38;-2,90;2,91;0,00
4.382;-1,13;-0,29;1,03;-2,06;3,43;8,90;0,38;-2,90;2,91;0,00
4.409;-1,13;-0,29;1,03;-5,23;4,38;12,39;0,38;-2,90;2,91;0,00
4.41;-1,13;-0,29;1,03;-3,34;1,47;9,21;0,38;-2,90;2,91;0,00
4.419;-1,13;-0,29;1,03;-3,34;1,47;9,21;4,38;-3,15;6,26;0,00
4.449;-1,10;-1,34;1,01;-3,34;1,47;9,21;4,38;-3,15;6,26;0,00
4.482;-1,10;-1,34;1,01;-3,34;1,47;9,21;6,97;-2,91;8,07;0,00
4.483;-1,10;-1,34;1,01;-4,81;-9,22;7,05;6,97;-2,91;8,07;0,00
4.519;-0,07;-1,08;0,43;-4,81;-9,22;7,05;6,97;-2,91;8,07;0,00
4.549;-0,07;-1,08;0,43;3,58;-20,34;2,41;6,97;-2,91;8,07;0,00
4.559;-0,07;-1,08;0,43;3,58;-20,34;2,41;5,71;-1,00;5,89;0,00
4.59;-1,05;-0,24;0,66;3,58;-20,34;2,41;5,71;-1,00;5,89;0,00
4.622;-1,05;-0,24;0,66;3,58;-20,34;2,41;1,64;-4,37;-1,11;0,00
4.623;-1,05;-0,24;0,66;1,13;-14,96;5,78;1,64;-4,37;-1,11;0,00
4.66;-0,95;-0,00;-0,10;1,13;-14,96;5,78;1,64;-4,37;-1,11;0,00
4.679;-0,95;-0,00;-0,10;1,13;-14,96;5,78;-1,71;-2,75;-5,61;0,00
4.689;-0,95;-0,00;-0,10;-5,23;-5,20;-4,96;-1,71;-2,75;-5,61;0,00
4.729;-1,09;-0,18;-0,07;-5,23;-5,20;-4,96;-1,71;-2,75;-5,61;0,00
4.759;-1,09;-0,18;-0,07;-5,23;-5,20;-4,96;-1,44;-1,02;-4,93;0,00
4.761;-1,09;-0,18;-0,07;-3,35;-5,66;-5,35;-1,44;-1,02;-4,93;0,00
4.8;-0,53;0,04;-0,01;-3,35;-5,66;-5,35;-1,44;-1,02;-4,93;0,00
4.819;-0,53;0,04;-0,01;-3,35;-5,66;-5,35;-0,83;0,03;-3,34;0,00
4.829;-0,53;0,04;-0,01;0,10;-0,44;-7,75;-0,83;0,03;-3,34;0,00
4.83;-0,53;0,04;-0,01;0,14;1,16;-7,52;-0,83;0,03;-3,34;0,00
4.87;-0,72;-0,06;0,12;0,14;1,16;-7,52;-0,83;0,03;-3,34;0,00
4.88;-0,72;-0,06;0,12;0,14;1,16;-7,52;0,29;0,64;-1,66;0,00
4.9;-0,72;-0,06;0,12;1,62;1,16;-4,44;0,29;0,64;-1,66;0,00
4.939;-1,21;-0,35;0,33;1,62;1,16;-4,44;0,29;0,64;-1,66;0,00
4.959;-1,21;-0,35;0,33;1,62;1,16;-4,44;0,49;0,75;-0,28;0,00
4.969;-1,21;-0,35;0,33;-0,17;0,60;-4,03;0,49;0,75;-0,28;0,00
5.009;-1,84;-1,06;0,62;-0,17;0,60;-4,03;0,49;0,75;-0,28;0,00
5.019;-1,84;-1,06;0,62;-0,17;0,60;-4,03;-0,57;0,88;-1,29;0,00
5.039;-1,84;-1,06;0,62;-7,39;-4,41;0,64;-0,57;0,88;-1,29;0,00
5.079;-1,84;-1,06;0,62;-7,39;-4,41;0,64;-4,79;0,49;-4,48;0,00
5.08;-1,59;-2,32;0,65;-7,39;-4,41;0,64;-4,79;0,49;-4,48;0,00
5.11;-1,59;-2,32;0,65;-9,20;-9,80;1,61;-4,79;0,49;-4,48;0,00
5.15;-1,48;-1,54;0,37;-9,20;-9,80;1,61;-4,79;0,49;-4,48;0,00
5.159;-1,48;-1,54;0,37;-9,20;-9,80;1,61;-6,29;-2,53;-4,77;0,00
5.18;-1,48;-1,54;0,37;-10,66;-16,23;5,59;-6,29;-2,53;-4,77;0,00
5.219;-1,48;-1,54;0,37;-10,66;-16,23;5,59;-3,09;-3,71;0,11;0,00
5.22;-0,69;0,11;0,31;-10,66;-16,23;5,59;-3,09;-3,71;0,11;0,00
5.25;-0,69;0,11;0,31;-6,21;5,16;2,59;-3,09;-3,71;0,11;0,00
5.251;-0,69;0,11;0,31;-5,46;4,73;2,80;-3,09;-3,71;0,11;0,00
5.279;-0,69;0,11;0,31;-5,46;4,73;2,80;-1,05;-1,68;2,20;0,00
5.29;-1,11;-0,47;1,10;-5,46;4,73;2,80;-1,05;-1,68;2,20;0,00
5.32;-1,11;-0,47;1,10;-0,01;6,36;4,58;-1,05;-1,68;2,20;0,00
5.359;-1,11;-0,47;1,10;-0,01;6,36;4,58;2,22;-2,80;4,38;0,00
5.361;-0,75;-0,56;0,84;-0,01;6,36;4,58;2,22;-2,80;4,38;0,00
5.39;-0,75;-0,56;0,84;-3,84;-1,84;7,92;2,22;-2,80;4,38;0,00
5.42;-0,75;-0,56;0,84;-3,84;-1,84;7,92;4,91;-0,34;5,92;0,00
5.43;-0,23;-0,38;0,85;-3,84;-1,84;7,92;4,91;-0,34;5,92;0,00
5.46;-0,23;-0,38;0,85;5,31;-2,19;3,40;4,91;-0,34;5,92;0,00
5.484;-0,23;-0,38;0,85;5,31;-2,19;3,40;5,30;-0,32;6,35;0,00
5.503;-0,05;-0,81;0,61;5,31;-2,19;3,40;5,30;-0,32;6,35;0,00
5.53;-0,05;-0,81;0,61;6,75;-10,62;4,45;5,30;-0,32;6,35;0,00
5.559;-0,05;-0,81;0,61;6,75;-10,62;4,45;4,54;-1,38;4,52;0,00
5.569;-0,36;-0,63;0,69;6,75;-10,62;4,45;4,54;-1,38;4,52;0,00
5.6;-0,36;-0,63;0,69;5,89;-14,04;2,47;4,54;-1,38;4,52;0,00
5.619;-0,36;-0,63;0,69;5,89;-14,04;2,47;2,28;-1,64;-0,35;0,00
5.64;-0,83;0,35;0,18;5,89;-14,04;2,47;2,28;-1,64;-0,35;0,00
5.67;-0,83;0,35;0,18;-0,10;-10,25;2,90;2,28;-1,64;-0,35;0,00
5.671;-0,83;0,35;0,18;0,75;-8,77;1,86;2,28;-1,64;-0,35;0,00
5.679;-0,83;0,35;0,18;0,75;-8,77;1,86;-0,76;-2,17;-3,85;0,00
5.709;-1,21;0,12;0,37;0,75;-8,77;1,86;-0,76;-2,17;-3,85;0,00
5.74;-1,21;0,12;0,37;-2,00;1,55;-1,76;-0,76;-2,17;-3,85;0,00
5.759;-1,21;0,12;0,37;-2,00;1,55;-1,76;-1,66;-2,12;-4,53;0,00
5.78;-0,84;0,08;0,06;-2,00;1,55;-1,76;-1,66;-2,12;-4,53;0,00
5.81;-0,84;0,08;0,06;-3,78;-0,09;-3,77;-1,66;-2,12;-4,53;0,00
5.819;-0,84;0,08;0,06;-3,78;-0,09;-3,77;-1,73;-1,09;-3,81;0,00
5.85;-0,65;-0,17;0,09;-3,78;-0,09;-3,77;-1,73;-1,09;-3,81;0,00
5.88;-0,65;-0,17;0,09;-3,78;-0,09;-3,77;-0,66;0,15;-2,86;0,00
5.881;-0,65;-0,17;0,09;1,89;1,19;-4,42;-0,66;0,15;-2,86;0,00
5.92;-0,94;-0,48;0,15;1,89;1,19;-4,42;-0,66;0,15;-2,86;0,00
5.95;-0,94;-0,48;0,15;-0,42;-0,23;-4,76;-0,66;0,15;-2,86;0,00
5.973;-0,94;-0,48;0,15;-0,42;-0,23;-4,76;-0,66;0,03;-1,78;0,00
5.991;-1,72;-0,92;0,50;-0,42;-0,23;-4,76;-0,66;0,03;-1,78;0,00
6.02;-1,72;-0,92;0,50;-4,91;-2,16;-2,42;-0,66;0,03;-1,78;0,00
6.021;-1,72;-0,92;0,50;-4,91;-2,16;-2,42;-1,42;0,39;-0,82;0,00
6.06;-2,21;-1,91;1,02;-4,91;-2,16;-2,42;-1,42;0,39;-0,82;0,00
6.079;-2,21;-1,91;1,02;-4,91;-2,16;-2,42;-3,37;-0,09;-1,80;0,00
6.089;-2,21;-1,91;1,02;-13,09;-9,55;2,95;-3,37;-0,09;-1,80;0,00
6.09;-2,21;-1,91;1,02;-13,50;-7,77;3,97;-3,37;-0,09;-1,80;0,00
6.13;-1,29;-1,61;0,79;-13,50;-7,77;3,97;-3,37;-0,09;-1,80;0,00
6.16;-1,29;-1,61;0,79;-11,68;-10,16;7,25;-3,37;-0,09;-1,80;0,00
6.161;-1,29;-1,61;0,79;-11,68;-10,16;7,25;-5,04;-0,72;-2,52;0,00
6.201;-0,86;-0,11;0,45;-11,68;-10,16;7,25;-5,04;-0,72;-2,52;0,00
6.232;-0,86;-0,11;0,45;-11,68;-10,16;7,25;-1,65;-3,07;0,98;0,00
6.233;-0,86;-0,11;0,45;-5,82;-1,66;6,40;-1,65;-3,07;0,98;0,00
6.27;-0,90;-0,19;0,88;-5,82;-1,66;6,40;-1,65;-3,07;0,98;0,00
6.279;-0,90;-0,19;0,88;-5,82;-1,66;6,40;0,80;-0,70;3,53;0,00
6.305;-0,90;-0,19;0,88;1,89;7,46;1,46;0,80;-0,70;3,53;0,00
6.34;-0,59;-0,33;0,72;1,89;7,46;1,46;0,80;-0,70;3,53;0,00
6.36;-0,59;-0,33;0,72;1,89;7,46;1,46;2,76;-1,72;4,66;0,00
6.37;-0,59;-0,33;0,72;-3,54;0,43;5,93;2,76;-1,72;4,66;0,00
6.414;0,05;-0,25;0,58;-3,54;0,43;5,93;2,76;-1,72;4,66;0,00
6.419;0,05;-0,25;0,58;-3,54;0,43;5,93;4,68;0,46;5,22;0,00
6.44;0,05;-0,25;0,58;8,86;-0,19;0,51;4,68;0,46;5,22;0,00
6.48;0,16;-0,86;0,50;8,86;-0,19;0,51;4,68;0,46;5,22;0,00
6.481;0,16;-0,86;0,50;8,86;-0,19;0,51;4,66;-0,73;4,61;0,00
6.51;0,16;-0,86;0,50;9,07;-8,51;1,86;4,66;-0,73;4,61;0,00
6.512;0,16;-0,86;0,50;7,56;-11,22;2,60;4,66;-0,73;4,61;0,00
6.555;-0,38;-0,41;0,44;7,56;-11,22;2,60;4,66;-0,73;4,61;0,00
6.559;-0,38;-0,41;0,44;7,56;-11,22;2,60;4,04;-1,31;2,25;0,00
6.579;-0,38;-0,41;0,44;7,02;-15,23;1,01;4,04;-1,31;2,25;0,00
6.62;-0,38;-0,41;0,44;7,02;-15,23;1,01;0,62;-1,15;-0,71;0,00
6.621;-1,03;0,41;0,30;7,02;-15,23;1,01;0,62;-1,15;-0,71;0,00
6.651;-1,03;0,41;0,30;-1,95;-7,61;-0,17;0,62;-1,15;-0,71;0,00
6.68;-1,03;0,41;0,30;-1,95;-7,61;-0,17;-1,62;-2,31;-5,63;0,00
6.69;-1,02;0,39;0,31;-1,95;-7,61;-0,17;-1,62;-2,31;-5,63;0,00
6.72;-1,02;0,39;0,31;-2,40;2,83;1,89;-1,62;-2,31;-5,63;0,00
6.76;-0,66;-0,08;-0,08;-2,40;2,83;1,89;-1,62;-2,31;-5,63;0,00
6.761;-0,66;-0,08;-0,08;-2,40;2,83;1,89;-2,38;-0,81;-5,35;0,00
6.789;-0,66;-0,08;-0,08;0,20;2,08;-6,95;-2,38;-0,81;-5,35;0,00
6.82;-0,66;-0,08;-0,08;0,20;2,08;-6,95;-1,41;-0,74;-3,74;0,00
6.83;-0,90;-0,15;0,06;0,20;2,08;-6,95;-1,41;-0,74;-3,74;0,00
6.86;-0,90;-0,15;0,06;-0,17;-0,12;-3,71;-1,41;-0,74;-3,74;0,00
6.881;-0,90;-0,15;0,06;-0,17;-0,12;-3,71;-0,63;0,25;-1,66;0,00
6.901;-0,99;-0,44;0,23;-0,17;-0,12;-3,71;-0,63;0,25;-1,66;0,00
6.93;-0,99;-0,44;0,23;-0,63;1,55;-5,79;-0,63;0,25;-1,66;0,00
6.931;-0,99;-0,44;0,23;-0,41;1,95;-5,07;-0,63;0,25;-1,66;0,00
6.96;-0,99;-0,44;0,23;-0,41;1,95;-5,07;-0,17;1,27;-0,46;0,00
6.97;-1,74;-1,01;0,77;-0,41;1,95;-5,07;-0,17;1,27;-0,46;0,00
7.0;-1,74;-1,01;0,77;-5,92;-2,86;1,12;-0,17;1,27;-0,46;0,00
7.019;-1,74;-1,01;0,77;-5,92;-2,86;1,12;-1,24;0,21;-0,90;0,00
7.041;-1,82;-1,84;0,88;-5,92;-2,86;1,12;-1,24;0,21;-0,90;0,00
7.07;-1,82;-1,84;0,88;-12,26;-8,51;6,40;-1,24;0,21;-0,90;0,00
7.079;-1,82;-1,84;0,88;-12,26;-8,51;6,40;-3,94;-0,35;-3,24;0,00
7.109;-1,18;-1,80;0,75;-12,26;-8,51;6,40;-3,94;-0,35;-3,24;0,00
7.145;-1,18;-1,80;0,75;-7,58;-9,81;4,14;-3,94;-0,35;-3,24;0,00
7.174;-1,18;-1,80;0,75;-7,58;-9,81;4,14;-4,06;-2,18;-2,84;0,00
7.18;-0,70;-0,02;0,09;-7,58;-9,81;4,14;-4,06;-2,18;-2,84;0,00
7.21;-0,70;-0,02;0,09;-6,06;-2,56;3,94;-4,06;-2,18;-2,84;0,00
7.22;-0,70;-0,02;0,09;-6,06;-2,56;3,94;-1,28;-3,05;1,09;0,00
7.25;-0,88;0,17;0,32;-6,06;-2,56;3,94;-1,28;-3,05;1,09;0,00
7.279;-0,88;0,17;0,32;-6,06;-2,56;3,94;-0,00;-1,19;2,86;0,00
7.28;-0,88;0,17;0,32;-1,14;10,30;-0,72;-0,00;-1,19;2,86;0,00
7.32;-0,93;-0,58;0,88;-1,14;10,30;-0,72;-0,00;-1,19;2,86;0,00
7.35;-0,93;-0,58;0,88;-3,48;6,27;4,67;-0,00;-1,19;2,86;0,00
7.351;-0,93;-0,58;0,88;-2,40;4,40;3,20;-0,00;-1,19;2,86;0,00
7.369;-0,93;-0,58;0,88;-2,40;4,40;3,20;1,70;-1,86;3,60;0,00
7.39;-0,20;-0,22;0,64;-2,40;4,40;3,20;1,70;-1,86;3,60;0,00
7.42;-0,20;-0,22;0,64;-2,40;4,40;3,20;3,99;-0,34;4,58;0,00
7.421;-0,20;-0,22;0,64;3,59;-2,44;2,54;3,99;-0,34;4,58;0,00
7.461;0,02;-0,70;0,71;3,59;-2,44;2,54;3,99;-0,34;4,58;0,00
7.483;0,02;-0,70;0,71;3,59;-2,44;2,54;4,95;-1,45;4,30;0,00
7.509;0,02;-0,70;0,71;6,71;-5,20;2,10;4,95;-1,45;4,30;0,00
7.531;0,03;-0,79;0,38;6,71;-5,20;2,10;4,95;-1,45;4,30;0,00
7.56;0,03;-0,79;0,38;6,71;-5,20;2,10;4,59;-0,78;2,84;0,00
7.562;0,03;-0,79;0,38;8,40;-12,24;-0,29;4,59;-0,78;2,84;0,00
7.6;-1,00;-0,41;0,70;8,40;-12,24;-0,29;4,59;-0,78;2,84;0,00
7.62;-1,00;-0,41;0,70;8,40;-12,24;-0,29;1,36;-1,32;-0,74;0,00
7.63;-1,00;-0,41;0,70;2,53;-12,80;2,01;1,36;-1,32;-0,74;0,00
7.67;-1,25;0,19;0,75;2,53;-12,80;2,01;1,36;-1,32;-0,74;0,00
7.679;-1,25;0,19;0,75;2,53;-12,80;2,01;-2,43;-2,38;-4,90;0,00
7.701;-1,25;0,19;0,75;-4,34;-4,07;1,84;-2,43;-2,38;-4,90;0,00
7.741;-0,95;-0,11;0,14;-4,34;-4,07;1,84;-2,43;-2,38;-4,90;0,00
7.761;-0,95;-0,11;0,14;-4,34;-4,07;1,84;-3,30;-0,36;-4,93;0,00
7.787;-0,95;-0,11;0,14;-4,61;-0,38;-2,23;-3,30;-0,36;-4,93;0,00
7.789;-0,95;-0,11;0,14;-4,50;2,64;-1,75;-3,30;-0,36;-4,93;0,00
7.811;-0,99;-0,05;0,15;-4,50;2,64;-1,75;-3,30;-0,36;-4,93;0,00
7.82;-0,99;-0,05;0,15;-4,50;2,64;-1,75;-2,00;1,31;-3,33;0,00
7.841;-0,99;-0,05;0,15;-2,30;2,56;-3,58;-2,00;1,31;-3,33;0,00
7.882;-0,99;-0,05;0,15;-2,30;2,56;-3,58;-0,46;1,29;-1,18;0,00
7.883;-0,69;-0,14;0,21;-2,30;2,56;-3,58;-0,46;1,29;-1,18;0,00
7.911;-0,69;-0,14;0,21;-1,53;4,91;-3,10;-0,46;1,29;-1,18;0,00
7.95;-0,99;-0,53;0,34;-1,53;4,91;-3,10;-0,46;1,29;-1,18;0,00
7.96;-0,99;-0,53;0,34;-1,53;4,91;-3,10;0,10;0,83;0,06;0,00
7.981;-0,99;-0,53;0,34;-0,74;2,46;-1,85;0,10;0,83;0,06;0,00
8.02;-0,99;-0,53;0,34;-0,74;2,46;-1,85;-0,32;1,45;-0,21;0,00
8.02;-1,28;-1,64;0,34;-0,74;2,46;-1,85;-0,32;1,45;-0,21;0,00
8.05;-1,28;-1,64;0,34;-2,70;-4,53;-0,75;-0,32;1,45;-0,21;0,00
8.08;-1,28;-1,64;0,34;-2,70;-4,53;-0,75;-2,67;1,35;-2,50;0,00
8.09;-1,59;-2,86;0,60;-2,70;-4,53;-0,75;-2,67;1,35;-2,50;0,00
8.12;-1,59;-2,86;0,60;-7,06;-15,78;1,76;-2,67;1,35;-2,50;0,00
8.16;-1,59;-2,86;0,60;-7,06;-15,78;1,76;-2,56;-0,82;-3,13;0,00
8.162;-1,71;-1,68;0,45;-7,06;-15,78;1,76;-2,56;-0,82;-3,13;0,00
8.191;-1,71;-1,68;0,45;-11,61;-20,55;7,10;-2,56;-0,82;-3,13;0,00
8.193;-1,71;-1,68;0,45;-12,07;-19,78;6,80;-2,56;-0,82;-3,13;0,00
8.221;-1,71;-1,68;0,45;-12,07;-19,78;6,80;-0,26;-2,02;0,16;0,00
8.23;-0,59;0,76;-0,23;-12,07;-19,78;6,80;-0,26;-2,02;0,16;0,00
8.261;-0,59;0,76;-0,23;-4,92;5,27;-2,85;-0,26;-2,02;0,16;0,00
8.28;-0,59;0,76;-0,23;-4,92;5,27;-2,85;-0,74;-1,36;1,95;0,00
8.3;-0,44;0,39;0,26;-4,92;5,27;-2,85;-0,74;-1,36;1,95;0,00
8.33;-0,44;0,39;0,26;2,82;15,59;-1,04;-0,74;-1,36;1,95;0,00
8.36;-0,44;0,39;0,26;2,82;15,59;-1,04;-1,03;-1,26;2,15;0,00
8.37;-0,90;-0,39;0,78;2,82;15,59;-1,04;-1,03;-1,26;2,15;0,00
8.4;-0,90;-0,39;0,78;2,35;6,81;2,61;-1,03;-1,26;2,15;0,00
8.42;-0,90;-0,39;0,78;2,35;6,81;2,61;1,41;-2,96;3,97;0,00
8.44;-0,75;-0,61;0,66;2,35;6,81;2,61;1,41;-2,96;3,97;0,00
8.47;-0,75;-0,61;0,66;-0,71;-0,85;2,25;1,41;-2,96;3,97;0,00
8.481;-0,75;-0,61;0,66;-0,71;-0,85;2,25;4,31;-2,29;5,92;0,00
8.51;-0,16;-0,86;0,83;-0,71;-0,85;2,25;4,31;-2,29;5,92;0,00
8.541;-0,16;-0,86;0,83;2,08;-8,15;2,28;4,31;-2,29;5,92;0,00
8.56;-0,16;-0,86;0,83;2,08;-8,15;2,28;6,36;-1,60;5,32;0,00
8.58;-0,06;-0,57;0,83;2,08;-8,15;2,28;6,36;-1,60;5,32;0,00
8.61;-0,06;-0,57;0,83;8,82;-14,17;1,55;6,36;-1,60;5,32;0,00
8.612;-0,06;-0,57;0,83;7,91;-15,91;3,07;6,36;-1,60;5,32;0,00
8.62;-0,06;-0,57;0,83;7,91;-15,91;3,07;3,94;-0,75;0,88;0,00
8.65;-1,02;0,07;0,64;7,91;-15,91;3,07;3,94;-0,75;0,88;0,00
8.68;-1,02;0,07;0,64;7,91;-15,91;3,07;-0,93;-3,94;-5,73;0,00
8.682;-1,02;0,07;0,64;1,00;-7,30;4,20;-0,93;-3,94;-5,73;0,00
8.721;-1,06;-0,24;0,11;1,00;-7,30;4,20;-0,93;-3,94;-5,73;0,00
8.75;-1,06;-0,24;0,11;-3,65;0,41;-3,90;-0,93;-3,94;-5,73;0,00
8.76;-1,06;-0,24;0,11;-3,65;0,41;-3,90;-2,44;-0,65;-5,69;0,00
8.791;-1,11;-0,26;0,04;-3,65;0,41;-3,90;-2,44;-0,65;-5,69;0,00
8.82;-1,11;-0,26;0,04;-3,65;0,41;-3,90;-0,85;0,63;-3,12;0,00
8.821;-1,11;-0,26;0,04;-3,31;-3,02;-5,38;-0,85;0,63;-3,12;0,00
8.861;-0,65;0,12;0,07;-3,31;-3,02;-5,38;-0,85;0,63;-3,12;0,00
8.883;-0,65;0,12;0,07;-3,31;-3,02;-5,38;0,62;0,44;-1,18;0,00
8.906;-0,65;0,12;0,07;-1,94;1,61;-5,19;0,62;0,44;-1,18;0,00
8.93;-0,74;-0,01;0,17;-1,94;1,61;-5,19;0,62;0,44;-1,18;0,00
8.96;-0,74;-0,01;0,17;-1,94;1,61;-5,19;0,50;0,77;-0,05;0,00
8.961;-0,74;-0,01;0,17;2,33;3,25;-5,37;0,50;0,77;-0,05;0,00
9.003;-1,21;-0,51;0,77;2,33;3,25;-5,37;0,50;0,77;-0,05;0,00
9.03;-1,21;-0,51;0,77;2,33;3,25;-5,37;-1,12;0,51;-0,87;0,00
9.032;-1,21;-0,51;0,77;-2,05;0,09;-1,30;-1,12;0,51;-0,87;0,00
9.032;-1,21;-0,51;0,77;-2,03;1,07;-0,82;-1,12;0,51;-0,87;0,00
9.071;-1,52;-1,82;0,86;-2,03;1,07;-0,82;-1,12;0,51;-0,87;0,00
9.081;-1,52;-1,82;0,86;-2,03;1,07;-0,82;-3,44;0,03;-3,22;0,00
9.101;-1,52;-1,82;0,86;-5,61;-3,67;4,51;-3,44;0,03;-3,22;0,00
9.141;-1,22;-2,70;0,28;-5,61;-3,67;4,51;-3,44;0,03;-3,22;0,00
9.16;-1,22;-2,70;0,28;-5,61;-3,67;4,51;-5,83;0,62;-4,67;0,00
9.171;-1,22;-2,70;0,28;-9,20;-14,77;4,89;-5,83;0,62;-4,67;0,00
9.21;-1,04;-0,30;0,41;-9,20;-14,77;4,89;-5,83;0,62;-4,67;0,00
9.222;-1,04;-0,30;0,41;-9,20;-14,77;4,89;-4,65;-3,03;-2,84;0,00
9.241;-1,04;-0,30;0,41;-7,69;-11,41;3,82;-4,65;-3,03;-2,84;0,00
9.28;-1,04;-0,30;0,41;-7,69;-11,41;3,82;-1,28;-2,56;0,94;0,00
9.281;-0,54;0,06;0,38;-7,69;-11,41;3,82;-1,28;-2,56;0,94;0,00
9.31;-0,54;0,06;0,38;-3,64;13,47;4,28;-1,28;-2,56;0,94;0,00
9.351;-1,10;-0,95;1,10;-3,64;13,47;4,28;-1,28;-2,56;0,94;0,00
9.365;-1,10;-0,95;1,10;-3,64;13,47;4,28;0,41;-1,40;2,49;0,00
9.381;-1,10;-0,95;1,10;-0,78;4,36;7,52;0,41;-1,40;2,49;0,00
9.42;-0,62;-0,50;0,52;-0,78;4,36;7,52;0,41;-1,40;2,49;0,00
9.421;-0,62;-0,50;0,52;-0,78;4,36;7,52;3,66;-2,75;4,47;0,00
9.451;-0,62;-0,50;0,52;-3,48;-1,17;6,72;3,66;-2,75;4,47;0,00
9.452;-0,62;-0,50;0,52;-1,99;-4,42;4,19;3,66;-2,75;4,47;0,00
9.48;-0,62;-0,50;0,52;-1,99;-4,42;4,19;5,90;-0,57;6,24;0,00
9.49;-0,46;-0,67;0,62;-1,99;-4,42;4,19;5,90;-0,57;6,24;0,00
9.521;-0,46;-0,67;0,62;4,37;-6,05;1,34;5,90;-0,57;6,24;0,00
9.561;-0,46;-0,67;0,62;4,37;-6,05;1,34;5,73;-0,68;7,01;0,00
9.562;-0,27;-0,93;0,52;4,37;-6,05;1,34;5,73;-0,68;7,01;0,00
9.59;-0,27;-0,93;0,52;3,07;-14,59;1,64;5,73;-0,68;7,01;0,00
9.62;-0,27;-0,93;0,52;3,07;-14,59;1,64;2,87;-0,53;2,37;0,00
9.63;-1,02;0,04;0,78;3,07;-14,59;1,64;2,87;-0,53;2,37;0,00
9.661;-1,02;0,04;0,78;1,97;-12,27;3,51;2,87;-0,53;2,37;0,00
9.681;-1,02;0,04;0,78;1,97;-12,27;3,51;-0,99;-2,67;-4,43;0,00
9.701;-1,10;0,01;0,24;1,97;-12,27;3,51;-0,99;-2,67;-4,43;0,00
9.731;-1,10;0,01;0,24;-4,08;-2,46;0,71;-0,99;-2,67;-4,43;0,00
9.76;-1,10;0,01;0,24;-4,08;-2,46;0,71;-1,84;-2,63;-5,46;0,00
9.771;-0,72;0,08;-0,23;-4,08;-2,46;0,71;-1,84;-2,63;-5,46;0,00
9.8;-0,72;0,08;-0,23;-2,22;-0,60;-7,95;-1,84;-2,63;-5,46;0,00
9.82;-0,72;0,08;-0,23;-2,22;-0,60;-7,95;-1,22;0,30;-2,83;0,00
9.841;-0,88;0,08;0,21;-2,22;-0,60;-7,95;-1,22;0,30;-2,83;0,00
9.871;-0,88;0,08;0,21;0,35;1,71;-5,93;-1,22;0,30;-2,83;0,00
9.872;-0,88;0,08;0,21;0,38;2,00;-5,72;-1,22;0,30;-2,83;0,00
9.881;-0,88;0,08;0,21;0,38;2,00;-5,72;0,53;-0,03;-0,66;0,00
9.911;-0,80;0,08;0,32;0,38;2,00;-5,72;0,53;-0,03;-0,66;0,00
9.941;-0,80;0,08;0,32;0,17;2,04;-3,56;0,53;-0,03;-0,66;0,00
9.96;-0,80;0,08;0,32;0,17;2,04;-3,56;0,04;1,18;0,18;0,00
9.981;-1,27;-0,54;0,88;0,17;2,04;-3,56;0,04;1,18;0,18;0,00
10.01;-1,27;-0,54;0,88;-1,48;-0,12;2,05;0,04;1,18;0,18;0,00
10.021;-1,27;-0,54;0,88;-1,48;-0,12;2,05;-0,10;0,49;-1,11;0,00
10.05;-0,49;-0,03;0,09;-1,48;-0,12;2,05;-0,10;0,49;-1,11;0,00
10.081;-0,49;-0,03;0,09;-1,48;-0,12;2,05;-0,30;0,64;-0,37;0,00
10.082;-0,49;-0,03;0,09;-2,08;-1,68;-0,33;-0,30;0,64;-0,37;0,00
10.12;-1,27;-0,94;0,53;-2,08;-1,68;-0,33;-0,30;0,64;-0,37;0,00
10.151;-1,27;-0,94;0,53;1,19;-0,13;-1,79;-0,30;0,64;-0,37;0,00
10.161;-1,27;-0,94;0,53;1,19;-0,13;-1,79;-1,24;0,33;-1,42;0,00
10.191;-1,19;-1,87;0,10;1,19;-0,13;-1,79;-1,24;0,33;-1,42;0,00
10.221;-1,19;-1,87;0,10;-4,34;-8,78;-1,62;-1,24;0,33;-1,42;0,00
10.222;-1,19;-1,87;0,10;-4,34;-8,78;-1,62;-4,33;0,48;-3,66;0,00
10.261;-1,40;-3,02;0,61;-4,34;-8,78;-1,62;-4,33;0,48;-3,66;0,00
10.281;-1,40;-3,02;0,61;-4,34;-8,78;-1,62;-7,08;-1,49;-6,04;0,00
10.29;-1,40;-3,02;0,61;-5,67;-16,93;-0,71;-7,08;-1,49;-6,04;0,00
10.291;-1,40;-3,02;0,61;-8,69;-14,44;2,32;-7,08;-1,49;-6,04;0,00
10.331;-0,98;0,04;0,44;-8,69;-14,44;2,32;-7,08;-1,49;-6,04;0,00
10.361;-0,98;0,04;0,44;-8,69;-14,44;2,32;-2,38;-4,05;-0,35;0,00
10.362;-0,98;0,04;0,44;-10,54;-10,14;9,73;-2,38;-4,05;-0,35;0,00
10.401;-0,94;-0,28;0,82;-10,54;-10,14;9,73;-2,38;-4,05;-0,35;0,00
10.427;-0,94;-0,28;0,82;-10,54;-10,14;9,73;0,66;-1,17;2,66;0,00
10.431;-0,94;-0,28;0,82;-1,78;11,40;4,37;0,66;-1,17;2,66;0,00
10.471;-0,85;-0,80;1,09;-1,78;11,40;4,37;0,66;-1,17;2,66;0,00
10.482;-0,85;-0,80;1,09;-1,78;11,40;4,37;2,82;-1,10;3,78;0,00
10.501;-0,85;-0,80;1,09;-1,83;0,74;9,28;2,82;-1,10;3,78;0,00
10.54;-0,29;-0,25;0,45;-1,83;0,74;9,28;2,82;-1,10;3,78;0,00
10.561;-0,29;-0,25;0,45;-1,83;0,74;9,28;4,82;-0,82;5,03;0,00
10.571;-0,29;-0,25;0,45;2,87;-0,15;4,81;4,82;-0,82;5,03;0,00
10.611;-0,16;-0,46;0,44;2,87;-0,15;4,81;4,82;-0,82;5,03;0,00
10.62;-0,16;-0,46;0,44;2,87;-0,15;4,81;5,11;0,14;5,74;0,00
10.641;-0,16;-0,46;0,44;8,00;-2,78;-0,44;5,11;0,14;5,74;0,00
10.68;-0,16;-0,46;0,44;8,00;-2,78;-0,44;4,15;-0,06;4,75;0,00
10.681;-0,80;-0,61;0,73;8,00;-2,78;-0,44;4,15;-0,06;4,75;0,00
10.711;-0,80;-0,61;0,73;5,16;-9,62;1,34;4,15;-0,06;4,75;0,00
10.711;-0,80;-0,61;0,73;4,01;-11,70;2,13;4,15;-0,06;4,75;0,00
10.751;-0,82;0,05;0,62;4,01;-11,70;2,13;4,15;-0,06;4,75;0,00
10.772;-0,82;0,05;0,62;4,01;-11,70;2,13;1,34;-1,78;0,00;0,00
10.791;-0,82;0,05;0,62;-1,56;-9,34;3,91;1,34;-1,78;0,00;0,00
10.821;-0,82;0,05;0,62;-1,56;-9,34;3,91;-0,92;-2,38;-4,69;0,00
10.822;-0,83;0,17;0,10;-1,56;-9,34;3,91;-0,92;-2,38;-4,69;0,00
10.851;-0,83;0,17;0,10;-0,17;-0,21;-0,19;-0,92;-2,38;-4,69;0,00
10.882;-0,83;0,17;0,10;-0,17;-0,21;-0,19;-1,37;-1,49;-4,49;0,00
10.891;-0,56;-0,07;-0,10;-0,17;-0,21;-0,19;-1,37;-1,49;-4,49;0,00
10.921;-0,56;-0,07;-0,10;2,75;1,34;-6,40;-1,37;-1,49;-4,49;0,00
10.961;-0,56;-0,07;-0,10;2,75;1,34;-6,40;-0,04;0,55;-2,20;0,00
10.962;-0,68;-0,11;0,09;2,75;1,34;-6,40;-0,04;0,55;-2,20;0,00
11.003;-0,68;-0,11;0,09;0,63;0,27;-5,48;-0,04;0,55;-2,20;0,00
11.044;-0,68;-0,11;0,09;0,63;0,27;-5,48;0,79;0,14;-1,32;0,00
11.045;-0,96;-0,37;0,23;0,63;0,27;-5,48;0,79;0,14;-1,32;0,00
11.061;-0,96;-0,37;0,23;1,72;0,15;-5,38;0,79;0,14;-1,32;0,00
11.082;-0,96;-0,37;0,23;1,72;0,15;-5,38;0,45;1,07;-1,21;0,00
11.103;-1,19;-0,60;0,37;1,72;0,15;-5,38;0,45;1,07;-1,21;0,00
11.131;-1,19;-0,60;0,37;-3,18;-3,56;-0,04;0,45;1,07;-1,21;0,00
11.133;-1,19;-0,60;0,37;-3,46;-2,48;-0,04;0,45;1,07;-1,21;0,00
11.162;-1,19;-0,60;0,37;-3,46;-2,48;-0,04;-1,32;-0,15;-1,97;0,00
11.172;-1,25;-1,18;0,50;-3,46;-2,48;-0,04;-1,32;-0,15;-1,97;0,00
11.203;-1,25;-1,18;0,50;-3,63;-2,07;-0,60;-1,32;-0,15;-1,97;0,00
11.22;-1,25;-1,18;0,50;-3,63;-2,07;-0,60;-2,97;0,26;-3,01;0,00
11.241;-1,46;-2,03;0,55;-3,63;-2,07;-0,60;-2,97;0,26;-3,01;0,00
11.271;-1,46;-2,03;0,55;-6,57;-7,00;1,51;-2,97;0,26;-3,01;0,00
11.281;-1,46;-2,03;0,55;-6,57;-7,00;1,51;-4,13;0,51;-3,48;0,00
11.312;-1,52;-2,31;0,65;-6,57;-7,00;1,51;-4,13;0,51;-3,48;0,00
11.341;-1,52;-2,31;0,65;-11,03;-14,58;6,21;-4,13;0,51;-3,48;0,00
11.361;-1,52;-2,31;0,65;-11,03;-14,58;6,21;-3,71;-3,38;-2,31;0,00
11.381;-1,03;0,05;0,41;-11,03;-14,58;6,21;-3,71;-3,38;-2,31;0,00
11.411;-1,03;0,05;0,41;-9,46;-5,33;6,52;-3,71;-3,38;-2,31;0,00
11.422;-1,03;0,05;0,41;-9,46;-5,33;6,52;0,21;-3,49;1,81;0,00
11.454;-0,47;0,40;0,30;-9,46;-5,33;6,52;0,21;-3,49;1,81;0,00
11.481;-0,47;0,40;0,30;-9,46;-5,33;6,52;0,84;-0,28;2,98;0,00
11.482;-0,47;0,40;0,30;0,52;14,76;-0,62;0,84;-0,28;2,98;0,00
11.522;-0,95;-0,84;0,73;0,52;14,76;-0,62;0,84;-0,28;2,98;0,00
11.551;-0,95;-0,84;0,73;-0,33;5,51;3,93;0,84;-0,28;2,98;0,00
11.552;-0,95;-0,84;0,73;0,87;3,40;2,56;0,84;-0,28;2,98;0,00
11.561;-0,95;-0,84;0,73;0,87;3,40;2,56;1,84;-1,44;3,86;0,00
11.591;-0,28;-0,65;0,31;0,87;3,40;2,56;1,84;-1,44;3,86;0,00
11.621;-0,28;-0,65;0,31;1,31;-6,53;1,03;1,84;-1,44;3,86;0,00
11.622;-0,28;-0,65;0,31;1,31;-6,53;1,03;4,25;-0,95;5,00;0,00
11.661;-0,06;-0,49;0,42;1,31;-6,53;1,03;4,25;-0,95;5,00;0,00
11.68;-0,06;-0,49;0,42;1,31;-6,53;1,03;4,59;0,75;5,30;0,00
11.691;-0,06;-0,49;0,42;8,03;-7,81;-2,29;4,59;0,75;5,30;0,00
11.731;-0,05;-0,61;0,28;8,03;-7,81;-2,29;4,59;0,75;5,30;0,00
11.765;-0,05;-0,61;0,28;6,26;-11,84;0,80;4,59;0,75;5,30;0,00
11.766;-0,05;-0,61;0,28;6,26;-11,84;0,80;3,90;-2,34;3,69;0,00
11.801;-0,85;-0,02;0,70;6,26;-11,84;0,80;3,90;-2,34;3,69;0,00
11.82;-0,85;-0,02;0,70;6,26;-11,84;0,80;1,24;-0,67;-2,47;0,00
11.831;-0,85;-0,02;0,70;4,80;-9,13;1,04;1,24;-0,67;-2,47;0,00
11.871;-1,17;0,07;0,15;4,80;-9,13;1,04;1,24;-0,67;-2,47;0,00
11.881;-1,17;0,07;0,15;4,80;-9,13;1,04;-1,31;-1,40;-5,54;0,00
11.901;-1,17;0,07;0,15;-3,91;-2,88;-0,00;-1,31;-1,40;-5,54;0,00
11.942;-1,14;-0,31;0,06;-3,91;-2,88;-0,00;-1,31;-1,40;-5,54;0,00
11.961;-1,14;-0,31;0,06;-3,91;-2,88;-0,00;-2,06;-0,63;-4,73;0,00
11.974;-1,14;-0,31;0,06;-2,51;-2,64;-3,61;-2,06;-0,63;-4,73;0,00
11.975;-1,14;-0,31;0,06;-2,82;0,02;-3,71;-2,06;-0,63;-4,73;0,00
12.011;-0,72;-0,12;0,11;-2,82;0,02;-3,71;-2,06;-0,63;-4,73;0,00
12.021;-0,72;-0,12;0,11;-2,82;0,02;-3,71;-1,44;-0,68;-3,26;0,00
12.042;-0,72;-0,12;0,11;-1,97;2,24;-4,65;-1,44;-0,68;-3,26;0,00
12.081;-0,86;-0,68;0,19;-1,97;2,24;-4,65;-1,44;-0,68;-3,26;0,00
12.082;-0,86;-0,68;0,19;-1,97;2,24;-4,65;-1,35;0,93;-2,07;0,00
12.111;-0,86;-0,68;0,19;0,90;3,66;-3,75;-1,35;0,93;-2,07;0,00
12.151;-1,21;-1,10;0,35;0,90;3,66;-3,75;-1,35;0,93;-2,07;0,00
12.161;-1,21;-1,10;0,35;0,90;3,66;-3,75;-2,47;1,25;-3,25;0,00
12.181;-1,21;-1,10;0,35;-5,59;-4,27;1,83;-2,47;1,25;-3,25;0,00
12.221;-1,21;-1,10;0,35;-5,59;-4,27;1,83;-2,72;-1,07;-2,00;0,00
12.222;-0,61;-0,62;0,12;-5,59;-4,27;1,83;-2,72;-1,07;-2,00;0,00
12.251;-0,61;-0,62;0,12;-3,30;-0,44;0,49;-2,72;-1,07;-2,00;0,00
12.281;-0,61;-0,62;0,12;-3,30;-0,44;0,49;-1,12;-0,84;0,41;0,00
12.291;-0,75;-1,15;0,03;-3,30;-0,44;0,49;-1,12;-0,84;0,41;0,00
12.328;-0,75;-1,15;0,03;-0,47;2,81;-0,37;-1,12;-0,84;0,41;0,00
12.362;-1,60;-3,28;0,44;-0,47;2,81;-0,37;-1,12;-0,84;0,41;0,00
12.363;-1,60;-3,28;0,44;-0,47;2,81;-0,37;-1,37;-0,48;0,39;0,00
12.4;-1,60;-3,28;0,44;-4,54;-13,30;0,11;-1,37;-0,48;0,39;0,00
12.401;-1,60;-3,28;0,44;-5,38;-12,45;0,83;-1,37;-0,48;0,39;0,00
12.432;-0,99;-0,99;0,12;-5,38;-12,45;0,83;-1,37;-0,48;0,39;0,00
12.441;-0,99;-0,99;0,12;-5,38;-12,45;0,83;-1,14;-1,13;-1,21;0,00
12.462;-0,99;-0,99;0,12;-10,37;-17,74;4,18;-1,14;-1,13;-1,21;0,00
12.463;-0,99;-0,99;0,12;-10,15;-17,47;4,03;-1,14;-1,13;-1,21;0,00
12.482;-0,99;-0,99;0,12;-10,15;-17,47;4,03;0,32;-2,83;1,24;0,00
12.502;-0,40;0,59;0,02;-10,15;-17,47;4,03;0,32;-2,83;1,24;0,00
12.532;-0,40;0,59;0,02;0,03;10,44;-1,97;0,32;-2,83;1,24;0,00
12.533;-0,40;0,59;0,02;0,90;9,54;-2,73;0,32;-2,83;1,24;0,00
12.569;-0,40;0,59;0,02;0,90;9,54;-2,73;1,09;-0,64;3,45;0,00
12.571;-1,00;-0,34;0,64;0,90;9,54;-2,73;1,09;-0,64;3,45;0,00
12.602;-1,00;-0,34;0,64;0,23;9,53;0,57;1,09;-0,64;3,45;0,00
12.642;-1,00;-0,34;0,64;0,23;9,53;0,57;1,62;-0,88;4,05;0,00
12.643;-0,39;-0,48;0,58;0,23;9,53;0,57;1,62;-0,88;4,05;0,00
12.672;-0,39;-0,48;0,58;0,48;0,47;4,45;1,62;-0,88;4,05;0,00
12.673;-0,39;-0,48;0,58;1,06;-1,52;3,27;1,62;-0,88;4,05;0,00
12.688;-0,39;-0,48;0,58;1,06;-1,52;3,27;4,33;-0,32;5,40;0,00
12.711;-0,04;-0,66;0,77;1,06;-1,52;3,27;4,33;-0,32;5,40;0,00
12.742;-0,04;-0,66;0,77;8,45;-4,09;1,36;4,33;-0,32;5,40;0,00
12.743;-0,04;-0,66;0,77;8,35;-7,03;2,07;4,33;-0,32;5,40;0,00
12.762;-0,04;-0,66;0,77;8,35;-7,03;2,07;4,16;0,84;5,55;0,00
12.782;-0,27;-0,92;0,53;8,35;-7,03;2,07;4,16;0,84;5,55;0,00
12.812;-0,27;-0,92;0,53;8,51;-13,68;4,35;4,16;0,84;5,55;0,00
12.813;-0,27;-0,92;0,53;8,13;-13,83;4,18;4,16;0,84;5,55;0,00
12.842;-0,27;-0,92;0,53;8,13;-13,83;4,18;1,98;-2,01;-0,71;0,00
12.851;-1,34;-0,56;0,31;8,13;-13,83;4,18;1,98;-2,01;-0,71;0,00
12.882;-1,34;-0,56;0,31;8,13;-13,83;4,18;-0,72;-2,23;-6,25;0,00
12.883;-1,34;-0,56;0,31;1,49;-8,87;0,48;-0,72;-2,23;-6,25;0,00
12.922;-1,17;-0,05;-0,39;1,49;-8,87;0,48;-0,72;-2,23;-6,25;0,00
12.952;-1,17;-0,05;-0,39;-6,44;-4,43;-7,37;-0,72;-2,23;-6,25;0,00
12.954;-1,17;-0,05;-0,39;-6,36;-2,73;-7,12;-0,72;-2,23;-6,25;0,00
12.962;-1,17;-0,05;-0,39;-6,36;-2,73;-7,12;-0,87;0,51;-3,31;0,00
12.992;-1,00;0,02;0,14;-6,36;-2,73;-7,12;-0,87;0,51;-3,31;0,00
13.022;-1,00;0,02;0,14;-1,70;2,46;-4,99;-0,87;0,51;-3,31;0,00
13.023;-1,00;0,02;0,14;-1,84;2,80;-5,00;-0,87;0,51;-3,31;0,00
13.042;-1,00;0,02;0,14;-1,84;2,80;-5,00;0,49;-0,16;-1,25;0,00
13.062;-1,05;-0,30;0,44;-1,84;2,80;-5,00;0,49;-0,16;-1,25;0,00
13.082;-1,05;-0,30;0,44;-1,84;2,80;-5,00;-0,08;0,98;-0,52;0,00
13.098;-1,05;-0,30;0,44;-0,96;2,46;-3,18;-0,08;0,98;-0,52;0,00
13.099;-1,05;-0,30;0,44;-0,79;2,62;-2,71;-0,08;0,98;-0,52;0,00
13.132;-1,21;-0,74;0,62;-0,79;2,62;-2,71;-0,08;0,98;-0,52;0,00
13.162;-1,21;-0,74;0,62;-0,79;2,62;-2,71;-1,00;0,10;-2,33;0,00
13.162;-1,21;-0,74;0,62;-4,66;-3,38;3,58;-1,00;0,10;-2,33;0,00
13.202;-0,42;-0,42;0,09;-4,66;-3,38;3,58;-1,00;0,10;-2,33;0,00
13.232;-0,42;-0,42;0,09;1,26;0,16;-0,86;-1,00;0,10;-2,33;0,00
13.233;-0,42;-0,42;0,09;0,77;0,99;-0,65;-1,00;0,10;-2,33;0,00
13.241;-0,42;-0,42;0,09;0,77;0,99;-0,65;-1,52;-0,37;-1,73;0,00
13.272;-0,81;-0,69;0,17;0,77;0,99;-0,65;-1,52;-0,37;-1,73;0,00
13.282;-0,81;-0,69;0,17;0,77;0,99;-0,65;-0,52;-0,98;0,61;0,00
13.305;-0,81;-0,69;0,17;2,07;2,19;-2,41;-0,52;-0,98;0,61;0,00
13.306;-0,81;-0,69;0,17;2,06;1,98;-2,61;-0,52;-0,98;0,61;0,00
13.342;-1,70;-1,87;0,90;2,06;1,98;-2,61;-0,52;-0,98;0,61;0,00
13.362;-1,70;-1,87;0,90;2,06;1,98;-2,61;-1,68;-0,87;0,28;0,00
13.372;-1,70;-1,87;0,90;-4,32;-7,10;1,07;-1,68;-0,87;0,28;0,00
13.374;-1,70;-1,87;0,90;-4,48;-6,59;1,23;-1,68;-0,87;0,28;0,00
13.413;-1,40;-1,51;0,71;-4,48;-6,59;1,23;-1,68;-0,87;0,28;0,00
13.442;-1,40;-1,51;0,71;-9,89;-12,04;6,85;-1,68;-0,87;0,28;0,00
13.443;-1,40;-1,51;0,71;-9,89;-12,04;6,85;-2,74;-0,43;-2,20;0,00
13.482;-1,40;-1,51;0,71;-9,89;-12,04;6,85;-1,53;-0,84;-0,77;0,00
13.483;-0,47;0,40;0,18;-9,89;-12,04;6,85;-1,53;-0,84;-0,77;0,00
13.514;-0,47;0,40;0,18;-4,53;2,08;1,49;-1,53;-0,84;-0,77;0,00
13.515;-0,47;0,40;0,18;-4,68;2,25;1,66;-1,53;-0,84;-0,77;0,00
13.552;-0,67;-0,10;0,42;-4,68;2,25;1,66;-1,53;-0,84;-0,77;0,00
13.561;-0,67;-0,10;0,42;-4,68;2,25;1,66;-0,48;-0,14;1,66;0,00
13.582;-0,67;-0,10;0,42;2,87;12,43;0,23;-0,48;-0,14;1,66;0,00
13.583;-0,67;-0,10;0,42;3,47;11,71;0,48;-0,48;-0,14;1,66;0,00
13.622;-0,89;-0,40;0,52;3,47;11,71;0,48;-0,48;-0,14;1,66;0,00
13.642;-0,89;-0,40;0,52;3,47;11,71;0,48;0,76;-1,73;2,54;0,00
13.653;-0,89;-0,40;0,52;-1,17;3,20;3,93;0,76;-1,73;2,54;0,00
13.653;-0,89;-0,40;0,52;-0,51;1,68;2,68;0,76;-1,73;2,54;0,00
13.682;-0,89;-0,40;0,52;-0,51;1,68;2,68;3,29;-0,72;5,23;0,00
13.692;-0,49;-0,36;0,61;-0,51;1,68;2,68;3,29;-0,72;5,23;0,00
13.722;-0,49;-0,36;0,61;1,85;-1,62;0,18;3,29;-0,72;5,23;0,00
13.765;-0,39;-0,59;0,56;1,85;-1,62;0,18;3,29;-0,72;5,23;0,00
13.766;-0,39;-0,59;0,56;1,85;-1,62;0,18;4,47;0,25;5,92;0,00
13.795;-0,39;-0,59;0,56;4,47;-4,05;1,98;4,47;0,25;5,92;0,00
13.797;-0,39;-0,59;0,56;4,01;-6,83;2,27;4,47;0,25;5,92;0,00
13.833;-1,13;-0,36;0,84;4,01;-6,83;2,27;4,47;0,25;5,92;0,00
13.843;-1,13;-0,36;0,84;4,01;-6,83;2,27;3,14;0,14;3,90;0,00
13.864;-1,13;-0,36;0,84;1,89;-10,23;3,93;3,14;0,14;3,90;0,00
13.865;-1,13;-0,36;0,84;1,77;-10,43;4,23;3,14;0,14;3,90;0,00
13.883;-1,13;-0,36;0,84;1,77;-10,43;4,23;1,04;-2,00;-2,35;0,00
13.902;-1,14;0,07;0,30;1,77;-10,43;4,23;1,04;-2,00;-2,35;0,00
13.932;-1,14;0,07;0,30;-4,46;-5,54;1,40;1,04;-2,00;-2,35;0,00
13.933;-1,14;0,07;0,30;-4,15;-4,16;0,72;1,04;-2,00;-2,35;0,00
13.962;-1,14;0,07;0,30;-4,15;-4,16;0,72;0,17;-2,15;-3,92;0,00
13.976;-0,71;0,14;-0,23;-4,15;-4,16;0,72;0,17;-2,15;-3,92;0,00
14.003;-0,71;0,14;-0,23;-1,33;-1,35;-4,25;0,17;-2,15;-3,92;0,00
14.042;-0,71;0,14;-0,23;-1,33;-1,35;-4,25;-0,08;-1,16;-2,32;0,00
14.043;-0,34;0,09;0,06;-1,33;-1,35;-4,25;-0,08;-1,16;-2,32;0,00
14.074;-0,34;0,09;0,06;4,25;0,78;-5,85;-0,08;-1,16;-2,32;0,00
14.075;-0,34;0,09;0,06;4,15;1,31;-5,85;-0,08;-1,16;-2,32;0,00
14.096;-0,34;0,09;0,06;4,15;1,31;-5,85;0,54;0,48;-1,46;0,00
14.112;-0,56;0,09;0,11;4,15;1,31;-5,85;0,54;0,48;-1,46;0,00
14.142;-0,56;0,09;0,11;3,41;1,23;-5,03;0,54;0,48;-1,46;0,00
14.143;-0,56;0,09;0,11;3,41;1,63;-4,84;0,54;0,48;-1,46;0,00
14.162;-0,56;0,09;0,11;3,41;1,63;-4,84;-1,21;0,52;-2,40;0,00
14.182;-1,01;-0,83;0,59;3,41;1,63;-4,84;-1,21;0,52;-2,40;0,00
14.213;-1,01;-0,83;0,59;-0,12;-0,64;-0,79;-1,21;0,52;-2,40;0,00
14.214;-1,01;-0,83;0,59;-0,77;1,62;-0,24;-1,21;0,52;-2,40;0,00
14.242;-1,01;-0,83;0,59;-0,77;1,62;-0,24;-2,92;0,35;-5,53;0,00
14.252;-0,32;-0,60;-0,18;-0,77;1,62;-0,24;-2,92;0,35;-5,53;0,00
14.282;-0,32;-0,60;-0,18;-0,77;1,62;-0,24;-2,19;1,11;-2,61;0,00
14.283;-0,32;-0,60;-0,18;-0,87;-0,96;-0,82;-2,19;1,11;-2,61;0,00
14.323;-1,35;-1,48;0,48;-0,87;-0,96;-0,82;-2,19;1,11;-2,61;0,00
14.352;-1,35;-1,48;0,48;1,03;-1,52;-2,33;-2,19;1,11;-2,61;0,00
14.353;-1,35;-1,48;0,48;1,00;-1,28;-1,67;-2,19;1,11;-2,61;0,00
14.362;-1,35;-1,48;0,48;1,00;-1,28;-1,67;-0,72;0,33;-0,22;0,00
14.394;-1,47;-1,97;0,29;1,00;-1,28;-1,67;-0,72;0,33;-0,22;0,00
14.422;-1,47;-1,97;0,29;-9,70;-10,27;1,59;-0,72;0,33;-0,22;0,00
14.423;-1,47;-1,97;0,29;-9,55;-10,07;1,63;-0,72;0,33;-0,22;0,00
14.443;-1,47;-1,97;0,29;-9,55;-10,07;1,63;-1,24;-0,66;-0,04;0,00
14.462;-1,64;-2,28;0,51;-9,55;-10,07;1,63;-1,24;-0,66;-0,04;0,00
14.482;-1,64;-2,28;0,51;-9,55;-10,07;1,63;-2,62;-1,34;-2,15;0,00
14.493;-1,64;-2,28;0,51;-11,03;-16,07;5,31;-2,62;-1,34;-2,15;0,00
14.494;-1,64;-2,28;0,51;-11,67;-15,19;5,73;-2,62;-1,34;-2,15;0,00
14.532;-0,62;-0,27;-0,19;-11,67;-15,19;5,73;-2,62;-1,34;-2,15;0,00
14.562;-0,62;-0,27;-0,19;-11,67;-15,19;5,73;-2,64;-1,34;-1,15;0,00
14.563;-0,62;-0,27;-0,19;-5,61;-5,10;0,16;-2,64;-1,34;-1,15;0,00
14.603;-0,08;0,63;0,02;-5,61;-5,10;0,16;-2,64;-1,34;-1,15;0,00
14.632;-0,08;0,63;0,02;1,47;14,40;-0,35;-2,64;-1,34;-1,15;0,00
14.633;-0,08;0,63;0,02;1,60;14,03;0,15;-2,64;-1,34;-1,15;0,00
14.642;-0,08;0,63;0,02;1,60;14,03;0,15;-2,38;-1,64;0,35;0,00
14.672;-0,96;-1,01;0,82;1,60;14,03;0,15;-2,38;-1,64;0,35;0,00
14.682;-0,96;-1,01;0,82;1,60;14,03;0,15;-2,00;-1,94;1,27;0,00
14.702;-0,96;-1,01;0,82;2,26;8,99;3,20;-2,00;-1,94;1,27;0,00
14.703;-0,96;-1,01;0,82;2,83;8,40;3,28;-2,00;-1,94;1,27;0,00
14.742;-1,23;-1,07;0,63;2,83;8,40;3,28;-2,00;-1,94;1,27;0,00
14.762;-1,23;-1,07;0,63;2,83;8,40;3,28;3,37;-4,78;4,80;0,00
14.772;-1,23;-1,07;0,63;-6,35;-6,23;9,92;3,37;-4,78;4,80;0,00
14.774;-1,23;-1,07;0,63;-5,02;-8,21;7,37;3,37;-4,78;4,80;0,00
14.813;-0,21;-0,52;0,55;-5,02;-8,21;7,37;3,37;-4,78;4,80;0,00
14.842;-0,21;-0,52;0,55;-5,02;-8,21;7,37;6,54;-0,85;6,38;0,00
14.843;-0,21;-0,52;0,55;2,22;-5,97;0,89;6,54;-0,85;6,38;0,00
14.882;-0,21;-0,52;0,55;2,22;-5,97;0,89;5,76;-0,00;7,02;0,00
14.883;-0,32;-0,93;0,46;2,22;-5,97;0,89;5,76;-0,00;7,02;0,00
14.912;-0,32;-0,93;0,46;7,44;-7,36;2,26;5,76;-0,00;7,02;0,00
14.915;-0,32;-0,93;0,46;6,44;-10,45;2,88;5,76;-0,00;7,02;0,00
14.953;-0,51;-0,56;0,47;6,44;-10,45;2,88;5,76;-0,00;7,02;0,00
14.962;-0,51;-0,56;0,47;6,44;-10,45;2,88;2,12;-2,27;0,60;0,00
14.984;-0,51;-0,56;0,47;3,16;-14,62;1,21;2,12;-2,27;0,60;0,00
14.986;-0,51;-0,56;0,47;3,32;-13,76;0,64;2,12;-2,27;0,60;0,00
15.022;-1,18;-0,56;-0,01;3,32;-13,76;0,64;2,12;-2,27;0,60;0,00
15.042;-1,18;-0,56;-0,01;3,32;-13,76;0,64;-0,73;-1,87;-6,66;0,00
15.052;-1,18;-0,56;-0,01;-0,53;-7,51;-2,32;-0,73;-1,87;-6,66;0,00
15.053;-1,18;-0,56;-0,01;-0,21;-4,89;-2,59;-0,73;-1,87;-6,66;0,00
15.082;-1,18;-0,56;-0,01;-0,21;-4,89;-2,59;-0,77;0,56;-5,80;0,00
15.092;-1,20;-0,45;-0,09;-0,21;-4,89;-2,59;-0,77;0,56;-5,80;0,00
15.122;-1,20;-0,45;-0,09;-3,51;-3,66;-5,49;-0,77;0,56;-5,80;0,00
15.162;-0,87;0,01;0,12;-3,51;-3,66;-5,49;-0,77;0,56;-5,80;0,00
15.163;-0,87;0,01;0,12;-3,51;-3,66;-5,49;-0,06;0,83;-2,83;0,00
15.193;-0,87;0,01;0,12;-3,41;0,56;-3,34;-0,06;0,83;-2,83;0,00
15.194;-0,87;0,01;0,12;-3,64;1,29;-3,27;-0,06;0,83;-2,83;0,00
15.232;-0,89;-0,23;0,26;-3,64;1,29;-3,27;-0,06;0,83;-2,83;0,00
15.242;-0,89;-0,23;0,26;-3,64;1,29;-3,27;-0,01;-0,15;-1,37;0,00
15.262;-0,89;-0,23;0,26;0,42;3,92;-2,50;-0,01;-0,15;-1,37;0,00
15.263;-0,89;-0,23;0,26;0,40;4,12;-2,18;-0,01;-0,15;-1,37;0,00
15.282;-0,89;-0,23;0,26;0,40;4,12;-2,18;0,39;0,66;-0,83;0,00
15.302;-0,95;-0,28;0,12;0,40;4,12;-2,18;0,39;0,66;-0,83;0,00
15.333;-0,95;-0,28;0,12;-1,79;1,57;-0,30;0,39;0,66;-0,83;0,00
15.334;-0,95;-0,28;0,12;-1,78;1,62;-0,22;0,39;0,66;-0,83;0,00
15.362;-0,95;-0,28;0,12;-1,78;1,62;-0,22;-0,66;0,51;-0,38;0,00
15.373;-1,64;-1,76;0,53;-1,78;1,62;-0,22;-0,66;0,51;-0,38;0,00
15.402;-1,64;-1,76;0,53;-2,16;-1,53;-0,78;-0,66;0,51;-0,38;0,00
15.443;-1,37;-2,18;0,20;-2,16;-1,53;-0,78;-0,66;0,51;-0,38;0,00
15.444;-1,37;-2,18;0,20;-2,16;-1,53;-0,78;-3,26;-1,12;-2,56;0,00
15.472;-1,37;-2,18;0,20;-10,47;-15,64;2,60;-3,26;-1,12;-2,56;0,00
15.474;-1,37;-2,18;0,20;-11,67;-13,88;3,01;-3,26;-1,12;-2,56;0,00
15.482;-1,37;-2,18;0,20;-11,67;-13,88;3,01;-5,51;-1,99;-4,01;0,00
15.512;-1,26;-0,67;0,58;-11,67;-13,88;3,01;-5,51;-1,99;-4,01;0,00
15.542;-1,26;-0,67;0,58;-7,68;-10,24;3,78;-5,51;-1,99;-4,01;0,00
15.543;-1,26;-0,67;0,58;-7,96;-9,86;4,18;-5,51;-1,99;-4,01;0,00
15.562;-1,26;-0,67;0,58;-7,96;-9,86;4,18;-1,77;-3,90;0,35;0,00
15.582;-0,45;0,09;0,32;-7,96;-9,86;4,18;-1,77;-3,90;0,35;0,00
15.612;-0,45;0,09;0,32;-1,38;10,38;0,93;-1,77;-3,90;0,35;0,00
15.613;-0,45;0,09;0,32;-0,55;9,69;0,96;-1,77;-3,90;0,35;0,00
15.642;-0,45;0,09;0,32;-0,55;9,69;0,96;0,12;0,09;2,51;0,00
15.652;-1,18;-0,60;0,94;-0,55;9,69;0,96;0,12;0,09;2,51;0,00
15.682;-1,18;-0,60;0,94;-0,55;9,69;0,96;2,66;-2,46;3,99;0,00
15.684;-1,18;-0,60;0,94;-3,80;4,28;7,51;2,66;-2,46;3,99;0,00
15.723;-0,45;-0,44;0,61;-3,80;4,28;7,51;2,66;-2,46;3,99;0,00
15.756;-0,45;-0,44;0,61;1,03;1,42;3,78;2,66;-2,46;3,99;0,00
15.756;-0,45;-0,44;0,61;1,88;-1,06;2,64;2,66;-2,46;3,99;0,00
15.762;-0,45;-0,44;0,61;1,88;-1,06;2,64;4,68;-0,43;5,80;0,00
15.792;-0,13;-0,90;0,43;1,88;-1,06;2,64;4,68;-0,43;5,80;0,00
15.822;-0,13;-0,90;0,43;5,87;-5,91;1,72;4,68;-0,43;5,80;0,00
15.823;-0,13;-0,90;0,43;5,40;-8,66;1,67;4,68;-0,43;5,80;0,00
15.843;-0,13;-0,90;0,43;5,40;-8,66;1,67;5,03;-0,69;5,23;0,00
15.863;-0,51;-0,90;0,55;5,40;-8,66;1,67;5,03;-0,69;5,23;0,00
15.883;-0,51;-0,90;0,55;5,40;-8,66;1,67;2,76;0,15;0,65;0,00
15.898;-0,51;-0,90;0,55;6,84;-14,31;-0,83;2,76;0,15;0,65;0,00
15.899;-0,51;-0,90;0,55;6,78;-14,40;-0,29;2,76;0,15;0,65;0,00
15.933;-1,34;-0,09;0,47;6,78;-14,40;-0,29;2,76;0,15;0,65;0,00
15.962;-1,34;-0,09;0,47;6,78;-14,40;-0,29;-0,37;-2,00;-4,21;0,00
15.963;-1,34;-0,09;0,47;-1,27;-8,70;2,08;-0,37;-2,00;-4,21;0,00
16.003;-1,00;0,07;-0,01;-1,27;-8,70;2,08;-0,37;-2,00;-4,21;0,00
16.037;-1,00;0,07;-0,01;-4,57;-1,40;-0,70;-0,37;-2,00;-4,21;0,00
16.039;-1,00;0,07;-0,01;-4,99;0,35;-1,59;-0,37;-2,00;-4,21;0,00
16.042;-1,00;0,07;-0,01;-4,99;0,35;-1,59;-1,26;-2,40;-4,36;0,00
16.074;-0,53;0,03;-0,00;-4,99;0,35;-1,59;-1,26;-2,40;-4,36;0,00
16.083;-0,53;0,03;-0,00;-4,99;0,35;-1,59;-0,92;0,38;-2,70;0,00
16.103;-0,53;0,03;-0,00;1,02;3,07;-7,41;-0,92;0,38;-2,70;0,00
16.104;-0,53;0,03;-0,00;0,91;3,98;-7,04;-0,92;0,38;-2,70;0,00
16.147;-0,55;-0,08;0,07;0,91;3,98;-7,04;-0,92;0,38;-2,70;0,00
16.168;-0,55;-0,08;0,07;0,91;3,98;-7,04;0,03;0,51;-2,05;0,00
16.172;-0,55;-0,08;0,07;1,53;2,87;-3,99;0,03;0,51;-2,05;0,00
16.173;-0,55;-0,08;0,07;1,35;3,28;-3,82;0,03;0,51;-2,05;0,00
16.212;-0,69;-0,37;0,29;1,35;3,28;-3,82;0,03;0,51;-2,05;0,00
16.243;-0,69;-0,37;0,29;1,68;2,66;-4,30;0,03;0,51;-2,05;0,00
16.244;-0,69;-0,37;0,29;1,68;2,66;-4,30;-0,30;1,09;-0,80;0,00
16.283;-1,34;-1,08;0,62;1,68;2,66;-4,30;-0,30;1,09;-0,80;0,00
16.284;-1,34;-1,08;0,62;1,68;2,66;-4,30;-0,99;0,41;-0,60;0,00
16.313;-1,34;-1,08;0,62;-2,04;-2,00;1,34;-0,99;0,41;-0,60;0,00
16.314;-1,34;-1,08;0,62;-2,07;-1,63;1,57;-0,99;0,41;-0,60;0,00
16.353;-1,74;-2,18;0,64;-2,07;-1,63;1,57;-0,99;0,41;-0,60;0,00
16.362;-1,74;-2,18;0,64;-2,07;-1,63;1,57;-2,62;-0,22;-1,82;0,00
16.383;-1,74;-2,18;0,64;-8,19;-10,08;2,60;-2,62;-0,22;-1,82;0,00
16.385;-1,74;-2,18;0,64;-8,67;-8,78;3,33;-2,62;-0,22;-1,82;0,00
16.422;-1,45;-2,08;0,62;-8,67;-8,78;3,33;-2,62;-0,22;-1,82;0,00
16.443;-1,45;-2,08;0,62;-8,67;-8,78;3,33;-4,39;-0,18;-3,96;0,00
16.453;-1,45;-2,08;0,62;-10,93;-15,74;4,71;-4,39;-0,18;-3,96;0,00
16.453;-1,45;-2,08;0,62;-11,95;-14,65;5,85;-4,39;-0,18;-3,96;0,00
16.482;-1,45;-2,08;0,62;-11,95;-14,65;5,85;-2,16;-1,53;-0,99;0,00
16.492;-0,70;0,32;0,16;-11,95;-14,65;5,85;-2,16;-1,53;-0,99;0,00
16.523;-0,70;0,32;0,16;-6,92;-0,40;4,74;-2,16;-1,53;-0,99;0,00
16.563;-1,06;-0,06;0,62;-6,92;-0,40;4,74;-2,16;-1,53;-0,99;0,00
16.564;-1,06;-0,06;0,62;-6,92;-0,40;4,74;-0,11;-1,63;1,77;0,00
16.593;-1,06;-0,06;0,62;-0,08;13,58;1,18;-0,11;-1,63;1,77;0,00
16.594;-1,06;-0,06;0,62;0,66;12,87;0,87;-0,11;-1,63;1,77;0,00
16.632;-1,08;-0,84;0,52;0,66;12,87;0,87;-0,11;-1,63;1,77;0,00
16.657;-1,08;-0,84;0,52;0,66;12,87;0,87;1,16;-2,59;4,24;0,00
16.663;-1,08;-0,84;0,52;-7,27;2,04;5,63;1,16;-2,59;4,24;0,00
16.664;-1,08;-0,84;0,52;-6,26;0,20;3,77;1,16;-2,59;4,24;0,00
16.684;-1,08;-0,84;0,52;-6,26;0,20;3,77;4,32;-1,91;5,27;0,00
16.703;-0,00;-0,30;0,43;-6,26;0,20;3,77;4,32;-1,91;5,27;0,00
16.733;-0,00;-0,30;0,43;4,01;-3,09;-1,00;4,32;-1,91;5,27;0,00
16.734;-0,00;-0,30;0,43;4,37;-6,05;-1,00;4,32;-1,91;5,27;0,00
16.762;-0,00;-0,30;0,43;4,37;-6,05;-1,00;4,87;0,86;5,89;0,00
16.773;-0,14;-0,84;0,72;4,37;-6,05;-1,00;4,87;0,86;5,89;0,00
16.803;-0,14;-0,84;0,72;8,76;-7,23;1,43;4,87;0,86;5,89;0,00
16.843;-0,54;-0,86;0,81;8,76;-7,23;1,43;4,87;0,86;5,89;0,00
16.844;-0,54;-0,86;0,81;8,76;-7,23;1,43;3,92;-0,43;4,16;0,00
16.873;-0,54;-0,86;0,81;5,33;-14,71;4,12;3,92;-0,43;4,16;0,00
16.874;-0,54;-0,86;0,81;4,94;-15,05;4,30;3,92;-0,43;4,16;0,00
16.888;-0,54;-0,86;0,81;4,94;-15,05;4,30;1,50;-1,05;-2,58;0,00
16.913;-1,24;-0,10;0,31;4,94;-15,05;4,30;1,50;-1,05;-2,58;0,00
16.943;-1,24;-0,10;0,31;-0,87;-9,15;1,51;1,50;-1,05;-2,58;0,00
16.944;-1,24;-0,10;0,31;-0,36;-7,01;0,80;1,50;-1,05;-2,58;0,00
16.963;-1,24;-0,10;0,31;-0,36;-7,01;0,80;-1,70;-2,11;-5,95;0,00
16.982;-1,15;-0,18;0,06;-0,36;-7,01;0,80;-1,70;-2,11;-5,95;0,00
17.013;-1,15;-0,18;0,06;-4,20;-1,29;-1,73;-1,70;-2,11;-5,95;0,00
17.015;-1,15;-0,18;0,06;-4,61;0,61;-1,96;-1,70;-2,11;-5,95;0,00
17.043;-1,15;-0,18;0,06;-4,61;0,61;-1,96;-1,81;-0,88;-4,46;0,00
17.054;-0,73;0,07;-0,09;-4,61;0,61;-1,96;-1,81;-0,88;-4,46;0,00
17.082;-0,73;0,07;-0,09;-4,61;0,61;-1,96;-0,69;0,76;-2,76;0,00
17.083;-0,73;0,07;-0,09;-2,08;2,84;-6,37;-0,69;0,76;-2,76;0,00
17.123;-0,54;0,05;-0,07;-2,08;2,84;-6,37;-0,69;0,76;-2,76;0,00
17.153;-0,54;0,05;-0,07;1,39;5,43;-5,09;-0,69;0,76;-2,76;0,00
17.154;-0,54;0,05;-0,07;1,12;5,98;-4,75;-0,69;0,76;-2,76;0,00
17.163;-0,54;0,05;-0,07;1,12;5,98;-4,75;0,13;1,14;-1,79;0,00
17.193;-0,83;-0,47;0,22;1,12;5,98;-4,75;0,13;1,14;-1,79;0,00
17.223;-0,83;-0,47;0,22;0,98;4,13;-4,05;0,13;1,14;-1,79;0,00
17.224;-0,83;-0,47;0,22;1,17;4,15;-3,44;0,13;1,14;-1,79;0,00
17.243;-0,83;-0,47;0,22;1,17;4,15;-3,44;-0,72;1,50;-0,09;0,00
17.263;-1,75;-1,80;0,63;1,17;4,15;-3,44;-0,72;1,50;-0,09;0,00
17.283;-1,75;-1,80;0,63;1,17;4,15;-3,44;-2,33;-0,04;-1,14;0,00
17.294;-1,75;-1,80;0,63;-4,23;-4,79;2,12;-2,33;-0,04;-1,14;0,00
17.295;-1,75;-1,80;0,63;-4,49;-4,11;2,54;-2,33;-0,04;-1,14;0,00
17.332;-2,04;-2,67;0,57;-4,49;-4,11;2,54;-2,33;-0,04;-1,14;0,00
17.363;-2,04;-2,67;0,57;-4,49;-4,11;2,54;-3,69;-1,02;-2,90;0,00
17.364;-2,04;-2,67;0,57;-12,44;-14,78;3,89;-3,69;-1,02;-2,90;0,00
17.403;-1,20;-1,14;0,67;-12,44;-14,78;3,89;-3,69;-1,02;-2,90;0,00
17.433;-1,20;-1,14;0,67;-12,43;-15,18;5,72;-3,69;-1,02;-2,90;0,00
17.435;-1,20;-1,14;0,67;-12,73;-14,58;6,09;-3,69;-1,02;-2,90;0,00
17.462;-1,20;-1,14;0,67;-12,73;-14,58;6,09;-2,38;-2,07;-1,11;0,00
17.473;-0,36;0,58;0,25;-12,73;-14,58;6,09;-2,38;-2,07;-1,11;0,00
17.483;-0,36;0,58;0,25;-12,73;-14,58;6,09;0,50;-1,69;1,58;0,00
17.504;-0,36;0,58;0,25;-1,59;8,68;4,42;0,50;-1,69;1,58;0,00
17.505;-0,36;0,58;0,25;-1,01;8,09;3,71;0,50;-1,69;1,58;0,00
17.542;-0,62;-0,02;0,51;-1,01;8,09;3,71;0,50;-1,69;1,58;0,00
17.562;-0,62;-0,02;0,51;-1,01;8,09;3,71;0,47;-1,36;2,45;0,00
17.573;-0,62;-0,02;0,51;4,31;11,15;0,71;0,47;-1,36;2,45;0,00
17.575;-0,62;-0,02;0,51;4,93;10,13;0,23;0,47;-1,36;2,45;0,00
17.613;-1,27;-0,93;0,42;4,93;10,13;0,23;0,47;-1,36;2,45;0,00
17.643;-1,27;-0,93;0,42;-3,31;0,20;2,88;0,47;-1,36;2,45;0,00
17.644;-1,27;-0,93;0,42;-3,31;0,20;2,88;2,35;-2,54;4,66;0,00
17.683;-1,27;-0,93;0,42;-3,31;0,20;2,88;4,95;-0,81;5,98;0,00
17.684;-0,14;-0,45;0,52;-3,31;0,20;2,88;4,95;-0,81;5,98;0,00
17.713;-0,14;-0,45;0,52;0,84;-6,02;-2,23;4,95;-0,81;5,98;0,00
17.714;-0,14;-0,45;0,52;0,95;-9,04;-2,45;4,95;-0,81;5,98;0,00
17.753;-0,00;-0,85;0,64;0,95;-9,04;-2,45;4,95;-0,81;5,98;0,00
17.763;-0,00;-0,85;0,64;0,95;-9,04;-2,45;5,43;0,85;6,08;0,00
17.807;-0,00;-0,85;0,64;7,89;-8,11;2,33;5,43;0,85;6,08;0,00
17.809;-0,00;-0,85;0,64;6,63;-10,51;3,41;5,43;0,85;6,08;0,00
17.823;-0,49;-0,57;0,56;6,63;-10,51;3,41;5,43;0,85;6,08;0,00
17.843;-0,49;-0,57;0,56;6,63;-10,51;3,41;3,11;-1,78;1,60;0,00
17.853;-0,49;-0,57;0,56;4,77;-15,03;2,76;3,11;-1,78;1,60;0,00
17.854;-0,49;-0,57;0,56;5,37;-14,01;2,45;3,11;-1,78;1,60;0,00
17.883;-0,49;-0,57;0,56;5,37;-14,01;2,45;-1,40;-2,78;-6,52;0,00
17.893;-1,07;-0,13;0,38;5,37;-14,01;2,45;-1,40;-2,78;-6,52;0,00
17.923;-1,07;-0,13;0,38;-0,10;-6,30;-0,46;-1,40;-2,78;-6,52;0,00
17.962;-1,07;-0,13;0,38;-0,10;-6,30;-0,46;-2,64;-1,51;-6,60;0,00
17.964;-1,33;-0,29;0,05;-0,10;-6,30;-0,46;-2,64;-1,51;-6,60;0,00
17.992;-1,33;-0,29;0,05;-4,88;-4,07;-1,23;-2,64;-1,51;-6,60;0,00
17.993;-1,33;-0,29;0,05;-5,15;-1,89;-1,51;-2,64;-1,51;-6,60;0,00
18.033;-0,90;0,04;0,09;-5,15;-1,89;-1,51;-2,64;-1,51;-6,60;0,00
18.044;-0,90;0,04;0,09;-5,15;-1,89;-1,51;-1,98;0,16;-3,38;0,00
18.064;-0,90;0,04;0,09;-3,35;2,36;-5,91;-1,98;0,16;-3,38;0,00
18.066;-0,90;0,04;0,09;-3,57;3,38;-5,44;-1,98;0,16;-3,38;0,00
18.083;-0,90;0,04;0,09;-3,57;3,38;-5,44;-0,73;0,17;-1,98;0,00
18.103;-0,84;-0,06;0,10;-3,57;3,38;-5,44;-0,73;0,17;-1,98;0,00
18.133;-0,84;-0,06;0,10;-2,09;5,06;-2,66;-0,73;0,17;-1,98;0,00
18.134;-0,84;-0,06;0,10;-2,13;5,15;-2,54;-0,73;0,17;-1,98;0,00
18.163;-0,84;-0,06;0,10;-2,13;5,15;-2,54;-0,14;0,77;-0,01;0,00
18.173;-1,35;-0,92;0,62;-2,13;5,15;-2,54;-0,14;0,77;-0,01;0,00
18.203;-1,35;-0,92;0,62;-2,66;1,72;-2,05;-0,14;0,77;-0,01;0,00
18.243;-1,76;-1,98;0,78;-2,66;1,72;-2,05;-0,14;0,77;-0,01;0,00
18.244;-1,76;-1,98;0,78;-2,66;1,72;-2,05;-1,08;0,83;0,28;0,00
18.274;-1,76;-1,98;0,78;-7,90;-9,78;4,95;-1,08;0,83;0,28;0,00
18.275;-1,76;-1,98;0,78;-7,92;-9,08;5,32;-1,08;0,83;0,28;0,00
18.282;-1,76;-1,98;0,78;-7,92;-9,08;5,32;-3,24;0,29;-2,26;0,00
18.314;-1,43;-2,04;0,60;-7,92;-9,08;5,32;-3,24;0,29;-2,26;0,00
18.343;-1,43;-2,04;0,60;-8,51;-14,40;3,13;-3,24;0,29;-2,26;0,00
18.344;-1,43;-2,04;0,60;-9,47;-12,89;4,48;-3,24;0,29;-2,26;0,00
18.363;-1,43;-2,04;0,60;-9,47;-12,89;4,48;-3,83;-0,65;-3,04;0,00
18.383;-0,94;0,12;0,25;-9,47;-12,89;4,48;-3,83;-0,65;-3,04;0,00
18.414;-0,94;0,12;0,25;-9,46;-3,76;6,47;-3,83;-0,65;-3,04;0,00
18.415;-0,94;0,12;0,25;-8,88;-4,01;5,84;-3,83;-0,65;-3,04;0,00
18.443;-0,94;0,12;0,25;-8,88;-4,01;5,84;-0,53;-2,93;1,54;0,00
18.454;-0,55;0,19;0,55;-8,88;-4,01;5,84;-0,53;-2,93;1,54;0,00
18.483;-0,55;0,19;0,55;-8,88;-4,01;5,84;-0,01;0,08;2,32;0,00
18.483;-0,55;0,19;0,55;2,69;11,67;0,56;-0,01;0,08;2,32;0,00
18.523;-1,23;-0,51;0,76;2,69;11,67;0,56;-0,01;0,08;2,32;0,00
18.554;-1,23;-0,51;0,76;-2,49;7,01;6,58;-0,01;0,08;2,32;0,00
18.555;-1,23;-0,51;0,76;-1,70;5,72;5,46;-0,01;0,08;2,32;0,00
18.563;-1,23;-0,51;0,76;-1,70;5,72;5,46;1,80;-2,79;4,23;0,00
18.594;-0,22;-0,65;0,49;-1,70;5,72;5,46;1,80;-2,79;4,23;0,00
18.624;-0,22;-0,65;0,49;0,36;-3,80;1,60;1,80;-2,79;4,23;0,00
18.625;-0,22;-0,65;0,49;0,79;-6,47;0,96;1,80;-2,79;4,23;0,00
18.643;-0,22;-0,65;0,49;0,79;-6,47;0,96;4,66;-0,30;5,48;0,00
18.663;-0,20;-0,50;0,53;0,79;-6,47;0,96;4,66;-0,30;5,48;0,00
18.683;-0,20;-0,50;0,53;0,79;-6,47;0,96;4,81;0,99;5,42;0,00
18.693;-0,20;-0,50;0,53;9,17;-6,16;1,15;4,81;0,99;5,42;0,00
18.694;-0,20;-0,50;0,53;8,51;-8,66;2,02;4,81;0,99;5,42;0,00
18.75;-0,74;-0,80;0,68;8,51;-8,66;2,02;4,81;0,99;5,42;0,00
18.779;-0,74;-0,80;0,68;8,51;-8,66;2,02;2,77;-1,02;1,94;0,00
18.779;-0,74;-0,80;0,68;3,74;-12,54;3,00;2,77;-1,02;1,94;0,00
18.805;-1,21;-0,11;0,37;3,74;-12,54;3,00;2,77;-1,02;1,94;0,00
18.833;-1,21;-0,11;0,37;-2,41;-10,52;2,60;2,77;-1,02;1,94;0,00
18.835;-1,21;-0,11;0,37;-1,94;-9,28;1,90;2,77;-1,02;1,94;0,00
18.843;-1,21;-0,11;0,37;-1,94;-9,28;1,90;-0,57;-1,92;-3,63;0,00
18.873;-0,92;-0,03;0,05;-1,94;-9,28;1,90;-0,57;-1,92;-3,63;0,00
18.888;-0,92;-0,03;0,05;-1,94;-9,28;1,90;-1,33;-2,10;-5,40;0,00
18.904;-0,92;-0,03;0,05;-3,91;-2,57;-1,88;-1,33;-2,10;-5,40;0,00
18.905;-0,92;-0,03;0,05;-3,99;-0,51;-2,60;-1,33;-2,10;-5,40;0,00
18.943;-0,79;0,07;-0,05;-3,99;-0,51;-2,60;-1,33;-2,10;-5,40;0,00
18.963;-0,79;0,07;-0,05;-3,99;-0,51;-2,60;-0,72;0,30;-3,63;0,00
18.974;-0,79;0,07;-0,05;1,04;1,44;-6,18;-0,72;0,30;-3,63;0,00
18.975;-0,79;0,07;-0,05;1,01;2,44;-5,67;-0,72;0,30;-3,63;0,00
19.013;-0,79;0,04;0,05;1,01;2,44;-5,67;-0,72;0,30;-3,63;0,00
19.043;-0,79;0,04;0,05;1,01;2,44;-5,67;0,60;0,65;-2,12;0,00
19.044;-0,79;0,04;0,05;-0,10;3,38;-3,14;0,60;0,65;-2,12;0,00
19.083;-0,79;0,04;0,05;-0,10;3,38;-3,14;0,67;1,11;-0,62;0,00
19.083;-0,81;-0,15;0,02;-0,10;3,38;-3,14;0,67;1,11;-0,62;0,00
19.114;-0,81;-0,15;0,02;0,71;3,44;-4,61;0,67;1,11;-0,62;0,00
19.115;-0,81;-0,15;0,02;0,84;3,43;-4,21;0,67;1,11;-0,62;0,00
19.154;-1,09;-0,76;0,40;0,84;3,43;-4,21;0,67;1,11;-0,62;0,00
19.164;-1,09;-0,76;0,40;0,84;3,43;-4,21;-0,50;1,32;-0,94;0,00
19.184;-1,09;-0,76;0,40;-0,66;-0,69;-1,33;-0,50;1,32;-0,94;0,00
19.185;-1,09;-0,76;0,40;-0,74;-0,14;-0,91;-0,50;1,32;-0,94;0,00
19.223;-1,59;-1,57;0,61;-0,74;-0,14;-0,91;-0,50;1,32;-0,94;0,00
19.243;-1,59;-1,57;0,61;-0,74;-0,14;-0,91;-1,70;-0,79;-1,67;0,00
19.256;-1,59;-1,57;0,61;-4,13;-4,67;1,52;-1,70;-0,79;-1,67;0,00
19.256;-1,59;-1,57;0,61;-4,56;-3,74;1,70;-1,70;-0,79;-1,67;0,00
19.283;-1,59;-1,57;0,61;-4,56;-3,74;1,70;-2,97;-1,14;-2,19;0,00
19.293;-1,48;-1,99;0,35;-4,56;-3,74;1,70;-2,97;-1,14;-2,19;0,00
19.323;-1,48;-1,99;0,35;-10,59;-12,16;4,48;-2,97;-1,14;-2,19;0,00
19.363;-1,39;-1,24;0,62;-10,59;-12,16;4,48;-2,97;-1,14;-2,19;0,00
19.364;-1,39;-1,24;0,62;-10,59;-12,16;4,48;-4,36;-1,42;-3,21;0,00
19.394;-1,39;-1,24;0,62;-6,72;-11,07;1,55;-4,36;-1,42;-3,21;0,00
19.395;-1,39;-1,24;0,62;-7,72;-10,08;2,68;-4,36;-1,42;-3,21;0,00
19.433;-0,48;0,19;-0,01;-7,72;-10,08;2,68;-4,36;-1,42;-3,21;0,00
19.443;-0,48;0,19;-0,01;-7,72;-10,08;2,68;-1,67;-4,29;0,06;0,00
19.464;-0,48;0,19;-0,01;-7,00;7,10;3,91;-1,67;-4,29;0,06;0,00
19.465;-0,48;0,19;-0,01;-6,36;6,57;2,78;-1,67;-4,29;0,06;0,00
19.483;-0,48;0,19;-0,01;-6,36;6,57;2,78;0,63;-1,86;2,33;0,00
19.503;-0,75;-0,27;0,62;-6,36;6,57;2,78;0,63;-1,86;2,33;0,00
19.551;-0,75;-0,27;0,62;3,93;7,63;-0,64;0,63;-1,86;2,33;0,00
19.553;-0,75;-0,27;0,62;4,87;6,51;-0,83;0,63;-1,86;2,33;0,00
19.582;-0,75;-0,27;0,62;4,87;6,51;-0,83;1,66;-0,57;3,73;0,00
19.582;-0,57;-0,69;0,68;4,87;6,51;-0,83;1,66;-0,57;3,73;0,00
19.604;-0,57;-0,69;0,68;-2,02;-0,32;4,58;1,66;-0,57;3,73;0,00
19.643;-0,57;-0,69;0,68;-2,02;-0,32;4,58;4,46;-0,71;4,34;0,00
19.645;-0,04;-0,30;0,39;-2,02;-0,32;4,58;4,46;-0,71;4,34;0,00
19.674;-0,04;-0,30;0,39;7,43;-2,20;0,13;4,46;-0,71;4,34;0,00
19.675;-0,04;-0,30;0,39;7,89;-4,60;0,28;4,46;-0,71;4,34;0,00
19.689;-0,04;-0,30;0,39;7,89;-4,60;0,28;4,40;1,55;4,98;0,00
19.714;-0,30;-0,57;0,36;7,89;-4,60;0,28;4,40;1,55;4,98;0,00
19.744;-0,30;-0,57;0,36;7,32;-5,12;0,04;4,40;1,55;4,98;0,00
19.745;-0,30;-0,57;0,36;6,75;-7,01;0,53;4,40;1,55;4,98;0,00
19.764;-0,30;-0,57;0,36;6,75;-7,01;0,53;2,75;0,12;3,00;0,00
19.783;-0,88;-0,49;0,64;6,75;-7,01;0,53;2,75;0,12;3,00;0,00
19.814;-0,88;-0,49;0,64;3,30;-10,41;1,84;2,75;0,12;3,00;0,00
19.815;-0,88;-0,49;0,64;3,52;-9,37;1,52;2,75;0,12;3,00;0,00
19.844;-0,88;-0,49;0,64;3,52;-9,37;1,52;-0,39;-0,99;-3,02;0,00
19.853;-1,06;-0,30;0,24;3,52;-9,37;1,52;-0,39;-0,99;-3,02;0,00
19.883;-1,06;-0,30;0,24;-2,25;-4,80;2,05;-0,39;-0,99;-3,02;0,00
19.885;-1,06;-0,30;0,24;-2,25;-4,80;2,05;-2,38;-1,63;-6,09;0,00
19.923;-0,64;-0,22;-0,05;-2,25;-4,80;2,05;-2,38;-1,63;-6,09;0,00
19.954;-0,64;-0,22;-0,05;0,24;-0,05;-5,18;-2,38;-1,63;-6,09;0,00
19.955;-0,64;-0,22;-0,05;-0,25;1,86;-4,82;-2,38;-1,63;-6,09;0,00
19.963;-0,64;-0,22;-0,05;-0,25;1,86;-4,82;-2,14;0,45;-4,19;0,00
19.994;-0,80;-0,16;0,11;-0,25;1,86;-4,82;-2,14;0,45;-4,19;0,00
20.024;-0,80;-0,16;0,11;-0,32;2,37;-2,86;-2,14;0,45;-4,19;0,00
20.025;-0,80;-0,16;0,11;-0,75;3,17;-2,40;-2,14;0,45;-4,19;0,00
20.049;-0,80;-0,16;0,11;-0,75;3,17;-2,40;-0,76;0,80;-2,47;0,00
20.077;-0,70;-0,20;0,01;-0,75;3,17;-2,40;-0,76;0,80;-2,47;0,00
20.083;-0,70;-0,20;0,01;-0,75;3,17;-2,40;0,09;0,64;-0,53;0,00
20.095;-0,70;-0,20;0,01;0,16;4,68;-1,65;0,09;0,64;-0,53;0,00
20.096;-0,70;-0,20;0,01;0,16;4,66;-1,47;0,09;0,64;-0,53;0,00
20.134;-1,26;-1,09;0,33;0,16;4,66;-1,47;0,09;0,64;-0,53;0,00
20.164;-1,26;-1,09;0,33;0,16;4,66;-1,47;-0,67;0,48;-0,03;0,00
20.166;-1,26;-1,09;0,33;-2,19;1,29;-1,22;-0,67;0,48;-0,03;0,00
20.203;-1,58;-2,02;0,52;-2,19;1,29;-1,22;-0,67;0,48;-0,03;0,00
20.234;-1,58;-2,02;0,52;-7,53;-7,73;1,88;-0,67;0,48;-0,03;0,00
20.235;-1,58;-2,02;0,52;-7,61;-7,27;2,25;-0,67;0,48;-0,03;0,00
20.244;-1,58;-2,02;0,52;-7,61;-7,27;2,25;-1,76;-0,08;-0,97;0,00
20.274;-1,41;-2,42;0,26;-7,61;-7,27;2,25;-1,76;-0,08;-0,97;0,00
20.283;-1,41;-2,42;0,26;-7,61;-7,27;2,25;-3,13;-1,00;-2,52;0,00
20.304;-1,41;-2,42;0,26;-9,29;-16,16;3,08;-3,13;-1,00;-2,52;0,00
20.305;-1,41;-2,42;0,26;-10,00;-15,19;3,79;-3,13;-1,00;-2,52;0,00
20.344;-0,94;-0,63;0,29;-10,00;-15,19;3,79;-3,13;-1,00;-2,52;0,00
20.365;-0,94;-0,63;0,29;-10,00;-15,19;3,79;-2,12;-1,64;-1,21;0,00
20.374;-0,94;-0,63;0,29;-6,91;-10,12;2,68;-2,12;-1,64;-1,21;0,00
20.375;-0,94;-0,63;0,29;-6,83;-9,93;2,70;-2,12;-1,64;-1,21;0,00
20.414;-0,44;0,35;0,30;-6,83;-9,93;2,70;-2,12;-1,64;-1,21;0,00
20.443;-0,44;0,35;0,30;-6,83;-9,93;2,70;0,54;-1,23;1,80;0,00
20.444;-0,44;0,35;0,30;-0,89;11,17;2,92;0,54;-1,23;1,80;0,00
20.484;-0,44;0,35;0,30;-0,89;11,17;2,92;0,45;-1,61;2,34;0,00
20.484;-1,12;-0,56;0,76;-0,89;11,17;2,92;0,45;-1,61;2,34;0,00
20.514;-1,12;-0,56;0,76;0,45;8,13;3,74;0,45;-1,61;2,34;0,00
20.515;-1,12;-0,56;0,76;1,12;7,34;3,05;0,45;-1,61;2,34;0,00
20.554;-0,44;-0,91;0,53;1,12;7,34;3,05;0,45;-1,61;2,34;0,00
20.564;-0,44;-0,91;0,53;1,12;7,34;3,05;4,21;-2,90;4,59;0,00
20.584;-0,44;-0,91;0,53;-3,28;-3,03;3,57;4,21;-2,90;4,59;0,00
20.585;-0,44;-0,91;0,53;-2,51;-5,62;1,96;4,21;-2,90;4,59;0,00
20.624;0,17;-0,53;0,62;-2,51;-5,62;1,96;4,21;-2,90;4,59;0,00
20.644;0,17;-0,53;0,62;-2,51;-5,62;1,96;6,49;0,83;5,01;0,00
20.655;0,17;-0,53;0,62;9,42;-5,88;0,70;6,49;0,83;5,01;0,00
20.656;0,17;-0,53;0,62;9,21;-8,82;1,33;6,49;0,83;5,01;0,00
20.683;0,17;-0,53;0,62;9,21;-8,82;1,33;5,94;-0,13;4,85;0,00
20.694;-0,13;-0,71;0,19;9,21;-8,82;1,33;5,94;-0,13;4,85;0,00
20.724;-0,13;-0,71;0,19;8,09;-12,01;0,33;5,94;-0,13;4,85;0,00
20.764;-0,13;-0,71;0,19;8,09;-12,01;0,33;2,17;0,07;0,68;0,00
20.765;-1,02;-0,35;0,50;8,09;-12,01;0,33;2,17;0,07;0,68;0,00
20.794;-1,02;-0,35;0,50;2,26;-11,68;0,55;2,17;0,07;0,68;0,00
20.795;-1,02;-0,35;0,50;2,57;-11,14;0,73;2,17;0,07;0,68;0,00
20.834;-1,41;-0,17;0,22;2,57;-11,14;0,73;2,17;0,07;0,68;0,00
20.844;-1,41;-0,17;0,22;2,57;-11,14;0,73;-2,10;-1,99;-5,58;0,00
20.863;-1,41;-0,17;0,22;-4,22;-4,82;-0,17;-2,10;-1,99;-5,58;0,00
20.865;-1,41;-0,17;0,22;-4,11;-2,15;-1,31;-2,10;-1,99;-5,58;0,00
20.883;-1,41;-0,17;0,22;-4,11;-2,15;-1,31;-2,97;-2,74;-5,24;0,00
20.904;-0,72;-0,08;-0,02;-4,11;-2,15;-1,31;-2,97;-2,74;-5,24;0,00
20.934;-0,72;-0,08;-0,02;-3,15;-0,50;-4,55;-2,97;-2,74;-5,24;0,00
20.935;-0,72;-0,08;-0,02;-3,34;1,04;-4,17;-2,97;-2,74;-5,24;0,00
20.964;-0,72;-0,08;-0,02;-3,34;1,04;-4,17;-1,67;0,89;-3,05;0,00
20.974;-0,78;-0,04;0,27;-3,34;1,04;-4,17;-1,67;0,89;-3,05;0,00
21.004;-0,78;-0,04;0,27;0,05;3,48;-3,79;-1,67;0,89;-3,05;0,00
21.044;-0,78;-0,04;0,27;0,05;3,48;-3,79;-0,08;0,25;-2,09;0,00
21.045;-0,73;-0,11;0,13;0,05;3,48;-3,79;-0,08;0,25;-2,09;0,00
21.074;-0,73;-0,11;0,13;1,06;4,51;-2,65;-0,08;0,25;-2,09;0,00
21.075;-0,73;-0,11;0,13;0,96;4,72;-2,43;-0,08;0,25;-2,09;0,00
21.083;-0,73;-0,11;0,13;0,96;4,72;-2,43;-0,16;1,49;-0,19;0,00
21.115;-1,51;-1,26;0,75;0,96;4,72;-2,43;-0,16;1,49;-0,19;0,00
21.144;-1,51;-1,26;0,75;-3,02;0,52;0,05;-0,16;1,49;-0,19;0,00
21.145;-1,51;-1,26;0,75;-2,79;0,66;0,68;-0,16;1,49;-0,19;0,00
21.164;-1,51;-1,26;0,75;-2,79;0,66;0,68;-0,99;1,39;-0,94;0,00
21.184;-1,72;-2,13;0,80;-2,79;0,66;0,68;-0,99;1,39;-0,94;0,00
21.214;-1,72;-2,13;0,80;-10,34;-12,12;7,04;-0,99;1,39;-0,94;0,00
21.214;-1,72;-2,13;0,80;-11,09;-10,72;7,47;-0,99;1,39;-0,94;0,00
21.243;-1,72;-2,13;0,80;-11,09;-10,72;7,47;-3,15;-0,81;-3,41;0,00
21.254;-1,08;-1,43;0,30;-11,09;-10,72;7,47;-3,15;-0,81;-3,41;0,00
21.284;-1,08;-1,43;0,30;-7,31;-10,91;3,56;-3,15;-0,81;-3,41;0,00
21.285;-1,08;-1,43;0,30;-7,31;-10,91;3,56;-3,60;-2,39;-3,14;0,00
21.324;-0,58;0,34;-0,01;-7,31;-10,91;3,56;-3,60;-2,39;-3,14;0,00
21.354;-0,58;0,34;-0,01;-5,03;4,95;0,88;-3,60;-2,39;-3,14;0,00
21.355;-0,58;0,34;-0,01;-4,96;4,87;0,78;-3,60;-2,39;-3,14;0,00
21.363;-0,58;0,34;-0,01;-4,96;4,87;0,78;-1,43;-2,93;0,60;0,00
21.394;-0,74;-0,15;0,48;-4,96;4,87;0,78;-1,43;-2,93;0,60;0,00
21.426;-0,74;-0,15;0,48;0,60;9,98;0,42;-1,43;-2,93;0,60;0,00
21.427;-0,74;-0,15;0,48;1,03;9,55;0,71;-1,43;-2,93;0,60;0,00
21.454;-0,74;-0,15;0,48;1,03;9,55;0,71;-1,13;-0,96;1,47;0,00
21.464;-0,87;-0,36;0,62;1,03;9,55;0,71;-1,13;-0,96;1,47;0,00
21.484;-0,87;-0,36;0,62;1,03;9,55;0,71;1,45;-3,80;3,57;0,00
21.494;-0,87;-0,36;0,62;-3,19;5,76;5,49;1,45;-3,80;3,57;0,00
21.495;-0,87;-0,36;0,62;-2,30;4,51;3,82;1,45;-3,80;3,57;0,00
21.534;-1,11;-0,93;0,93;-2,30;4,51;3,82;1,45;-3,80;3,57;0,00
21.564;-1,11;-0,93;0,93;-2,30;4,51;3,82;4,83;-1,88;6,25;0,00
21.566;-1,11;-0,93;0,93;-0,63;-1,34;2,67;4,83;-1,88;6,25;0,00
21.605;-0,32;-0,98;0,73;-0,63;-1,34;2,67;4,83;-1,88;6,25;0,00
21.635;-0,32;-0,98;0,73;-0,09;-9,67;3,79;4,83;-1,88;6,25;0,00
21.636;-0,32;-0,98;0,73;-0,37;-13,25;3,93;4,83;-1,88;6,25;0,00
21.644;-0,32;-0,98;0,73;-0,37;-13,25;3,93;6,70;0,06;6,74;0,00
21.674;-0,90;-0,39;0,95;-0,37;-13,25;3,93;6,70;0,06;6,74;0,00
21.683;-0,90;-0,39;0,95;-0,37;-13,25;3,93;2,74;0,71;2,04;0,00
21.703;-0,90;-0,39;0,95;3,92;-12,09;3,73;2,74;0,71;2,04;0,00
21.704;-0,90;-0,39;0,95;3,69;-12,52;4,27;2,74;0,71;2,04;0,00
21.744;-0,82;-0,28;0,22;3,69;-12,52;4,27;2,74;0,71;2,04;0,00
21.763;-0,82;-0,28;0,22;3,69;-12,52;4,27;-0,54;-4,37;-6,08;0,00
21.774;-0,82;-0,28;0,22;-2,20;-6,53;2,59;-0,54;-4,37;-6,08;0,00
21.775;-0,82;-0,28;0,22;-2,44;-3,93;0,93;-0,54;-4,37;-6,08;0,00
21.815;-1,04;-0,45;-0,11;-2,44;-3,93;0,93;-0,54;-4,37;-6,08;0,00
21.844;-1,04;-0,45;-0,11;-2,44;-3,93;0,93;-1,50;0,10;-4,37;0,00
21.845;-1,04;-0,45;-0,11;-0,95;-3,62;-6,65;-1,50;0,10;-4,37;0,00
21.883;-1,04;-0,45;-0,11;-0,95;-3,62;-6,65;0,57;1,06;-2,47;0,00
21.884;-0,63;-0,04;-0,03;-0,95;-3,62;-6,65;0,57;1,06;-2,47;0,00
21.914;-0,63;-0,04;-0,03;-1,42;-1,32;-5,24;0,57;1,06;-2,47;0,00
21.916;-0,63;-0,04;-0,03;-1,41;-0,70;-4,97;0,57;1,06;-2,47;0,00
21.954;-0,50;0,14;-0,13;-1,41;-0,70;-4,97;0,57;1,06;-2,47;0,00
21.965;-0,50;0,14;-0,13;-1,41;-0,70;-4,97;1,18;0,74;-1,42;0,00
21.984;-0,50;0,14;-0,13;3,64;3,37;-6,22;1,18;0,74;-1,42;0,00
21.985;-0,50;0,14;-0,13;3,70;3,36;-5,91;1,18;0,74;-1,42;0,00
22.024;-0,70;-0,05;0,31;3,70;3,36;-5,91;1,18;0,74;-1,42;0,00
22.044;-0,70;-0,05;0,31;3,70;3,36;-5,91;0,38;0,65;0,34;0,00
22.055;-0,70;-0,05;0,31;1,69;2,89;-3,78;0,38;0,65;0,34;0,00
22.056;-0,70;-0,05;0,31;1,70;2,70;-3,72;0,38;0,65;0,34;0,00
22.085;-0,70;-0,05;0,31;1,70;2,70;-3,72;-0,38;0,35;0,12;0,00
22.093;-1,32;-0,55;0,80;1,70;2,70;-3,72;-0,38;0,35;0,12;0,00
22.124;-1,32;-0,55;0,80;-0,02;0,46;-0,50;-0,38;0,35;0,12;0,00
22.164;-1,32;-0,55;0,80;-0,02;0,46;-0,50;-1,84;0,47;-1,79;0,00
22.166;-1,65;-1,25;0,54;-0,02;0,46;-0,50;-1,84;0,47;-1,79;0,00
22.194;-1,65;-1,25;0,54;-8,77;-6,58;6,09;-1,84;0,47;-1,79;0,00
22.195;-1,65;-1,25;0,54;-9,03;-5,27;6,18;-1,84;0,47;-1,79;0,00
22.234;-1,58;-2,26;0,63;-9,03;-5,27;6,18;-1,84;0,47;-1,79;0,00
22.244;-1,58;-2,26;0,63;-9,03;-5,27;6,18;-4,83;0,01;-4,41;0,00
22.264;-1,58;-2,26;0,63;-6,20;-9,36;0,26;-4,83;0,01;-4,41;0,00
22.266;-1,58;-2,26;0,63;-7,57;-7,36;2,05;-4,83;0,01;-4,41;0,00
22.284;-1,58;-2,26;0,63;-7,57;-7,36;2,05;-5,24;-1,97;-4,99;0,00
22.304;-0,90;-0,74;0,10;-7,57;-7,36;2,05;-5,24;-1,97;-4,99;0,00
22.343;-0,90;-0,74;0,10;-10,40;-10,73;5,10;-5,24;-1,97;-4,99;0,00
22.346;-0,90;-0,74;0,10;-10,73;-10,37;5,76;-5,24;-1,97;-4,99;0,00
22.377;-0,90;-0,74;0,10;-10,73;-10,37;5,76;-2,26;-2,66;-0,57;0,00
22.378;-0,82;0,16;0,31;-10,73;-10,37;5,76;-2,26;-2,66;-0,57;0,00
22.405;-0,82;0,16;0,31;-3,10;10,28;3,21;-2,26;-2,66;-0,57;0,00
22.444;-0,82;0,16;0,31;-3,10;10,28;3,21;0,25;-1,65;2,13;0,00
22.445;-0,91;-0,39;0,70;-3,10;10,28;3,21;0,25;-1,65;2,13;0,00
22.474;-0,91;-0,39;0,70;-1,80;7,01;3,91;0,25;-1,65;2,13;0,00
22.475;-0,91;-0,39;0,70;-0,83;6,26;3,40;0,25;-1,65;2,13;0,00
22.484;-0,91;-0,39;0,70;-0,83;6,26;3,40;1,45;-2,14;3,59;0,00
22.514;-0,95;-0,48;0,63;-0,83;6,26;3,40;1,45;-2,14;3,59;0,00
22.548;-0,95;-0,48;0,63;-2,34;3,15;5,91;1,45;-2,14;3,59;0,00
22.55;-0,95;-0,48;0,63;-1,31;1,23;4,26;1,45;-2,14;3,59;0,00
22.568;-0,95;-0,48;0,63;-1,31;1,23;4,26;3,93;-2,08;5,73;0,00
22.585;-0,78;-1,04;0,73;-1,31;1,23;4,26;3,93;-2,08;5,73;0,00
22.615;-0,78;-1,04;0,73;-0,67;-5,14;2,82;3,93;-2,08;5,73;0,00
22.617;-0,78;-1,04;0,73;-0,72;-8,82;2,48;3,93;-2,08;5,73;0,00
22.647;-0,78;-1,04;0,73;-0,72;-8,82;2,48;5,79;-0,58;7,41;0,00
22.664;-0,47;-0,80;0,89;-0,72;-8,82;2,48;5,79;-0,58;7,41;0,00
22.684;-0,47;-0,80;0,89;-0,72;-8,82;2,48;3,73;0,30;4,05;0,00
22.684;-0,47;-0,80;0,89;4,04;-15,11;2,39;3,73;0,30;4,05;0,00
22.725;-0,75;-0,25;0,57;4,04;-15,11;2,39;3,73;0,30;4,05;0,00
22.754;-0,75;-0,25;0,57;0,59;-11,18;6,78;3,73;0,30;4,05;0,00
22.755;-0,75;-0,25;0,57;0,55;-10,58;5,96;3,73;0,30;4,05;0,00
22.764;-0,75;-0,25;0,57;0,55;-10,58;5,96;0,29;-3,74;-3,57;0,00
22.801;-0,56;-0,27;-0,05;0,55;-10,58;5,96;0,29;-3,74;-3,57;0,00
22.85;-0,56;-0,27;-0,05;1,08;-5,09;-3,51;0,29;-3,74;-3,57;0,00
22.852;-0,56;-0,27;-0,05;1,14;-3,00;-4,18;0,29;-3,74;-3,57;0,00
22.852;-0,56;-0,27;-0,05;1,14;-3,00;-4,18;-1,05;-1,75;-5,64;0,00
22.864;-0,78;-0,14;-0,14;1,14;-3,00;-4,18;-1,05;-1,75;-5,64;0,00
22.884;-0,78;-0,14;-0,14;1,14;-3,00;-4,18;-0,27;0,92;-3,38;0,00
22.894;-0,78;-0,14;-0,14;1,68;-2,62;-7,14;-0,27;0,92;-3,38;0,00
22.895;-0,78;-0,14;-0,14;1,78;-1,55;-6,72;-0,27;0,92;-3,38;0,00
22.934;-0,67;-0,07;0,09;1,78;-1,55;-6,72;-0,27;0,92;-3,38;0,00
22.964;-0,67;-0,07;0,09;-0,15;1,78;-5,61;-0,27;0,92;-3,38;0,00
22.965;-0,67;-0,07;0,09;-0,15;1,78;-5,61;0,51;0,04;-1,46;0,00
23.005;-1,28;-0,48;0,24;-0,15;1,78;-5,61;0,51;0,04;-1,46;0,00
23.034;-1,28;-0,48;0,24;0,15;0,01;-4,72;0,51;0,04;-1,46;0,00
23.035;-1,28;-0,48;0,24;0,42;0,32;-4,06;0,51;0,04;-1,46;0,00
23.055;-1,28;-0,48;0,24;0,42;0,32;-4,06;-0,33;1,73;-1,11;0,00
23.074;-1,41;-1,05;0,70;0,42;0,32;-4,06;-0,33;1,73;-1,11;0,00
23.084;-1,41;-1,05;0,70;0,42;0,32;-4,06;-2,90;0,24;-4,58;0,00
23.104;-1,41;-1,05;0,70;-6,35;-5,25;2,84;-2,90;0,24;-4,58;0,00
23.106;-1,41;-1,05;0,70;-7,15;-3,15;3,36;-2,90;0,24;-4,58;0,00
23.144;-0,72;-0,22;0,16;-7,15;-3,15;3,36;-2,90;0,24;-4,58;0,00
23.173;-0,72;-0,22;0,16;-7,15;-3,15;3,36;-1,95;1,07;-2,29;0,00
23.174;-0,72;-0,22;0,16;-4,45;0,62;0,17;-1,95;1,07;-2,29;0,00
23.175;-0,72;-0,22;0,16;-4,48;0,87;0,71;-1,95;1,07;-2,29;0,00
23.215;-0,70;-0,56;0,24;-4,48;0,87;0,71;-1,95;1,07;-2,29;0,00
23.244;-0,70;-0,56;0,24;-4,48;0,87;0,71;-0,09;0,76;0,56;0,00
23.245;-0,70;-0,56;0,24;0,89;5,70;0,38;-0,09;0,76;0,56;0,00
23.284;-0,70;-0,56;0,24;0,89;5,70;0,38;-1,48;0,01;-1,14;0,00
23.284;-1,15;-2,30;0,24;0,89;5,70;0,38;-1,48;0,01;-1,14;0,00
23.315;-1,15;-2,30;0,24;-1,71;-6,86;2,17;-1,48;0,01;-1,14;0,00
23.316;-1,15;-2,30;0,24;-2,11;-6,27;2,57;-1,48;0,01;-1,14;0,00
23.354;-1,06;-2,24;0,04;-2,11;-6,27;2,57;-1,48;0,01;-1,14;0,00
23.365;-1,06;-2,24;0,04;-2,11;-6,27;2,57;-3,80;-1,43;-3,84;0,00
23.384;-1,06;-2,24;0,04;-6,02;-17,02;0,23;-3,80;-1,43;-3,84;0,00
23.385;-1,06;-2,24;0,04;-7,43;-16,04;1,50;-3,80;-1,43;-3,84;0,00
23.425;-1,10;0,58;0,17;-7,43;-16,04;1,50;-3,80;-1,43;-3,84;0,00
23.444;-1,10;0,58;0,17;-7,43;-16,04;1,50;-2,73;-4,38;-1,29;0,00
23.454;-1,10;0,58;0,17;-6,45;1,68;2,70;-2,73;-4,38;-1,29;0,00
23.455;-1,10;0,58;0,17;-5,64;1,42;2,12;-2,73;-4,38;-1,29;0,00
23.484;-1,10;0,58;0,17;-5,64;1,42;2,12;0,35;-3,17;2,78;0,00
23.494;-1,27;-0,76;0,56;-5,64;1,42;2,12;0,35;-3,17;2,78;0,00
23.525;-1,27;-0,76;0,56;-6,17;10,61;2,57;0,35;-3,17;2,78;0,00
23.564;-1,27;-0,76;0,56;-6,17;10,61;2,57;3,29;-0,80;4,69;0,00
23.566;-0,44;-0,59;0,90;-6,17;10,61;2,57;3,29;-0,80;4,69;0,00
23.595;-0,44;-0,59;0,90;-2,19;-1,07;6,44;3,29;-0,80;4,69;0,00
23.595;-0,44;-0,59;0,90;-0,77;-3,02;5,21;3,29;-0,80;4,69;0,00
23.634;-0,08;-0,68;0,73;-0,77;-3,02;5,21;3,29;-0,80;4,69;0,00
23.644;-0,08;-0,68;0,73;-0,77;-3,02;5,21;4,94;0,33;5,91;0,00
23.665;-0,08;-0,68;0,73;8,20;-1,87;6,05;4,94;0,33;5,91;0,00
23.667;-0,08;-0,68;0,73;8,38;-4,83;5,62;4,94;0,33;5,91;0,00
23.684;-0,08;-0,68;0,73;8,38;-4,83;5,62;4,65;-0,66;5,45;0,00
23.705;-0,27;-1,05;0,56;8,38;-4,83;5,62;4,65;-0,66;5,45;0,00
23.735;-0,27;-1,05;0,56;8,13;-11,62;1,22;4,65;-0,66;5,45;0,00
23.735;-0,27;-1,05;0,56;7,59;-12,61;1,20;4,65;-0,66;5,45;0,00
23.764;-0,27;-1,05;0,56;7,59;-12,61;1,20;2,27;-1,16;0,51;0,00
23.774;-1,08;-0,49;0,51;7,59;-12,61;1,20;2,27;-1,16;0,51;0,00
23.805;-1,08;-0,49;0,51;2,44;-11,29;2,11;2,27;-1,16;0,51;0,00
23.844;-1,05;-0,11;-0,09;2,44;-11,29;2,11;2,27;-1,16;0,51;0,00
23.846;-1,05;-0,11;-0,09;2,44;-11,29;2,11;-0,03;-2,32;-4,08;0,00
23.884;-1,05;-0,11;-0,09;-2,67;-4,73;-1,82;-0,03;-2,32;-4,08;0,00
23.886;-1,05;-0,11;-0,09;-2,94;-2,90;-2,54;-0,03;-2,32;-4,08;0,00
23.886;-1,05;-0,11;-0,09;-2,94;-2,90;-2,54;-1,12;-1,14;-3,61;0,00
23.916;-0,96;-0,19;0,24;-2,94;-2,90;-2,54;-1,12;-1,14;-3,61;0,00
23.946;-0,96;-0,19;0,24;0,03;1,07;-5,99;-1,12;-1,14;-3,61;0,00
23.947;-0,96;-0,19;0,24;-0,08;1,82;-5,77;-1,12;-1,14;-3,61;0,00
23.974;-0,96;-0,19;0,24;-0,08;1,82;-5,77;0,14;0,04;-1,80;0,00
23.984;-0,77;-0,16;0,02;-0,08;1,82;-5,77;0,14;0,04;-1,80;0,00
24.015;-0,77;-0,16;0,02;-2,30;0,49;-3,19;0,14;0,04;-1,80;0,00
24.016;-0,77;-0,16;0,02;-2,45;0,61;-3,34;0,14;0,04;-1,80;0,00
24.045;-0,77;-0,16;0,02;-2,45;0,61;-3,34;0,82;-0,12;-1,02;0,00
24.054;-0,75;-0,39;0,31;-2,45;0,61;-3,34;0,82;-0,12;-1,02;0,00
24.084;-0,75;-0,39;0,31;-2,45;0,61;-3,34;-0,17;1,80;-1,37;0,00
24.085;-0,75;-0,39;0,31;1,46;0,80;-4,80;-0,17;1,80;-1,37;0,00
24.125;-0,64;-0,34;0,25;1,46;0,80;-4,80;-0,17;1,80;-1,37;0,00
24.154;-0,64;-0,34;0,25;-0,03;-0,63;-0,15;-0,17;1,80;-1,37;0,00
24.155;-0,64;-0,34;0,25;-0,23;-0,03;-0,01;-0,17;1,80;-1,37;0,00
24.165;-0,64;-0,34;0,25;-0,23;-0,03;-0,01;-0,56;0,04;-1,22;0,00
24.195;-1,00;-0,83;0,30;-0,23;-0,03;-0,01;-0,56;0,04;-1,22;0,00
24.224;-1,00;-0,83;0,30;1,71;0,09;-2,57;-0,56;0,04;-1,22;0,00
24.225;-1,00;-0,83;0,30;1,74;0,28;-2,20;-0,56;0,04;-1,22;0,00
24.244;-1,00;-0,83;0,30;1,74;0,28;-2,20;-1,24;0,27;-0,03;0,00
24.264;-1,36;-1,46;0,36;1,74;0,28;-2,20;-1,24;0,27;-0,03;0,00
24.284;-1,36;-1,46;0,36;1,74;0,28;-2,20;-2,45;-0,30;-0,88;0,00
24.294;-1,36;-1,46;0,36;-3,79;-5,23;-0,45;-2,45;-0,30;-0,88;0,00
24.294;-1,36;-1,46;0,36;-3,98;-4,47;0,06;-2,45;-0,30;-0,88;0,00
24.334;-1,55;-2,28;0,42;-3,98;-4,47;0,06;-2,45;-0,30;-0,88;0,00
24.364;-1,55;-2,28;0,42;-8,21;-11,67;2,33;-2,45;-0,30;-0,88;0,00
24.365;-1,55;-2,28;0,42;-8,21;-11,67;2,33;-4,61;-0,28;-3,28;0,00
24.404;-1,37;-1,21;0,78;-8,21;-11,67;2,33;-4,61;-0,28;-3,28;0,00
24.434;-1,37;-1,21;0,78;-8,17;-13,45;4,91;-4,61;-0,28;-3,28;0,00
24.436;-1,37;-1,21;0,78;-9,02;-12,61;5,82;-4,61;-0,28;-3,28;0,00
24.445;-1,37;-1,21;0,78;-9,02;-12,61;5,82;-4,01;-2,71;-2,42;0,00
24.475;-0,78;0,36;0,46;-9,02;-12,61;5,82;-4,01;-2,71;-2,42;0,00
24.485;-0,78;0,36;0,46;-9,02;-12,61;5,82;0,15;-2,63;1,40;0,00
24.504;-0,78;0,36;0,46;-5,17;10,24;5,63;0,15;-2,63;1,40;0,00
24.505;-0,78;0,36;0,46;-4,46;9,67;4,81;0,15;-2,63;1,40;0,00
24.544;-0,97;-0,65;0,90;-4,46;9,67;4,81;0,15;-2,63;1,40;0,00
24.564;-0,97;-0,65;0,90;-4,46;9,67;4,81;2,57;0,32;3,70;0,00
24.576;-0,97;-0,65;0,90;-1,28;5,14;4,87;2,57;0,32;3,70;0,00
24.578;-0,97;-0,65;0,90;-0,04;3,51;4,06;2,57;0,32;3,70;0,00
24.615;-0,15;-0,49;0,61;-0,04;3,51;4,06;2,57;0,32;3,70;0,00
24.644;-0,15;-0,49;0,61;-0,04;3,51;4,06;4,32;-0,65;4,82;0,00
24.645;-0,15;-0,49;0,61;1,59;-2,43;5,26;4,32;-0,65;4,82;0,00
24.685;-0,15;-0,49;0,61;1,59;-2,43;5,26;4,72;0,07;4,77;0,00
24.686;0,16;-0,51;0,33;1,59;-2,43;5,26;4,72;0,07;4,77;0,00
24.715;0,16;-0,51;0,33;10,78;-2,53;-0,38;4,72;0,07;4,77;0,00
24.715;0,16;-0,51;0,33;10,67;-5,07;-0,33;4,72;0,07;4,77;0,00
24.755;-0,13;-0,58;0,25;10,67;-5,07;-0,33;4,72;0,07;4,77;0,00
24.765;-0,13;-0,58;0,25;10,67;-5,07;-0,33;4,33;-1,11;3,58;0,00
24.785;-0,13;-0,58;0,25;9,28;-9,44;-0,83;4,33;-1,11;3,58;0,00
24.786;-0,13;-0,58;0,25;8,45;-10,78;-0,72;4,33;-1,11;3,58;0,00
24.825;-1,13;-0,22;0,44;8,45;-10,78;-0,72;4,33;-1,11;3,58;0,00
24.846;-1,13;-0,22;0,44;8,45;-10,78;-0,72;2,27;0,57;0,07;0,00
24.872;-1,13;-0,22;0,44;2,14;-9,47;0,21;2,27;0,57;0,07;0,00
24.874;-1,13;-0,22;0,44;2,50;-8,70;0,30;2,27;0,57;0,07;0,00
24.885;-1,13;-0,22;0,44;2,50;-8,70;0,30;-1,47;-1,10;-4,57;0,00
24.895;-1,17;-0,12;0,42;2,50;-8,70;0,30;-1,47;-1,10;-4,57;0,00
24.926;-1,17;-0,12;0,42;-3,19;-2,49;0,06;-1,47;-1,10;-4,57;0,00
24.97;-0,99;-0,08;0,08;-3,19;-2,49;0,06;-1,47;-1,10;-4,57;0,00
24.971;-0,99;-0,08;0,08;-3,19;-2,49;0,06;-2,25;-0,58;-5,81;0,00
24.997;-0,99;-0,08;0,08;-2,62;-1,15;-0,52;-2,25;-0,58;-5,81;0,00
24.998;-0,99;-0,08;0,08;-2,99;0,84;-0,53;-2,25;-0,58;-5,81;0,00
25.034;-0,58;0,09;-0,02;-2,99;0,84;-0,53;-2,25;-0,58;-5,81;0,00
25.045;-0,58;0,09;-0,02;-2,99;0,84;-0,53;-1,38;-0,10;-2,87;0,00
25.071;-0,58;0,09;-0,02;0,33;4,95;-5,52;-1,38;-0,10;-2,87;0,00
25.072;-0,58;0,09;-0,02;0,15;5,55;-5,03;-1,38;-0,10;-2,87;0,00
25.09;-0,58;0,09;-0,02;0,15;5,55;-5,03;-0,64;0,29;-1,24;0,00
25.104;-0,60;-0,22;0,17;0,15;5,55;-5,03;-0,64;0,29;-1,24;0,00
25.135;-0,60;-0,22;0,17;2,43;4,08;-1,68;-0,64;0,29;-1,24;0,00
25.136;-0,60;-0,22;0,17;2,20;4,13;-1,90;-0,64;0,29;-1,24;0,00
25.165;-0,60;-0,22;0,17;2,20;4,13;-1,90;0,08;-0,68;0,26;0,00
25.174;-1,54;-1,08;0,52;2,20;4,13;-1,90;0,08;-0,68;0,26;0,00
25.205;-1,54;-1,08;0,52;-1,28;0,34;-2,16;0,08;-0,68;0,26;0,00
25.245;-1,54;-1,08;0,52;-1,28;0,34;-2,16;-0,40;0,59;1,11;0,00
25.247;-2,58;-1,76;1,40;-1,28;0,34;-2,16;-0,40;0,59;1,11;0,00
25.275;-2,58;-1,76;1,40;-12,87;-10,79;5,64;-0,40;0,59;1,11;0,00
25.277;-2,58;-1,76;1,40;-12,74;-10,25;5,83;-0,40;0,59;1,11;0,00
25.287;-2,58;-1,76;1,40;-12,74;-10,25;5,83;-1,38;-0,31;-1,60;0,00
25.316;-1,02;-0,95;0,31;-12,74;-10,25;5,83;-1,38;-0,31;-1,60;0,00
25.345;-1,02;-0,95;0,31;-14,07;-10,97;9,33;-1,38;-0,31;-1,60;0,00
25.346;-1,02;-0,95;0,31;-14,63;-9,61;9,69;-1,38;-0,31;-1,60;0,00
25.364;-1,02;-0,95;0,31;-14,63;-9,61;9,69;-2,76;0,22;-3,09;0,00
25.385;-0,30;0,28;0,03;-14,63;-9,61;9,69;-2,76;0,22;-3,09;0,00
25.415;-0,30;0,28;0,03;3,23;6,40;-2,42;-2,76;0,22;-3,09;0,00
25.416;-0,30;0,28;0,03;2,74;6,75;-1,23;-2,76;0,22;-3,09;0,00
25.445;-0,30;0,28;0,03;2,74;6,75;-1,23;-2,86;0,56;-1,24;0,00
25.455;-1,36;-0,52;0,72;2,74;6,75;-1,23;-2,86;0,56;-1,24;0,00
25.486;-1,36;-0,52;0,72;2,74;6,75;-1,23;-1,07;-3,92;1,82;0,00
25.487;-1,36;-0,52;0,72;0,15;8,69;2,16;-1,07;-3,92;1,82;0,00
25.525;-1,00;-0,53;0,29;0,15;8,69;2,16;-1,07;-3,92;1,82;0,00
25.555;-1,00;-0,53;0,29;-9,56;1,52;5,18;-1,07;-3,92;1,82;0,00
25.557;-1,00;-0,53;0,29;-8,48;-0,06;2,99;-1,07;-3,92;1,82;0,00
25.565;-1,00;-0,53;0,29;-8,48;-0,06;2,99;2,91;-3,45;5,01;0,00
25.595;-0,31;-0,26;0,81;-8,48;-0,06;2,99;2,91;-3,45;5,01;0,00
25.625;-0,31;-0,26;0,81;3,74;0,99;0,45;2,91;-3,45;5,01;0,00
25.626;-0,31;-0,26;0,81;4,46;-2,06;0,47;2,91;-3,45;5,01;0,00
25.645;-0,31;-0,26;0,81;4,46;-2,06;0,47;4,54;1,08;6,23;0,00
25.665;-0,20;-0,89;0,39;4,46;-2,06;0,47;4,54;1,08;6,23;0,00
25.685;-0,20;-0,89;0,39;4,46;-2,06;0,47;4,83;-1,07;5,44;0,00
25.695;-0,20;-0,89;0,39;7,09;-7,81;3,69;4,83;-1,07;5,44;0,00
25.696;-0,20;-0,89;0,39;6,02;-10,26;3,84;4,83;-1,07;5,44;0,00
25.735;-0,22;-0,49;0,41;6,02;-10,26;3,84;4,83;-1,07;5,44;0,00
25.765;-0,22;-0,49;0,41;6,02;-10,26;3,84;3,18;-0,88;1,68;0,00
25.765;-0,22;-0,49;0,41;6,17;-13,52;-1,62;3,18;-0,88;1,68;0,00
25.805;-1,27;0,06;0,46;6,17;-13,52;-1,62;3,18;-0,88;1,68;0,00
25.835;-1,27;0,06;0,46;0,02;-8,36;0,89;3,18;-0,88;1,68;0,00
25.836;-1,27;0,06;0,46;0,58;-7,44;0,77;3,18;-0,88;1,68;0,00
25.855;-1,27;0,06;0,46;0,58;-7,44;0,77;-0,44;-0,45;-2,87;0,00
25.875;-1,15;-0,06;0,23;0,58;-7,44;0,77;-0,44;-0,45;-2,87;0,00
25.885;-1,15;-0,06;0,23;0,58;-7,44;0,77;-2,78;-2,37;-5,78;0,00
25.905;-1,15;-0,06;0,23;-5,67;-2,96;1,43;-2,78;-2,37;-5,78;0,00
25.906;-1,15;-0,06;0,23;-5,62;-0,42;0,46;-2,78;-2,37;-5,78;0,00
25.945;-0,85;-0,07;0,10;-5,62;-0,42;0,46;-2,78;-2,37;-5,78;0,00
25.97;-0,85;-0,07;0,10;-5,62;-0,42;0,46;-2,55;0,53;-4,13;0,00
26.008;-0,85;-0,07;0,10;-0,76;1,60;-5,21;-2,55;0,53;-4,13;0,00
26.01;-0,85;-0,07;0,10;-0,93;3,14;-4,66;-2,55;0,53;-4,13;0,00
26.015;-0,66;0,02;0,02;-0,93;3,14;-4,66;-2,55;0,53;-4,13;0,00
26.045;-0,66;0,02;0,02;-0,93;3,14;-4,66;-0,94;1,11;-3,18;0,00
26.047;-0,66;0,02;0,02;0,51;3,78;-3,14;-0,94;1,11;-3,18;0,00
26.085;-0,83;-0,10;0,18;0,51;3,78;-3,14;-0,94;1,11;-3,18;0,00
26.086;-0,83;-0,10;0,18;0,51;3,78;-3,14;-0,25;1,07;-0,77;0,00
26.123;-0,83;-0,10;0,18;0,79;4,72;-2,78;-0,25;1,07;-0,77;0,00
26.125;-0,83;-0,10;0,18;0,82;4,79;-2,42;-0,25;1,07;-0,77;0,00
26.168;-1,35;-0,98;0,43;0,82;4,79;-2,42;-0,25;1,07;-0,77;0,00
26.169;-1,35;-0,98;0,43;0,82;4,79;-2,42;-0,02;0,67;0,93;0,00
26.186;-1,35;-0,98;0,43;-1,96;1,48;-0,74;-0,02;0,67;0,93;0,00
26.187;-1,35;-0,98;0,43;-1,61;1,11;-0,40;-0,02;0,67;0,93;0,00
26.225;-2,02;-1,88;0,74;-1,61;1,11;-0,40;-0,02;0,67;0,93;0,00
26.249;-2,02;-1,88;0,74;-1,61;1,11;-0,40;-0,90;0,22;-0,61;0,00
26.272;-2,02;-1,88;0,74;-8,86;-9,54;4,24;-0,90;0,22;-0,61;0,00
26.274;-2,02;-1,88;0,74;-9,32;-8,49;4,08;-0,90;0,22;-0,61;0,00
26.284;-2,02;-1,88;0,74;-9,32;-8,49;4,08;-3,47;-1,54;-3,45;0,00
26.294;-1,16;-1,63;0,32;-9,32;-8,49;4,08;-3,47;-1,54;-3,45;0,00
26.326;-1,16;-1,63;0,32;-8,43;-11,63;2,41;-3,47;-1,54;-3,45;0,00
26.365;-0,79;0,26;0,16;-8,43;-11,63;2,41;-3,47;-1,54;-3,45;0,00
26.365;-0,79;0,26;0,16;-8,43;-11,63;2,41;-3,20;-1,79;-2,54;0,00
26.395;-0,79;0,26;0,16;-6,51;0,54;3,31;-3,20;-1,79;-2,54;0,00
26.397;-0,79;0,26;0,16;-6,74;0,75;3,32;-3,20;-1,79;-2,54;0,00
26.435;-1,08;-0,32;0,51;-6,74;0,75;3,32;-3,20;-1,79;-2,54;0,00
26.445;-1,08;-0,32;0,51;-6,74;0,75;3,32;-1,00;-2,60;1,17;0,00
26.465;-1,08;-0,32;0,51;0,41;10,02;-0,39;-1,00;-2,60;1,17;0,00
26.465;-1,08;-0,32;0,51;1,00;9,42;-0,40;-1,00;-2,60;1,17;0,00
26.485;-1,08;-0,32;0,51;1,00;9,42;-0,40;1,38;-1,31;3,11;0,00
26.505;-0,88;-0,54;0,63;1,00;9,42;-0,40;1,38;-1,31;3,11;0,00
26.535;-0,88;-0,54;0,63;-5,32;2,19;4,30;1,38;-1,31;3,11;0,00
26.536;-0,88;-0,54;0,63;-4,21;0,20;3,07;1,38;-1,31;3,11;0,00
26.565;-0,88;-0,54;0,63;-4,21;0,20;3,07;4,09;-0,15;5,22;0,00
26.577;-0,33;-0,39;0,71;-4,21;0,20;3,07;4,09;-0,15;5,22;0,00
26.609;-0,33;-0,39;0,71;4,06;-1,76;2,21;4,09;-0,15;5,22;0,00
26.645;-0,33;-0,39;0,71;4,06;-1,76;2,21;4,34;-0,02;5,86;0,00
26.647;-0,24;-0,73;0,50;4,06;-1,76;2,21;4,34;-0,02;5,86;0,00
26.676;-0,24;-0,73;0,50;6,64;-6,15;2,68;4,34;-0,02;5,86;0,00
26.677;-0,24;-0,73;0,50;5,90;-8,80;2,60;4,34;-0,02;5,86;0,00
26.685;-0,24;-0,73;0,50;5,90;-8,80;2,60;3,73;-0,79;4,45;0,00
26.715;-0,83;-0,44;0,78;5,90;-8,80;2,60;3,73;-0,79;4,45;0,00
26.745;-0,83;-0,44;0,78;3,74;-11,72;1,52;3,73;-0,79;4,45;0,00
26.746;-0,83;-0,44;0,78;3,60;-12,06;2,13;3,73;-0,79;4,45;0,00
26.765;-0,83;-0,44;0,78;3,60;-12,06;2,13;1,37;0,08;-0,65;0,00
26.785;-1,31;0,03;0,41;3,60;-12,06;2,13;1,37;0,08;-0,65;0,00
26.815;-1,31;0,03;0,41;-2,96;-5,96;4,11;1,37;0,08;-0,65;0,00
26.817;-1,31;0,03;0,41;-2,47;-3,88;3,22;1,37;0,08;-0,65;0,00
26.845;-1,31;0,03;0,41;-2,47;-3,88;3,22;-1,36;-1,91;-5,47;0,00
26.858;-0,71;-0,06;-0,14;-2,47;-3,88;3,22;-1,36;-1,91;-5,47;0,00
26.886;-0,71;-0,06;-0,14;-2,47;-3,88;3,22;-1,79;-0,27;-5,01;0,00
26.887;-0,71;-0,06;-0,14;-1,91;-0,34;-3,56;-1,79;-0,27;-5,01;0,00
26.926;-0,73;0,03;-0,01;-1,91;-0,34;-3,56;-1,79;-0,27;-5,01;0,00
26.955;-0,73;0,03;-0,01;1,38;2,03;-5,93;-1,79;-0,27;-5,01;0,00
26.956;-0,73;0,03;-0,01;1,19;3,13;-5,47;-1,79;-0,27;-5,01;0,00
26.965;-0,73;0,03;-0,01;1,19;3,13;-5,47;-0,88;0,49;-2,63;0,00
26.995;-0,42;-0,04;0,06;1,19;3,13;-5,47;-0,88;0,49;-2,63;0,00
27.025;-0,42;-0,04;0,06;1,77;4,10;-3,40;-0,88;0,49;-2,63;0,00
27.027;-0,42;-0,04;0,06;1,52;4,43;-3,35;-0,88;0,49;-2,63;0,00
27.048;-0,42;-0,04;0,06;1,52;4,43;-3,35;-0,02;0,02;-1,20;0,00
27.076;-0,74;-0,26;0,09;1,52;4,43;-3,35;-0,02;0,02;-1,20;0,00
27.085;-0,74;-0,26;0,09;1,52;4,43;-3,35;0,49;1,22;0,08;0,00
27.095;-0,74;-0,26;0,09;3,85;3,34;-3,48;0,49;1,22;0,08;0,00
27.097;-0,74;-0,26;0,09;4,00;3,14;-3,11;0,49;1,22;0,08;0,00
27.135;-1,68;-1,04;0,54;4,00;3,14;-3,11;0,49;1,22;0,08;0,00
27.165;-1,68;-1,04;0,54;4,00;3,14;-3,11;-0,06;1,09;0,11;0,00
27.166;-1,68;-1,04;0,54;-3,01;-1,66;-0,10;-0,06;1,09;0,11;0,00
27.206;-2,16;-1,88;0,89;-3,01;-1,66;-0,10;-0,06;1,09;0,11;0,00
27.235;-2,16;-1,88;0,89;-11,45;-9,43;4,80;-0,06;1,09;0,11;0,00
27.236;-2,16;-1,88;0,89;-11,75;-8,33;4,89;-0,06;1,09;0,11;0,00
27.245;-2,16;-1,88;0,89;-11,75;-8,33;4,89;-1,92;-0,63;-2,54;0,00
27.275;-1,01;-1,29;0,16;-11,75;-8,33;4,89;-1,92;-0,63;-2,54;0,00
27.285;-1,01;-1,29;0,16;-11,75;-8,33;4,89;-4,22;-1,29;-3,95;0,00
27.305;-1,01;-1,29;0,16;-10,21;-10,93;2,85;-4,22;-1,29;-3,95;0,00
27.307;-1,01;-1,29;0,16;-11,33;-9,40;3,89;-4,22;-1,29;-3,95;0,00
27.346;-1,05;0,05;0,38;-11,33;-9,40;3,89;-4,22;-1,29;-3,95;0,00
27.365;-1,05;0,05;0,38;-11,33;-9,40;3,89;-3,55;-1,66;-1,62;0,00
27.376;-1,05;0,05;0,38;-3,86;0,95;2,61;-3,55;-1,66;-1,62;0,00
27.376;-1,05;0,05;0,38;-3,82;0,93;2,92;-3,55;-1,66;-1,62;0,00
27.415;-0,89;-0,26;0,50;-3,82;0,93;2,92;-3,55;-1,66;-1,62;0,00
27.445;-0,89;-0,26;0,50;-3,82;0,93;2,92;-0,83;-2,89;1,55;0,00
27.446;-0,89;-0,26;0,50;-3,05;10,46;3,95;-0,83;-2,89;1,55;0,00
27.485;-0,84;-0,49;0,62;-3,05;10,46;3,95;-0,83;-2,89;1,55;0,00
27.486;-0,84;-0,49;0,62;-3,05;10,46;3,95;1,78;-1,40;3,62;0,00
27.515;-0,84;-0,49;0,62;-3,54;3,70;5,49;1,78;-1,40;3,62;0,00
27.516;-0,84;-0,49;0,62;-2,41;2,42;4,37;1,78;-1,40;3,62;0,00
27.555;-0,41;-0,35;0,67;-2,41;2,42;4,37;1,78;-1,40;3,62;0,00
27.566;-0,41;-0,35;0,67;-2,41;2,42;4,37;3,78;0,21;5,18;0,00
27.587;-0,41;-0,35;0,67;3,66;0,86;3,12;3,78;0,21;5,18;0,00
27.588;-0,41;-0,35;0,67;4,48;-1,70;2,88;3,78;0,21;5,18;0,00
27.625;-0,62;-0,85;0,63;4,48;-1,70;2,88;3,78;0,21;5,18;0,00
27.645;-0,62;-0,85;0,63;4,48;-1,70;2,88;4,33;-0,09;6,21;0,00
27.655;-0,62;-0,85;0,63;5,23;-5,49;3,39;4,33;-0,09;6,21;0,00
27.656;-0,62;-0,85;0,63;4,55;-8,28;3,58;4,33;-0,09;6,21;0,00
27.686;-0,62;-0,85;0,63;4,55;-8,28;3,58;3,46;-0,20;5,02;0,00
27.696;-0,76;-0,68;0,69;4,55;-8,28;3,58;3,46;-0,20;5,02;0,00
27.732;-0,76;-0,68;0,69;1,35;-14,82;3,97;3,46;-0,20;5,02;0,00
27.765;-0,76;-0,68;0,69;1,35;-14,82;3,97;0,69;-1,63;-1,54;0,00
27.765;-1,07;-0,08;0,29;1,35;-14,82;3,97;0,69;-1,63;-1,54;0,00
27.795;-1,07;-0,08;0,29;-1,64;-8,23;4,04;0,69;-1,63;-1,54;0,00
27.796;-1,07;-0,08;0,29;-1,18;-6,64;2,92;0,69;-1,63;-1,54;0,00
27.836;-0,85;-0,22;-0,16;-1,18;-6,64;2,92;0,69;-1,63;-1,54;0,00
27.849;-0,85;-0,22;-0,16;-1,18;-6,64;2,92;-1,95;-3,51;-6,65;0,00
27.886;-0,85;-0,22;-0,16;-1,80;-2,45;-5,54;-1,95;-3,51;-6,65;0,00
27.887;-0,85;-0,22;-0,16;-2,14;-0,21;-6,01;-1,95;-3,51;-6,65;0,00
27.888;-0,85;-0,22;-0,16;-2,14;-0,21;-6,01;-1,79;0,13;-4,28;0,00
27.906;-0,74;-0,04;-0,16;-2,14;-0,21;-6,01;-1,79;0,13;-4,28;0,00
27.935;-0,74;-0,04;-0,16;1,59;1,03;-6,63;-1,79;0,13;-4,28;0,00
27.936;-0,74;-0,04;-0,16;1,50;2,11;-5,83;-1,79;0,13;-4,28;0,00
27.969;-0,74;-0,04;-0,16;1,50;2,11;-5,83;-0,65;1,42;-2,45;0,00
27.998;-0,66;-0,13;0,16;1,50;2,11;-5,83;-0,65;1,42;-2,45;0,00
28.005;-0,66;-0,13;0,16;0,22;3,86;-3,20;-0,65;1,42;-2,45;0,00
28.046;-0,82;-0,34;0,04;0,22;3,86;-3,20;-0,65;1,42;-2,45;0,00
28.047;-0,82;-0,34;0,04;0,22;3,86;-3,20;0,45;0,42;-0,76;0,00
28.082;-0,82;-0,34;0,04;1,48;2,90;-3,10;0,45;0,42;-0,76;0,00
28.082;-0,82;-0,34;0,04;1,64;2,69;-2,86;0,45;0,42;-0,76;0,00
28.085;-0,82;-0,34;0,04;1,64;2,69;-2,86;0,23;1,34;0,72;0,00
28.115;-1,68;-1,36;0,44;1,64;2,69;-2,86;0,23;1,34;0,72;0,00
28.145;-1,68;-1,36;0,44;-2,56;-2,38;-1,66;0,23;1,34;0,72;0,00
28.146;-1,68;-1,36;0,44;-2,44;-2,07;-0,93;0,23;1,34;0,72;0,00
28.165;-1,68;-1,36;0,44;-2,44;-2,07;-0,93;-2,12;0,67;-1,54;0,00
28.185;-1,53;-2,35;0,20;-2,44;-2,07;-0,93;-2,12;0,67;-1,54;0,00
28.222;-1,53;-2,35;0,20;-11,41;-12,27;4,12;-2,12;0,67;-1,54;0,00
28.224;-1,53;-2,35;0,20;-12,74;-10,29;5,16;-2,12;0,67;-1,54;0,00
28.262;-1,53;-2,35;0,20;-12,74;-10,29;5,16;-5,03;-0,76;-5,55;0,00
28.263;-1,38;-1,29;0,30;-12,74;-10,29;5,16;-5,03;-0,76;-5,55;0,00
28.285;-1,38;-1,29;0,30;-12,74;-10,29;5,16;-3,59;-1,54;-3,02;0,00
28.287;-1,38;-1,29;0,30;-8,52;-15,07;2,19;-3,59;-1,54;-3,02;0,00
28.326;-0,39;0,14;0,10;-8,52;-15,07;2,19;-3,59;-1,54;-3,02;0,00
28.355;-0,39;0,14;0,10;-4,17;8,49;3,40;-3,59;-1,54;-3,02;0,00
28.357;-0,39;0,14;0,10;-3,85;8,22;3,43;-3,59;-1,54;-3,02;0,00
28.365;-0,39;0,14;0,10;-3,85;8,22;3,43;-1,29;-2,13;0,28;0,00
28.396;-0,94;-0,28;0,47;-3,85;8,22;3,43;-1,29;-2,13;0,28;0,00
28.426;-0,94;-0,28;0,47;-1,34;7,45;4,43;-1,29;-2,13;0,28;0,00
28.427;-0,94;-0,28;0,47;-0,74;7,04;4,12;-1,29;-2,13;0,28;0,00
28.459;-0,94;-0,28;0,47;-0,74;7,04;4,12;-0,22;-2,03;1,47;0,00
28.479;-1,10;-0,53;0,45;-0,74;7,04;4,12;-0,22;-2,03;1,47;0,00
28.485;-1,10;-0,53;0,45;-0,74;7,04;4,12;3,02;-3,98;4,52;0,00
28.495;-1,10;-0,53;0,45;-4,55;4,77;5,24;3,02;-3,98;4,52;0,00
28.496;-1,10;-0,53;0,45;-3,27;3,14;3,09;3,02;-3,98;4,52;0,00
28.536;-0,78;-0,97;0,68;-3,27;3,14;3,09;3,02;-3,98;4,52;0,00
28.566;-0,78;-0,97;0,68;-3,27;3,14;3,09;5,54;-1,03;6,40;0,00
28.567;-0,78;-0,97;0,68;-0,11;-5,00;1,48;5,54;-1,03;6,40;0,00
28.606;-0,72;-0,86;0,90;-0,11;-5,00;1,48;5,54;-1,03;6,40;0,00
28.636;-0,72;-0,86;0,90;2,27;-9,15;2,87;5,54;-1,03;6,40;0,00
28.637;-0,72;-0,86;0,90;1,89;-12,21;3,27;5,54;-1,03;6,40;0,00
28.645;-0,72;-0,86;0,90;1,89;-12,21;3,27;5,20;0,32;6,44;0,00
28.675;-0,78;-0,25;0,87;1,89;-12,21;3,27;5,20;0,32;6,44;0,00
28.685;-0,78;-0,25;0,87;1,89;-12,21;3,27;2,16;-1,43;0,89;0,00
28.706;-0,78;-0,25;0,87;1,69;-10,37;6,45;2,16;-1,43;0,89;0,00
28.707;-0,78;-0,25;0,87;1,45;-10,36;6,09;2,16;-1,43;0,89;0,00
28.746;-1,04;-0,15;0,05;1,45;-10,36;6,09;2,16;-1,43;0,89;0,00
28.765;-1,04;-0,15;0,05;1,45;-10,36;6,09;0,23;-2,51;-4,61;0,00
28.776;-1,04;-0,15;0,05;-2,84;-5,73;1,45;0,23;-2,51;-4,61;0,00
28.777;-1,04;-0,15;0,05;-2,90;-3,95;0,42;0,23;-2,51;-4,61;0,00
28.815;-0,47;-0,06;-0,30;-2,90;-3,95;0,42;0,23;-2,51;-4,61;0,00
28.846;-0,47;-0,06;-0,30;2,17;-0,63;-7,35;0,23;-2,51;-4,61;0,00
28.846;-0,47;-0,06;-0,30;2,17;-0,63;-7,35;-0,04;-1,18;-4,04;0,00
28.886;-0,47;-0,06;-0,30;2,17;-0,63;-7,35;0,75;1,10;-1,86;0,00
28.887;-0,46;-0,06;-0,00;2,17;-0,63;-7,35;0,75;1,10;-1,86;0,00
28.918;-0,46;-0,06;-0,00;3,08;0,38;-7,00;0,75;1,10;-1,86;0,00
28.919;-0,46;-0,06;-0,00;3,14;0,77;-6,63;0,75;1,10;-1,86;0,00
28.955;-0,30;-0,13;-0,13;3,14;0,77;-6,63;0,75;1,10;-1,86;0,00
28.966;-0,30;-0,13;-0,13;3,14;0,77;-6,63;1,02;-0,30;-1,11;0,00
28.986;-0,30;-0,13;-0,13;4,50;0,45;-5,34;1,02;-0,30;-1,11;0,00
28.987;-0,30;-0,13;-0,13;4,39;0,50;-5,29;1,02;-0,30;-1,11;0,00
29.026;-1,05;-0,40;0,31;4,39;0,50;-5,29;1,02;-0,30;-1,11;0,00
29.045;-1,05;-0,40;0,31;4,39;0,50;-5,29;0,77;1,26;-0,18;0,00
29.056;-1,05;-0,40;0,31;3,07;-0,84;-4,49;0,77;1,26;-0,18;0,00
29.057;-1,05;-0,40;0,31;3,33;-0,87;-3,78;0,77;1,26;-0,18;0,00
29.086;-1,05;-0,40;0,31;3,33;-0,87;-3,78;-0,11;1,50;-0,84;0,00
29.096;-1,84;-0,49;0,66;3,33;-0,87;-3,78;-0,11;1,50;-0,84;0,00
29.126;-1,84;-0,49;0,66;-5,79;-3,15;1,96;-0,11;1,50;-0,84;0,00
29.165;-1,84;-0,49;0,66;-5,79;-3,15;1,96;-2,14;0,06;-3,08;0,00
29.166;-1,72;-1,55;0,39;-5,79;-3,15;1,96;-2,14;0,06;-3,08;0,00
29.196;-1,72;-1,55;0,39;-9,97;-5,99;2,92;-2,14;0,06;-3,08;0,00
29.197;-1,72;-1,55;0,39;-10,41;-4,18;3,26;-2,14;0,06;-3,08;0,00
29.236;-1,62;-1,71;0,48;-10,41;-4,18;3,26;-2,14;0,06;-3,08;0,00
29.246;-1,62;-1,71;0,48;-10,41;-4,18;3,26;-4,70;-0,51;-5,30;0,00
29.266;-1,62;-1,71;0,48;-9,64;-10,66;2,11;-4,70;-0,51;-5,30;0,00
29.266;-1,62;-1,71;0,48;-10,98;-9,01;3,43;-4,70;-0,51;-5,30;0,00
29.286;-1,62;-1,71;0,48;-10,98;-9,01;3,43;-4,59;-1,94;-3,59;0,00
29.319;-0,97;0,03;0,14;-10,98;-9,01;3,43;-4,59;-1,94;-3,59;0,00
29.337;-0,97;0,03;0,14;-8,84;-1,62;4,21;-4,59;-1,94;-3,59;0,00
29.338;-0,97;0,03;0,14;-8,65;-1,65;4,54;-4,59;-1,94;-3,59;0,00
29.366;-0,97;0,03;0,14;-8,65;-1,65;4,54;-2,08;-1,61;0,24;0,00
29.376;-0,59;0,04;0,33;-8,65;-1,65;4,54;-2,08;-1,61;0,24;0,00
29.406;-0,59;0,04;0,33;-0,42;11,68;2,16;-2,08;-1,61;0,24;0,00
29.446;-0,59;0,04;0,33;-0,42;11,68;2,16;-1,31;-0,29;1,20;0,00
29.447;-1,23;-0,69;0,74;-0,42;11,68;2,16;-1,31;-0,29;1,20;0,00
29.476;-1,23;-0,69;0,74;-3,00;5,14;7,72;-1,31;-0,29;1,20;0,00
29.477;-1,23;-0,69;0,74;-2,07;4,46;6,98;-1,31;-0,29;1,20;0,00
29.487;-1,23;-0,69;0,74;-2,07;4,46;6,98;1,51;-3,92;4,07;0,00
29.516;-0,69;-0,72;0,36;-2,07;4,46;6,98;1,51;-3,92;4,07;0,00
29.545;-0,69;-0,72;0,36;-2,50;-0,73;3,87;1,51;-3,92;4,07;0,00
29.546;-0,69;-0,72;0,36;-1,48;-2,93;2,25;1,51;-3,92;4,07;0,00
29.565;-0,69;-0,72;0,36;-1,48;-2,93;2,25;4,41;-1,28;6,05;0,00
29.586;-0,54;-0,76;0,59;-1,48;-2,93;2,25;4,41;-1,28;6,05;0,00
29.615;-0,54;-0,76;0,59;4,32;-5,90;1,83;4,41;-1,28;6,05;0,00
29.616;-0,54;-0,76;0,59;4,16;-9,01;2,24;4,41;-1,28;6,05;0,00
29.646;-0,54;-0,76;0,59;4,16;-9,01;2,24;4,75;0,75;6,86;0,00
29.656;-0,89;-0,87;0,75;4,16;-9,01;2,24;4,75;0,75;6,86;0,00
29.686;-0,89;-0,87;0,75;1,98;-13,44;3,67;4,75;0,75;6,86;0,00
29.687;-0,89;-0,87;0,75;1,98;-13,44;3,67;2,54;-1,65;2,50;0,00
29.737;-1,09;-0,17;0,39;1,98;-13,44;3,67;2,54;-1,65;2,50;0,00
29.77;-1,09;-0,17;0,39;-1,45;-9,95;4,38;2,54;-1,65;2,50;0,00
29.771;-1,09;-0,17;0,39;-1,29;-8,95;3,48;2,54;-1,65;2,50;0,00
29.772;-1,09;-0,17;0,39;-1,29;-8,95;3,48;0,18;-2,68;-3,81;0,00
29.797;-0,74;-0,08;-0,19;-1,29;-8,95;3,48;0,18;-2,68;-3,81;0,00
29.826;-0,74;-0,08;-0,19;-1,64;-2,93;-4,13;0,18;-2,68;-3,81;0,00
29.827;-0,74;-0,08;-0,19;-1,71;-0,98;-4,62;0,18;-2,68;-3,81;0,00
29.846;-0,74;-0,08;-0,19;-1,71;-0,98;-4,62;-0,83;-1,42;-5,07;0,00
29.866;-0,60;-0,07;-0,12;-1,71;-0,98;-4,62;-0,83;-1,42;-5,07;0,00
29.886;-0,60;-0,07;-0,12;-1,71;-0,98;-4,62;-0,03;0,83;-3,23;0,00
29.896;-0,60;-0,07;-0,12;2,51;0,50;-6,34;-0,03;0,83;-3,23;0,00
29.896;-0,60;-0,07;-0,12;2,42;1,46;-5,90;-0,03;0,83;-3,23;0,00
29.936;-0,46;0,02;-0,11;2,42;1,46;-5,90;-0,03;0,83;-3,23;0,00
29.977;-0,46;0,02;-0,11;2,42;1,46;-5,90;0,50;0,41;-2,02;0,00
29.979;-0,46;0,02;-0,11;2,66;3,07;-4,97;0,50;0,41;-2,02;0,00
30.008;-0,83;-0,33;0,12;2,66;3,07;-4,97;0,50;0,41;-2,02;0,00
30.037;-0,83;-0,33;0,12;3,44;2,71;-4,44;0,50;0,41;-2,02;0,00
30.038;-0,83;-0,33;0,12;3,50;2,63;-4,16;0,50;0,41;-2,02;0,00
30.046;-0,83;-0,33;0,12;3,50;2,63;-4,16;0,89;1,06;-0,27;0,00
30.079;-1,89;-1,09;0,59;3,50;2,63;-4,16;0,89;1,06;-0,27;0,00
30.085;-1,89;-1,09;0,59;3,50;2,63;-4,16;-0,03;0,82;0,20;0,00
30.106;-1,89;-1,09;0,59;-4,78;-2,83;-0,48;-0,03;0,82;0,20;0,00
30.106;-1,89;-1,09;0,59;-4,60;-2,76;-0,20;-0,03;0,82;0,20;0,00
30.146;-2,06;-1,52;0,74;-4,60;-2,76;-0,20;-0,03;0,82;0,20;0,00
30.166;-2,06;-1,52;0,74;-4,60;-2,76;-0,20;-2,28;-0,50;-2,80;0,00
30.177;-2,06;-1,52;0,74;-12,73;-8,68;5,95;-2,28;-0,50;-2,80;0,00
30.178;-2,06;-1,52;0,74;-13,36;-7,01;6,19;-2,28;-0,50;-2,80;0,00
30.217;-1,12;-1,28;0,19;-13,36;-7,01;6,19;-2,28;-0,50;-2,80;0,00
30.246;-1,12;-1,28;0,19;-13,36;-7,01;6,19;-4,82;-0,41;-4,49;0,00
30.246;-1,12;-1,28;0,19;-9,34;-7,98;1,28;-4,82;-0,41;-4,49;0,00
30.286;-1,12;-1,28;0,19;-9,34;-7,98;1,28;-3,19;-2,00;-1,35;0,00
30.287;-0,80;0,12;0,12;-9,34;-7,98;1,28;-3,19;-2,00;-1,35;0,00
30.316;-0,80;0,12;0,12;-4,29;3,33;1,70;-3,19;-2,00;-1,35;0,00
30.317;-0,80;0,12;0,12;-4,41;3,39;2,14;-3,19;-2,00;-1,35;0,00
30.356;-0,90;-0,35;0,47;-4,41;3,39;2,14;-3,19;-2,00;-1,35;0,00
30.366;-0,90;-0,35;0,47;-4,41;3,39;2,14;-1,53;-1,85;1,14;0,00
30.386;-0,90;-0,35;0,47;-0,86;7,55;1,97;-1,53;-1,85;1,14;0,00
30.387;-0,90;-0,35;0,47;-0,32;7,05;1,90;-1,53;-1,85;1,14;0,00
30.426;-0,87;-0,46;0,43;-0,32;7,05;1,90;-1,53;-1,85;1,14;0,00
30.446;-0,87;-0,46;0,43;-0,32;7,05;1,90;1,04;-2,23;3,36;0,00
30.456;-0,87;-0,46;0,43;-3,06;3,15;4,24;1,04;-2,23;3,36;0,00
30.458;-0,87;-0,46;0,43;-1,92;1,52;3,10;1,04;-2,23;3,36;0,00
30.486;-0,87;-0,46;0,43;-1,92;1,52;3,10;3,27;-0,23;5,75;0,00
30.496;-0,68;-0,50;0,63;-1,92;1,52;3,10;3,27;-0,23;5,75;0,00
30.527;-0,68;-0,50;0,63;1,97;-1,45;2,58;3,27;-0,23;5,75;0,00
30.566;-0,68;-0,50;0,63;1,97;-1,45;2,58;4,16;0,11;6,62;0,00
30.567;-0,39;-0,92;0,56;1,97;-1,45;2,58;4,16;0,11;6,62;0,00
30.596;-0,39;-0,92;0,56;4,34;-6,21;3,58;4,16;0,11;6,62;0,00
30.597;-0,39;-0,92;0,56;3,88;-9,00;3,71;4,16;0,11;6,62;0,00
30.635;-0,74;-0,64;0,73;3,88;-9,00;3,71;4,16;0,11;6,62;0,00
30.648;-0,74;-0,64;0,73;3,88;-9,00;3,71;3,74;-0,26;4,68;0,00
30.667;-0,74;-0,64;0,73;4,16;-13,97;4,42;3,74;-0,26;4,68;0,00
30.667;-0,74;-0,64;0,73;3,84;-14,24;4,56;3,74;-0,26;4,68;0,00
30.686;-0,74;-0,64;0,73;3,84;-14,24;4,56;0,71;-2,21;-2,18;0,00
30.707;-1,02;-0,04;0,43;3,84;-14,24;4,56;0,71;-2,21;-2,18;0,00
30.736;-1,02;-0,04;0,43;-1,01;-6,43;3,08;0,71;-2,21;-2,18;0,00
30.737;-1,02;-0,04;0,43;-0,89;-3,93;1,63;0,71;-2,21;-2,18;0,00
30.766;-1,02;-0,04;0,43;-0,89;-3,93;1,63;-1,41;-2,90;-6,42;0,00
30.777;-0,82;-0,06;-0,27;-0,89;-3,93;1,63;-1,41;-2,90;-6,42;0,00
30.806;-0,82;-0,06;-0,27;-1,20;0,64;-5,06;-1,41;-2,90;-6,42;0,00
30.846;-0,82;-0,06;-0,27;-1,20;0,64;-5,06;-1,85;0,65;-4,20;0,00
30.848;-0,81;0,01;-0,12;-1,20;0,64;-5,06;-1,85;0,65;-4,20;0,00
30.876;-0,81;0,01;-0,12;0,79;1,61;-4,60;-1,85;0,65;-4,20;0,00
30.878;-0,81;0,01;-0,12;0,35;2,88;-4,20;-1,85;0,65;-4,20;0,00
30.886;-0,81;0,01;-0,12;0,35;2,88;-4,20;-0,90;0,63;-2,78;0,00
30.918;-0,55;-0,10;-0,11;0,35;2,88;-4,20;-0,90;0,63;-2,78;0,00
30.946;-0,55;-0,10;-0,11;0,93;6,09;-5,35;-0,90;0,63;-2,78;0,00
30.947;-0,55;-0,10;-0,11;0,73;6,50;-4,83;-0,90;0,63;-2,78;0,00
30.969;-0,55;-0,10;-0,11;0,73;6,50;-4,83;-0,45;1,26;-1,09;0,00
30.99;-1,07;-0,98;-0,05;0,73;6,50;-4,83;-0,45;1,26;-1,09;0,00
31.017;-1,07;-0,98;-0,05;-0,64;1,94;-2,75;-0,45;1,26;-1,09;0,00
31.018;-1,07;-0,98;-0,05;-0,56;1,96;-2,34;-0,45;1,26;-1,09;0,00
31.046;-1,07;-0,98;-0,05;-0,56;1,96;-2,34;-0,82;0,72;-0,05;0,00
31.056;-1,60;-2,40;-0,00;-0,56;1,96;-2,34;-0,82;0,72;-0,05;0,00
31.086;-1,60;-2,40;-0,00;-0,56;1,96;-2,34;-3,08;0,43;-2,54;0,00
31.087;-1,60;-2,40;-0,00;-5,15;-10,20;-2,19;-3,08;0,43;-2,54;0,00
31.127;-1,70;-2,30;0,41;-5,15;-10,20;-2,19;-3,08;0,43;-2,54;0,00
31.157;-1,70;-2,30;0,41;-9,56;-19,29;0,88;-3,08;0,43;-2,54;0,00
31.158;-1,70;-2,30;0,41;-10,77;-17,99;1,89;-3,08;0,43;-2,54;0,00
31.166;-1,70;-2,30;0,41;-10,77;-17,99;1,89;-3,86;-2,05;-3,43;0,00
31.196;-0,63;0,32;0,25;-10,77;-17,99;1,89;-3,86;-2,05;-3,43;0,00
31.226;-0,63;0,32;0,25;-8,78;-2,33;5,09;-3,86;-2,05;-3,43;0,00
31.227;-0,63;0,32;0,25;-8,29;-2,49;5,04;-3,86;-2,05;-3,43;0,00
31.247;-0,63;0,32;0,25;-8,29;-2,49;5,04;-1,61;-2,68;0,61;0,00
31.266;-1,03;-0,17;0,74;-8,29;-2,49;5,04;-1,61;-2,68;0,61;0,00
31.286;-1,03;-0,17;0,74;-8,29;-2,49;5,04;-0,55;-1,53;1,62;0,00
31.296;-1,03;-0,17;0,74;0,12;12,41;5,24;-0,55;-1,53;1,62;0,00
31.296;-1,03;-0,17;0,74;0,77;11,74;4,89;-0,55;-1,53;1,62;0,00
31.337;-1,06;-0,66;0,46;0,77;11,74;4,89;-0,55;-1,53;1,62;0,00
31.366;-1,06;-0,66;0,46;0,77;11,74;4,89;2,59;-3,93;4,08;0,00
31.368;-1,06;-0,66;0,46;-5,48;3,04;6,48;2,59;-3,93;4,08;0,00
31.406;-0,51;-0,77;0,57;-5,48;3,04;6,48;2,59;-3,93;4,08;0,00
31.439;-0,51;-0,77;0,57;2,27;-3,32;1,14;2,59;-3,93;4,08;0,00
31.439;-0,51;-0,77;0,57;3,04;-6,00;0,53;2,59;-3,93;4,08;0,00
31.446;-0,51;-0,77;0,57;3,04;-6,00;0,53;5,23;0,32;5,89;0,00
31.476;-0,82;-1,10;0,63;3,04;-6,00;0,53;5,23;0,32;5,89;0,00
31.487;-0,82;-1,10;0,63;3,04;-6,00;0,53;4,35;0,83;6,33;0,00
31.506;-0,82;-1,10;0,63;2,75;-9,43;2,87;4,35;0,83;6,33;0,00
31.508;-0,82;-1,10;0,63;2,18;-11,98;3,43;4,35;0,83;6,33;0,00
31.546;-0,83;-0,55;0,46;2,18;-11,98;3,43;4,35;0,83;6,33;0,00
31.566;-0,83;-0,55;0,46;2,18;-11,98;3,43;2,06;-1,16;0,39;0,00
31.577;-0,83;-0,55;0,46;1,27;-14,37;3,30;2,06;-1,16;0,39;0,00
31.58;-0,83;-0,55;0,46;1,45;-13,47;2,88;2,06;-1,16;0,39;0,00
31.616;-1,17;-0,44;-0,08;1,45;-13,47;2,88;2,06;-1,16;0,39;0,00
31.647;-1,17;-0,44;-0,08;1,45;-13,47;2,88;0,26;-2,08;-5,36;0,00
31.648;-1,17;-0,44;-0,08;-2,43;-5,50;-0,82;0,26;-2,08;-5,36;0,00
31.686;-1,17;-0,44;-0,08;-2,43;-5,50;-0,82;0,41;-0,68;-4,52;0,00
31.687;-0,43;0,01;-0,36;-2,43;-5,50;-0,82;0,41;-0,68;-4,52;0,00
31.717;-0,43;0,01;-0,36;0,80;-2,17;-8,27;0,41;-0,68;-4,52;0,00
31.717;-0,43;0,01;-0,36;0,61;-0,85;-8,15;0,41;-0,68;-4,52;0,00
31.758;-0,51;0,15;-0,16;0,61;-0,85;-8,15;0,41;-0,68;-4,52;0,00
31.767;-0,51;0,15;-0,16;0,61;-0,85;-8,15;0,50;1,17;-2,73;0,00
31.797;-0,51;0,15;-0,16;3,15;3,24;-6,00;0,50;1,17;-2,73;0,00
31.798;-0,51;0,15;-0,16;2,79;3,96;-5,96;0,50;1,17;-2,73;0,00
31.827;-0,62;-0,12;-0,06;2,79;3,96;-5,96;0,50;1,17;-2,73;0,00
31.846;-0,62;-0,12;-0,06;2,79;3,96;-5,96;-0,24;-0,85;-1,68;0,00
31.857;-0,62;-0,12;-0,06;4,53;5,04;-4,50;-0,24;-0,85;-1,68;0,00
31.858;-0,62;-0,12;-0,06;4,59;5,10;-3,97;-0,24;-0,85;-1,68;0,00
31.887;-0,62;-0,12;-0,06;4,59;5,10;-3,97;-0,86;1,33;-0,35;0,00
31.896;-1,66;-1,24;0,71;4,59;5,10;-3,97;-0,86;1,33;-0,35;0,00
31.926;-1,66;-1,24;0,71;-2,90;-0,75;-0,24;-0,86;1,33;-0,35;0,00
31.966;-1,20;-0,98;0,22;-2,90;-0,75;-0,24;-0,86;1,33;-0,35;0,00
31.967;-1,20;-0,98;0,22;-2,90;-0,75;-0,24;-2,29;0,12;-3,73;0,00
31.997;-1,20;-0,98;0,22;-9,39;-8,54;4,00;-2,29;0,12;-3,73;0,00
31.998;-1,20;-0,98;0,22;-10,34;-6,96;4,58;-2,29;0,12;-3,73;0,00
32.037;-0,77;-0,20;0,02;-10,34;-6,96;4,58;-2,29;0,12;-3,73;0,00
32.046;-0,77;-0,20;0,02;-10,34;-6,96;4,58;-2,15;0,06;-2,61;0,00
32.066;-0,77;-0,20;0,02;-3,34;2,29;0,85;-2,15;0,06;-2,61;0,00
32.067;-0,77;-0,20;0,02;-3,33;2,31;1,02;-2,15;0,06;-2,61;0,00
32.086;-0,77;-0,20;0,02;-3,33;2,31;1,02;-1,17;-0,06;0,12;0,00
32.107;-0,70;-2,27;-0,15;-3,33;2,31;1,02;-1,17;-0,06;0,12;0,00
32.136;-0,70;-2,27;-0,15;-0,54;-1,12;-2,35;-1,17;-0,06;0,12;0,00
32.137;-0,70;-2,27;-0,15;-1,10;-0,72;-1,33;-1,17;-0,06;0,12;0,00
32.166;-0,70;-2,27;-0,15;-1,10;-0,72;-1,33;-2,92;-0,14;-2,48;0,00
32.176;-0,68;-1,88;-0,26;-1,10;-0,72;-1,33;-2,92;-0,14;-2,48;0,00
32.206;-0,68;-1,88;-0,26;-3,29;-16,09;1,14;-2,92;-0,14;-2,48;0,00
32.247;-0,68;-1,88;-0,26;-3,29;-16,09;1,14;-3,43;-2,67;-2,50;0,00
32.247;-0,89;0,69;-0,08;-3,29;-16,09;1,14;-3,43;-2,67;-2,50;0,00
32.276;-0,89;0,69;-0,08;-3,54;4,99;-1,63;-3,43;-2,67;-2,50;0,00
32.277;-0,89;0,69;-0,08;-3,42;4,66;-0,90;-3,43;-2,67;-2,50;0,00
32.287;-0,89;0,69;-0,08;-3,42;4,66;-0,90;-2,30;-2,98;0,71;0,00
32.317;-1,46;-1,04;0,40;-3,42;4,66;-0,90;-2,30;-2,98;0,71;0,00
32.347;-1,46;-1,04;0,40;-10,04;6,02;5,45;-2,30;-2,98;0,71;0,00
32.347;-1,46;-1,04;0,40;-8,28;5,19;4,21;-2,30;-2,98;0,71;0,00
32.366;-1,46;-1,04;0,40;-8,28;5,19;4,21;1,73;-3,25;4,15;0,00
32.386;-0,78;-0,82;1,28;-8,28;5,19;4,21;1,73;-3,25;4,15;0,00
32.418;-0,78;-0,82;1,28;1,45;-1,75;7,12;1,73;-3,25;4,15;0,00
32.419;-0,78;-0,82;1,28;2,71;-3,90;6,87;1,73;-3,25;4,15;0,00
32.447;-0,78;-0,82;1,28;2,71;-3,90;6,87;5,09;2,37;6,93;0,00
32.457;-0,82;-1,66;1,09;2,71;-3,90;6,87;5,09;2,37;6,93;0,00
32.486;-0,82;-1,66;1,09;2,71;-3,90;6,87;5,00;-1,45;6,68;0,00
32.488;-0,82;-1,66;1,09;-2,39;-10,86;13,75;5,00;-1,45;6,68;0,00
32.527;-0,60;-1,22;0,24;-2,39;-10,86;13,75;5,00;-1,45;6,68;0,00
32.557;-0,60;-1,22;0,24;5,85;-16,80;5,56;5,00;-1,45;6,68;0,00
32.558;-0,60;-1,22;0,24;5,57;-17,33;5,24;5,00;-1,45;6,68;0,00
32.566;-0,60;-1,22;0,24;5,57;-17,33;5,24;3,19;-1,99;-0,37;0,00
32.596;-1,00;-0,73;-0,54;5,57;-17,33;5,24;3,19;-1,99;-0,37;0,00
32.627;-1,00;-0,73;-0,54;0,48;-11,01;-3,44;3,19;-1,99;-0,37;0,00
32.628;-1,00;-0,73;-0,54;-0,08;-9,22;-4,79;3,19;-1,99;-0,37;0,00
32.647;-1,00;-0,73;-0,54;-0,08;-9,22;-4,79;1,76;-3,78;-5,03;0,00
32.667;-0,72;-0,06;-0,33;-0,08;-9,22;-4,79;1,76;-3,78;-5,03;0,00
32.693;-0,72;-0,06;-0,33;-0,08;-9,22;-4,79;0,70;-0,17;-0,74;0,00
32.697;-0,72;-0,06;-0,33;-0,83;-2,03;-10,85;0,70;-0,17;-0,74;0,00
32.698;-0,72;-0,06;-0,33;-0,85;-2,02;-10,73;0,70;-0,17;-0,74;0,00
32.736;-0,55;-0,11;-0,09;-0,85;-2,02;-10,73;0,70;-0,17;-0,74;0,00
32.767;-0,55;-0,11;-0,09;2,18;1,45;-5,07;0,70;-0,17;-0,74;0,00
32.767;-0,55;-0,11;-0,09;2,18;1,45;-5,07;1,19;-1,10;-0,01;0,00
32.806;-1,11;-0,41;0,33;2,18;1,45;-5,07;1,19;-1,10;-0,01;0,00
32.837;-1,11;-0,41;0,33;1,00;-0,95;-4,50;1,19;-1,10;-0,01;0,00
32.838;-1,11;-0,41;0,33;1,14;-1,12;-4,18;1,19;-1,10;-0,01;0,00
32.847;-1,11;-0,41;0,33;1,14;-1,12;-4,18;0,70;0,89;0,06;0,00
32.877;-1,50;-0,54;0,72;1,14;-1,12;-4,18;0,70;0,89;0,06;0,00
32.887;-1,50;-0,54;0,72;1,14;-1,12;-4,18;-1,65;0,65;-2,80;0,00
32.907;-1,50;-0,54;0,72;-5,60;-2,80;2,49;-1,65;0,65;-2,80;0,00
32.907;-1,50;-0,54;0,72;-5,77;-1,40;2,82;-1,65;0,65;-2,80;0,00
32.946;-0,73;-0,30;0,15;-5,77;-1,40;2,82;-1,65;0,65;-2,80;0,00
32.967;-0,73;-0,30;0,15;-5,77;-1,40;2,82;-2,57;0,85;-3,90;0,00
32.977;-0,73;-0,30;0,15;-3,61;-0,13;1,65;-2,57;0,85;-3,90;0,00
32.978;-0,73;-0,30;0,15;-4,21;1,10;2,48;-2,57;0,85;-3,90;0,00
33.017;-0,45;-0,06;0,02;-4,21;1,10;2,48;-2,57;0,85;-3,90;0,00
33.047;-0,45;-0,06;0,02;-4,21;1,10;2,48;-1,39;0,81;-1,68;0,00
33.048;-0,45;-0,06;0,02;0,81;6,09;-0,36;-1,39;0,81;-1,68;0,00
33.087;-0,76;-2,29;-0,18;0,81;6,09;-0,36;-1,39;0,81;-1,68;0,00
33.088;-0,76;-2,29;-0,18;0,81;6,09;-0,36;-1,69;1,30;-0,99;0,00
33.118;-0,76;-2,29;-0,18;2,13;0,42;-2,06;-1,69;1,30;-0,99;0,00
33.118;-0,76;-2,29;-0,18;1,80;0,73;-1,12;-1,69;1,30;-0,99;0,00
33.157;-0,96;-2,42;-0,33;1,80;0,73;-1,12;-1,69;1,30;-0,99;0,00
33.167;-0,96;-2,42;-0,33;1,80;0,73;-1,12;-3,38;-1,06;-3,97;0,00
33.187;-0,96;-2,42;-0,33;-3,98;-21,38;0,24;-3,38;-1,06;-3,97;0,00
33.188;-0,96;-2,42;-0,33;-5,22;-20,45;0,84;-3,38;-1,06;-3,97;0,00
33.227;-1,07;0,65;0,27;-5,22;-20,45;0,84;-3,38;-1,06;-3,97;0,00
33.247;-1,07;0,65;0,27;-5,22;-20,45;0,84;-3,59;-5,08;-2,17;0,00
33.256;-1,07;0,65;0,27;-6,26;-0,39;-0,38;-3,59;-5,08;-2,17;0,00
33.257;-1,07;0,65;0,27;-5,51;-0,67;-0,36;-3,59;-5,08;-2,17;0,00
33.286;-1,07;0,65;0,27;-5,51;-0,67;-0,36;-0,11;-2,46;2,70;0,00
33.297;-1,65;-0,94;0,87;-5,51;-0,67;-0,36;-0,11;-2,46;2,70;0,00
33.327;-1,65;-0,94;0,87;-8,45;8,30;7,35;-0,11;-2,46;2,70;0,00
33.367;-1,65;-0,94;0,87;-8,45;8,30;7,35;3,18;-2,54;5,06;0,00
33.368;-0,62;-0,49;1,00;-8,45;8,30;7,35;3,18;-2,54;5,06;0,00
33.397;-0,62;-0,49;1,00;-4,27;0,01;9,32;3,18;-2,54;5,06;0,00
33.398;-0,62;-0,49;1,00;-2,85;-1,98;7,77;3,18;-2,54;5,06;0,00
33.438;-0,66;-1,05;0,91;-2,85;-1,98;7,77;3,18;-2,54;5,06;0,00
33.447;-0,66;-1,05;0,91;-2,85;-1,98;7,77;5,12;1,00;6,99;0,00
33.467;-0,66;-1,05;0,91;4,82;-3,30;7,47;5,12;1,00;6,99;0,00
33.468;-0,66;-1,05;0,91;4,92;-6,35;7,51;5,12;1,00;6,99;0,00
33.487;-0,66;-1,05;0,91;4,92;-6,35;7,51;3,23;-0,75;4,70;0,00
33.507;-0,99;-1,26;0,72;4,92;-6,35;7,51;3,23;-0,75;4,70;0,00
33.537;-0,99;-1,26;0,72;2,01;-15,85;7,14;3,23;-0,75;4,70;0,00
33.538;-0,99;-1,26;0,72;1,81;-15,20;6,16;3,23;-0,75;4,70;0,00
33.567;-0,99;-1,26;0,72;1,81;-15,20;6,16;1,78;-2,80;-2,46;0,00
33.577;-0,89;-0,32;-0,34;1,81;-15,20;6,16;1,78;-2,80;-2,46;0,00
33.607;-0,89;-0,32;-0,34;-2,13;-9,38;-2,84;1,78;-2,80;-2,46;0,00
33.646;-0,89;-0,32;-0,34;-2,13;-9,38;-2,84;0,66;-1,79;-3,03;0,00
33.647;-0,63;0,06;-0,23;-2,13;-9,38;-2,84;0,66;-1,79;-3,03;0,00
33.677;-0,63;0,06;-0,23;2,54;0,20;-8,87;0,66;-1,79;-3,03;0,00
33.678;-0,63;0,06;-0,23;2,50;0,48;-8,67;0,66;-1,79;-3,03;0,00
33.686;-0,63;0,06;-0,23;2,50;0,48;-8,67;0,95;-0,02;-0,55;0,00
33.717;-0,62;-0,03;0,09;2,50;0,48;-8,67;0,95;-0,02;-0,55;0,00
33.747;-0,62;-0,03;0,09;1,71;1,06;-4,57;0,95;-0,02;-0,55;0,00
33.748;-0,62;-0,03;0,09;1,41;0,76;-4,99;0,95;-0,02;-0,55;0,00
33.771;-0,62;-0,03;0,09;1,41;0,76;-4,99;1,56;-0,51;0,14;0,00
33.795;-1,03;-0,24;0,29;1,41;0,76;-4,99;1,56;-0,51;0,14;0,00
33.817;-1,03;-0,24;0,29;1,51;-1,39;-3,38;1,56;-0,51;0,14;0,00
33.819;-1,03;-0,24;0,29;1,86;-1,27;-2,55;1,56;-0,51;0,14;0,00
33.847;-1,03;-0,24;0,29;1,86;-1,27;-2,55;0,78;2,22;-0,84;0,00
33.857;-1,26;-0,39;0,68;1,86;-1,27;-2,55;0,78;2,22;-0,84;0,00
33.886;-1,26;-0,39;0,68;1,86;-1,27;-2,55;-1,28;0,60;-4,34;0,00
33.887;-1,26;-0,39;0,68;-2,88;-1,47;1,65;-1,28;0,60;-4,34;0,00
33.927;-0,47;-0,08;-0,21;-2,88;-1,47;1,65;-1,28;0,60;-4,34;0,00
33.957;-0,47;-0,08;-0,21;-1,22;0,38;0,54;-1,28;0,60;-4,34;0,00
33.958;-0,47;-0,08;-0,21;-1,84;1,77;0,59;-1,28;0,60;-4,34;0,00
33.967;-0,47;-0,08;-0,21;-1,84;1,77;0,59;-1,56;-0,53;-3,07;0,00
34.001;-0,31;-0,08;0,04;-1,84;1,77;0,59;-1,56;-0,53;-3,07;0,00
34.027;-0,31;-0,08;0,04;4,95;5,15;-5,08;-1,56;-0,53;-3,07;0,00
34.029;-0,31;-0,08;0,04;4,65;5,51;-4,65;-1,56;-0,53;-3,07;0,00
34.047;-0,31;-0,08;0,04;4,65;5,51;-4,65;-1,62;-0,06;-0,91;0,00
34.067;-1,60;-1,27;0,49;4,65;5,51;-4,65;-1,62;-0,06;-0,91;0,00
34.086;-1,60;-1,27;0,49;4,65;5,51;-4,65;-2,06;-0,44;-0,15;0,00
34.099;-1,60;-1,27;0,49;-0,31;1,85;-0,17;-2,06;-0,44;-0,15;0,00
34.1;-1,60;-1,27;0,49;-0,40;2,04;0,18;-2,06;-0,44;-0,15;0,00
34.137;-1,89;-2,39;0,40;-0,40;2,04;0,18;-2,06;-0,44;-0,15;0,00
34.167;-1,89;-2,39;0,40;-0,40;2,04;0,18;-3,85;-0,81;-3,27;0,00
34.168;-1,89;-2,39;0,40;-13,83;-12,04;5,62;-3,85;-0,81;-3,27;0,00
34.208;-1,06;-0,66;0,36;-13,83;-12,04;5,62;-3,85;-0,81;-3,27;0,00
34.238;-1,06;-0,66;0,36;-8,62;-12,02;2,18;-3,85;-0,81;-3,27;0,00
34.239;-1,06;-0,66;0,36;-9,31;-11,46;3,42;-3,85;-0,81;-3,27;0,00
34.252;-1,06;-0,66;0,36;-9,31;-11,46;3,42;-3,73;-0,26;-2,36;0,00
34.286;-1,04;-0,07;0,47;-9,31;-11,46;3,42;-3,73;-0,26;-2,36;0,00
34.288;-1,04;-0,07;0,47;-9,31;-11,46;3,42;-0,58;-3,15;1,26;0,00
34.31;-1,04;-0,07;0,47;-3,64;9,91;5,81;-0,58;-3,15;1,26;0,00
34.311;-1,04;-0,07;0,47;-2,84;9,37;5,03;-0,58;-3,15;1,26;0,00
34.348;-0,93;-0,47;0,63;-2,84;9,37;5,03;-0,58;-3,15;1,26;0,00
34.369;-0,93;-0,47;0,63;-2,84;9,37;5,03;2,20;-2,64;3,91;0,00
34.377;-0,93;-0,47;0,63;-5,00;3,63;4,44;2,20;-2,64;3,91;0,00
34.378;-0,93;-0,47;0,63;-3,86;2,07;2,98;2,20;-2,64;3,91;0,00
34.418;-0,09;-0,74;0,96;-3,86;2,07;2,98;2,20;-2,64;3,91;0,00
34.447;-0,09;-0,74;0,96;-3,86;2,07;2,98;4,69;0,67;5,32;0,00
34.448;-0,09;-0,74;0,96;3,99;-2,22;5,01;4,69;0,67;5,32;0,00
34.487;-0,42;-1,07;0,32;3,99;-2,22;5,01;4,69;0,67;5,32;0,00
34.488;-0,42;-1,07;0,32;3,99;-2,22;5,01;5,03;0,19;5,35;0,00
34.517;-0,42;-1,07;0,32;8,23;-7,41;4,71;5,03;0,19;5,35;0,00
34.518;-0,42;-1,07;0,32;7,99;-9,83;4,66;5,03;0,19;5,35;0,00
34.558;-1,09;-0,96;0,26;7,99;-9,83;4,66;5,03;0,19;5,35;0,00
34.567;-1,09;-0,96;0,26;7,99;-9,83;4,66;3,06;-1,22;1,42;0,00
34.587;-1,09;-0,96;0,26;2,75;-14,87;-0,13;3,06;-1,22;1,42;0,00
34.589;-1,09;-0,96;0,26;2,74;-14,45;-0,18;3,06;-1,22;1,42;0,00
34.627;-1,25;-0,08;0,01;2,74;-14,45;-0,18;3,06;-1,22;1,42;0,00
34.648;-1,25;-0,08;0,01;2,74;-14,45;-0,18;0,42;-0,71;-3,31;0,00
34.658;-1,25;-0,08;0,01;-5,03;-6,09;-2,98;0,42;-0,71;-3,31;0,00
34.659;-1,25;-0,08;0,01;-5,13;-4,55;-3,56;0,42;-0,71;-3,31;0,00
34.687;-1,25;-0,08;0,01;-5,13;-4,55;-3,56;-0,14;-1,09;-3,02;0,00
34.699;-0,68;0,31;-0,18;-5,13;-4,55;-3,56;-0,14;-1,09;-3,02;0,00
34.727;-0,68;0,31;-0,18;-0,71;2,64;-5,31;-0,14;-1,09;-3,02;0,00
34.767;-0,36;0,09;0,11;-0,71;2,64;-5,31;-0,14;-1,09;-3,02;0,00
34.768;-0,36;0,09;0,11;-0,71;2,64;-5,31;0,15;0,44;-0,83;0,00
34.798;-0,36;0,09;0,11;3,77;3,74;-3,61;0,15;0,44;-0,83;0,00
34.799;-0,36;0,09;0,11;3,70;3,87;-3,48;0,15;0,44;-0,83;0,00
34.837;-0,43;-0,15;-0,04;3,70;3,87;-3,48;0,15;0,44;-0,83;0,00
34.848;-0,43;-0,15;-0,04;3,70;3,87;-3,48;0,84;0,00;-0,60;0,00
34.882;-0,43;-0,15;-0,04;5,36;2,14;-3,26;0,84;0,00;-0,60;0,00
34.883;-0,43;-0,15;-0,04;5,36;2,07;-3,02;0,84;0,00;-0,60;0,00
34.888;-0,43;-0,15;-0,04;5,36;2,07;-3,02;0,19;1,65;-0,51;0,00
34.907;-1,43;-1,01;0,36;5,36;2,07;-3,02;0,19;1,65;-0,51;0,00
34.937;-1,43;-1,01;0,36;0,92;-2,55;-2,47;0,19;1,65;-0,51;0,00
34.938;-1,43;-1,01;0,36;0,75;-1,48;-1,98;0,19;1,65;-0,51;0,00
34.967;-1,43;-1,01;0,36;0,75;-1,48;-1,98;-2,40;0,27;-3,73;0,00
34.983;-1,65;-2,15;0,03;0,75;-1,48;-1,98;-2,40;0,27;-3,73;0,00
35.007;-1,65;-2,15;0,03;-9,42;-9,25;2,07;-2,40;0,27;-3,73;0,00
35.047;-1,39;-1,53;0,23;-9,42;-9,25;2,07;-2,40;0,27;-3,73;0,00
35.048;-1,39;-1,53;0,23;-9,42;-9,25;2,07;-6,22;-0,25;-7,63;0,00
35.077;-1,39;-1,53;0,23;-9,47;-16,78;-0,51;-6,22;-0,25;-7,63;0,00
35.078;-1,39;-1,53;0,23;-11,60;-15,38;1,53;-6,22;-0,25;-7,63;0,00
35.087;-1,39;-1,53;0,23;-11,60;-15,38;1,53;-5,48;-2,28;-4,59;0,00
35.117;-0,78;-0,40;0,37;-11,60;-15,38;1,53;-5,48;-2,28;-4,59;0,00
35.147;-0,78;-0,40;0,37;-6,28;4,38;6,30;-5,48;-2,28;-4,59;0,00
35.148;-0,78;-0,40;0,37;-6,29;4,14;6,74;-5,48;-2,28;-4,59;0,00
35.168;-0,78;-0,40;0,37;-6,29;4,14;6,74;-1,71;-2,91;-0,77;0,00
35.187;-1,34;-0,34;0,82;-6,29;4,14;6,74;-1,71;-2,91;-0,77;0,00
35.218;-1,34;-0,34;0,82;-6,61;2,70;7,58;-1,71;-2,91;-0,77;0,00
35.219;-1,34;-0,34;0,82;-5,33;2,42;6,53;-1,71;-2,91;-0,77;0,00
35.247;-1,34;-0,34;0,82;-5,33;2,42;6,53;1,49;-2,97;2,58;0,00
35.257;-0,92;-0,81;0,92;-5,33;2,42;6,53;1,49;-2,97;2,58;0,00
35.287;-0,92;-0,81;0,92;-5,33;2,42;6,53;5,35;-0,96;5,57;0,00
35.288;-0,92;-0,81;0,92;-7,81;4,14;9,27;5,35;-0,96;5,57;0,00
35.328;-0,42;-1,03;0,78;-7,81;4,14;9,27;5,35;-0,96;5,57;0,00
35.357;-0,42;-1,03;0,78;3,23;-4,15;7,96;5,35;-0,96;5,57;0,00
35.358;-0,42;-1,03;0,78;4,32;-6,56;7,28;5,35;-0,96;5,57;0,00
35.378;-0,42;-1,03;0,78;4,32;-6,56;7,28;5,56;1,16;6,08;0,00
35.397;-0,78;-1,34;0,68;4,32;-6,56;7,28;5,56;1,16;6,08;0,00
35.428;-0,78;-1,34;0,68;3,91;-11,51;3,61;5,56;1,16;6,08;0,00
35.429;-0,78;-1,34;0,68;3,80;-13,11;3,63;5,56;1,16;6,08;0,00
35.447;-0,78;-1,34;0,68;3,80;-13,11;3,63;3,30;0,02;3,82;0,00
35.467;-1,19;-0,84;0,12;3,80;-13,11;3,63;3,30;0,02;3,82;0,00
35.495;-1,19;-0,84;0,12;3,80;-13,11;3,63;0,47;-1,68;-1,93;0,00
35.497;-1,19;-0,84;0,12;-0,63;-11,58;2,20;0,47;-1,68;-1,93;0,00
35.498;-1,19;-0,84;0,12;-0,77;-10,37;1,58;0,47;-1,68;-1,93;0,00
35.538;-1,08;-0,36;-0,16;-0,77;-10,37;1,58;0,47;-1,68;-1,93;0,00
35.567;-1,08;-0,36;-0,16;-0,77;-10,37;1,58;-0,35;-0,76;-3,96;0,00
35.568;-1,08;-0,36;-0,16;-2,62;-5,19;-3,63;-0,35;-0,76;-3,96;0,00
35.612;-0,40;0,03;-0,22;-2,62;-5,19;-3,63;-0,35;-0,76;-3,96;0,00
35.637;-0,40;0,03;-0,22;0,11;2,60;-6,70;-0,35;-0,76;-3,96;0,00
35.638;-0,40;0,03;-0,22;-0,08;2,91;-6,69;-0,35;-0,76;-3,96;0,00
35.647;-0,40;0,03;-0,22;-0,08;2,91;-6,69;0,29;-0,17;-1,18;0,00
35.677;-0,40;-0,05;-0,01;-0,08;2,91;-6,69;0,29;-0,17;-1,18;0,00
35.687;-0,40;-0,05;-0,01;-0,08;2,91;-6,69;1,02;1,12;-0,40;0,00
35.708;-0,40;-0,05;-0,01;5,15;2,61;-4,43;1,02;1,12;-0,40;0,00
35.71;-0,40;-0,05;-0,01;5,20;2,49;-4,11;1,02;1,12;-0,40;0,00
35.747;-0,56;-0,20;0,09;5,20;2,49;-4,11;1,02;1,12;-0,40;0,00
35.767;-0,56;-0,20;0,09;5,20;2,49;-4,11;1,05;0,44;0,26;0,00
35.777;-0,56;-0,20;0,09;4,09;2,35;-3,42;1,05;0,44;0,26;0,00
35.778;-0,56;-0,20;0,09;4,11;2,03;-3,38;1,05;0,44;0,26;0,00
35.818;-0,71;-0,34;0,21;4,11;2,03;-3,38;1,05;0,44;0,26;0,00
35.848;-0,71;-0,34;0,21;4,11;2,03;-3,38;0,55;1,17;0,12;0,00
35.85;-0,71;-0,34;0,21;2,00;-0,32;-1,06;0,55;1,17;0,12;0,00
35.887;-0,71;-0,34;0,21;2,00;-0,32;-1,06;0,05;1,65;-1,69;0,00
35.887;-0,88;-0,57;0,17;2,00;-0,32;-1,06;0,05;1,65;-1,69;0,00
35.918;-0,88;-0,57;0,17;0,82;-0,63;0,39;0,05;1,65;-1,69;0,00
35.919;-0,88;-0,57;0,17;0,69;0,02;0,93;0,05;1,65;-1,69;0,00
35.958;-1,27;-1,40;0,13;0,69;0,02;0,93;0,05;1,65;-1,69;0,00
35.974;-1,27;-1,40;0,13;0,69;0,02;0,93;-0,54;2,22;-2,90;0,00
35.987;-1,27;-1,40;0,13;-1,69;-4,71;-0,04;-0,54;2,22;-2,90;0,00
35.988;-1,27;-1,40;0,13;-2,31;-3,57;0,68;-0,54;2,22;-2,90;0,00
36.028;-1,91;-1,95;0,23;-2,31;-3,57;0,68;-0,54;2,22;-2,90;0,00
36.047;-1,91;-1,95;0,23;-2,31;-3,57;0,68;-0,92;0,31;-3,54;0,00
36.058;-1,91;-1,95;0,23;-9,70;-10,80;2,79;-0,92;0,31;-3,54;0,00
36.059;-1,91;-1,95;0,23;-10,43;-9,85;2,66;-0,92;0,31;-3,54;0,00
36.09;-1,91;-1,95;0,23;-10,43;-9,85;2,66;-0,47;-0,57;-1,53;0,00
36.117;-2,17;-1,07;0,36;-10,43;-9,85;2,66;-0,47;-0,57;-1,53;0,00
36.127;-2,17;-1,07;0,36;-12,73;-7,88;2,09;-0,47;-0,57;-1,53;0,00
36.167;-2,17;-1,07;0,36;-12,73;-7,88;2,09;0,03;-1,99;2,16;0,00
36.169;-2,04;-0,39;0,15;-12,73;-7,88;2,09;0,03;-1,99;2,16;0,00
36.198;-2,04;-0,39;0,15;-15,87;1,67;2,30;0,03;-1,99;2,16;0,00
36.199;-2,04;-0,39;0,15;-14,73;0,69;1,44;0,03;-1,99;2,16;0,00
36.238;-1,48;-0,26;0,18;-14,73;0,69;1,44;0,03;-1,99;2,16;0,00
36.247;-1,48;-0,26;0,18;-14,73;0,69;1,44;0,99;-1,02;5,21;0,00
36.267;-1,48;-0,26;0,18;-8,95;1,83;-0,46;0,99;-1,02;5,21;0,00
36.269;-1,48;-0,26;0,18;-7,95;-0,59;-0,81;0,99;-1,02;5,21;0,00
36.292;-1,48;-0,26;0,18;-7,95;-0,59;-0,81;1,78;-0,40;6,43;0,00
36.308;-0,67;-0,42;-0,04;-7,95;-0,59;-0,81;1,78;-0,40;6,43;0,00
36.337;-0,67;-0,42;-0,04;-0,77;-2,76;-2,25;1,78;-0,40;6,43;0,00
36.338;-0,67;-0,42;-0,04;-1,28;-5,88;-1,84;1,78;-0,40;6,43;0,00
36.367;-0,67;-0,42;-0,04;-1,28;-5,88;-1,84;1,63;0,62;7,68;0,00
36.377;-0,79;-1,33;-0,27;-1,28;-5,88;-1,84;1,63;0,62;7,68;0,00
36.407;-0,79;-1,33;-0,27;2,27;-13,04;-4,23;1,63;0,62;7,68;0,00
36.447;-0,79;-1,33;-0,27;2,27;-13,04;-4,23;-1,25;0,16;8,21;0,00
36.448;-0,47;-0,98;-0,30;2,27;-13,04;-4,23;-1,25;0,16;8,21;0,00
36.478;-0,47;-0,98;-0,30;-1,11;-22,90;-1,84;-1,25;0,16;8,21;0,00
36.479;-0,47;-0,98;-0,30;-3,64;-23,63;-2,62;-1,25;0,16;8,21;0,00
36.487;-0,47;-0,98;-0,30;-3,64;-23,63;-2,62;-1,70;-1,73;5,92;0,00
36.518;0,86;0,75;0,47;-3,64;-23,63;-2,62;-1,70;-1,73;5,92;0,00
36.548;0,86;0,75;0,47;3,88;-12,41;-4,48;-1,70;-1,73;5,92;0,00
36.548;0,86;0,75;0,47;3,74;-11,92;-5,11;-1,70;-1,73;5,92;0,00
36.567;0,86;0,75;0,47;3,74;-11,92;-5,11;-2,43;1,70;-0,04;0,00
36.587;0,08;1,13;0,80;3,74;-11,92;-5,11;-2,43;1,70;-0,04;0,00
36.618;0,08;1,13;0,80;4,60;4,54;2,58;-2,43;1,70;-0,04;0,00
36.621;0,08;1,13;0,80;4,95;5,28;1,52;-2,43;1,70;-0,04;0,00
36.648;0,08;1,13;0,80;4,95;5,28;1,52;-3,29;-0,40;-1,73;0,00
36.657;0,41;0,31;1,24;4,95;5,28;1,52;-3,29;-0,40;-1,73;0,00
36.687;0,41;0,31;1,24;4,95;5,28;1,52;-1,10;0,28;-0,45;0,00
36.688;0,41;0,31;1,24;5,43;1,22;1,22;-1,10;0,28;-0,45;0,00
36.728;-0,05;0,30;1,00;5,43;1,22;1,22;-1,10;0,28;-0,45;0,00
36.757;-0,05;0,30;1,00;4,48;-4,93;5,90;-1,10;0,28;-0,45;0,00
36.758;-0,05;0,30;1,00;4,31;-5,34;6,26;-1,10;0,28;-0,45;0,00
36.767;-0,05;0,30;1,00;4,31;-5,34;6,26;2,30;-0,48;0,10;0,00
36.798;-0,65;0,78;0,38;4,31;-5,34;6,26;2,30;-0,48;0,10;0,00
36.828;-0,65;0,78;0,38;-0,35;-2,71;1,26;2,30;-0,48;0,10;0,00
